id,delay,expectation,congruency,trial_num,stim_color,distractor_color,block,targetTimeMs,famLoop.thisRepN,famLoop.thisTrialN,famLoop.thisN,famLoop.thisIndex,trialss.thisRepN,trialss.thisTrialN,trialss.thisN,trialss.thisIndex,isTrial,handMove.started,audioCue2Start.started,handOri,handMove.ended,audioCue2End.started,target_color,expected_target_onset,expected_target_onset_in_frames,fixationPoint.started,fixationPoint.stopped,audCueStart.started,placeholder.started,audCueStart.stopped,target.started,target.stopped,audCueEnd.started,audCueEnd.stopped,responsePointer.started,cueForRep.started,space2pass.started,responseStarted,rtUntillMotionTreshold,responsePointer.stopped,rTAfterMotionTreshold,rtDurationBtwRespMotion,perceivedTime,resp_x_coord,resp_y_coord,feedbackPointer.stopped,actualTime_x_coord,actualTime_y_coord,space2pass.keys,space2pass.rt,expected_delay,expected_delays_frame,expected_distractor,expected_distractor_frame,expBlockFiles,distractor.started,distractor.stopped,participant,session,date,expName,psychopyVersion,frameRate,
,,,,,,,,,0,0,0,0,,,,,fam,1.17306169999938,1.17306169999938,270.0000000000009,3.165350999999646,3.165350999999646,,,,,,,,,,,,,,,,,,,,,,,,,,,,,,,,,,,,p10_high2_01,001,2023-05-04_16h11.34.292,expectation_shapes_perceived_time,2022.2.4,119.61937116439094,
,,,,,,,,,1,0,1,0,,,,,fam,0.49872700000196346,0.49872700000196346,270.0000000000009,2.490326399998594,2.490326399998594,,,,,,,,,,,,,,,,,,,,,,,,,,,,,,,,,,,,p10_high2_01,001,2023-05-04_16h11.34.292,expectation_shapes_perceived_time,2022.2.4,119.61937116439094,
,,,,,,,,,2,0,2,0,,,,,fam,0.4983844999987923,0.4983844999987923,270.0000000000009,2.490188299998408,2.490188299998408,,,,,,,,,,,,,,,,,,,,,,,,,,,,,,,,,,,,p10_high2_01,001,2023-05-04_16h11.34.292,expectation_shapes_perceived_time,2022.2.4,119.61937116439094,
,,,,,,,,,3,0,3,0,,,,,fam,0.49952959999791346,0.49952959999791346,270.0000000000009,2.491099099999701,2.491099099999701,,,,,,,,,,,,,,,,,,,,,,,,,,,,,,,,,,,,p10_high2_01,001,2023-05-04_16h11.34.292,expectation_shapes_perceived_time,2022.2.4,119.61937116439094,
,,,,,,,,,4,0,4,0,,,,,fam,0.49862170000051265,0.49862170000051265,270.0000000000009,2.490256599998247,2.490256599998247,,,,,,,,,,,,,,,,,,,,,,,,,,,,,,,,,,,,p10_high2_01,001,2023-05-04_16h11.34.292,expectation_shapes_perceived_time,2022.2.4,119.61937116439094,
,,,,,,,,,,,,,0,0,0,0,test,,,,,,red,1.5229524960810923,1.5166666666666666,2.2915062999963993,0.9987494000015431,1.4999997802078724e-05,1e-05,0.03364249999867752,1.5167368999973405,1.5502337999969313,1.9999691999983042,2.033372599998984,2.2915062999963993,2.2915062999963993,2.59133269999802,4.066822199998569,1.7753159000021697,8.291717499996594,6.000211200000194,4.224895299998025,1.63312,-0.1350828301250558,0.06003681338891369,8.291717499996594,-0.1474393735655984,0.010649933289643594,space,5.692898300003435,,,,,,,,p10_high2_01,001,2023-05-04_16h11.34.292,expectation_shapes_perceived_time,2022.2.4,119.61937116439094,
,,,,,,,,,,,,,1,0,1,0,test,,,,,,green,0.7031842013808534,0.7,2.291658999998617,0.99849549999999,1.720000000204891e-05,2e-05,0.03301920000012615,0.699927800000296,0.7330246999990777,1.999694099999033,2.033038999998098,2.291658999998617,2.291658999998617,2.591364399999293,2.291658999998617,0.0,5.132773099998303,2.841114099999686,2.841114099999686,0.35755,0.13326630223669303,0.06396782507361266,5.132773099998303,0.11871657641752498,-0.08808044300633301,space,2.537237399999867,,,,,,,,p10_high2_01,001,2023-05-04_16h11.34.292,expectation_shapes_perceived_time,2022.2.4,119.61937116439094,
,,,,,,,,,,,,,2,0,2,0,test,,,,,,green,1.7472286794852605,1.7416666666666667,2.2915907000024163,0.9987256999993406,1.2700002116616815e-05,1e-05,,1.741548400001193,1.7749145000016142,1.999947100001009,,2.2915907000024163,2.2915907000024163,2.591707400002633,2.333342600002652,0.041751900000235764,4.550015799999528,2.258425099997112,2.216673199996876,1.86079,-0.06260760401721663,0.13391070859238002,4.550015799999528,-0.10543308265470545,0.10361300612575611,space,1.9558970000034606,,,,,,,,p10_high2_01,001,2023-05-04_16h11.34.292,expectation_shapes_perceived_time,2022.2.4,119.61937116439094,
,,,,,,,,,,,,,3,0,3,0,test,,,,,,red,1.7728405286093658,1.7666666666666666,2.291823100000329,0.9985154000023613,2.89999989036005e-05,3e-05,,1.7666859999990265,1.8000811999991129,2.000155599998834,,2.291823100000329,2.291823100000329,2.5916399999987334,2.3918459999986226,0.10002289999829372,4.6173595000000205,2.3255363999996916,2.225513500001398,1.84502,-0.06916480487732228,0.1306446314349421,4.6173595000000205,-0.09676405625346875,0.11175199046936683,space,2.0226158000004943,,,,,,,,p10_high2_01,001,2023-05-04_16h11.34.292,expectation_shapes_perceived_time,2022.2.4,119.61937116439094,
,,,,,,,,,,,,,4,0,4,0,test,,,,,,red,1.6767401256355805,1.675,2.2915775000001304,0.9983624999986205,1.3799999578623101e-05,1e-05,0.03331140000227606,1.6747949000018707,1.7084517000002961,1.9998591000003216,2.0333147999990615,2.2915775000001304,2.2915775000001304,2.59144329999981,2.6831762000001618,0.3915987000000314,4.508805000001303,2.2172275000011723,1.825628800001141,1.73092,-0.11059972567779734,0.0980790020161599,4.508805000001303,-0.12561614041733427,0.07792544657005493,space,1.9171781000040937,,,,,,,,p10_high2_01,001,2023-05-04_16h11.34.292,expectation_shapes_perceived_time,2022.2.4,119.61937116439094,
,,,,,,,,,0,0,0,0,0,-1,-1,0,fam,0.5316844999979367,0.5316844999979367,270.0000000000009,2.523719799999526,2.523719799999526,,,,,,,,,,,,,,,,,,,,,,,,,,,,,,,,,,,,p10_high2_01,001,2023-05-04_16h11.34.292,expectation_shapes_perceived_time,2022.2.4,119.61937116439094,
,,,,,,,,,1,0,1,0,0,-1,-1,0,fam,0.4987094000025536,0.4987094000025536,270.0000000000009,2.4905006000008143,2.4905006000008143,,,,,,,,,,,,,,,,,,,,,,,,,,,,,,,,,,,,p10_high2_01,001,2023-05-04_16h11.34.292,expectation_shapes_perceived_time,2022.2.4,119.61937116439094,
,,,,,,,,,2,0,2,0,0,-1,-1,0,fam,0.49861779999991995,0.49861779999991995,270.0000000000009,2.490457800002332,2.490457800002332,,,,,,,,,,,,,,,,,,,,,,,,,,,,,,,,,,,,p10_high2_01,001,2023-05-04_16h11.34.292,expectation_shapes_perceived_time,2022.2.4,119.61937116439094,
,,,,,,,,,3,0,3,0,0,-1,-1,0,fam,0.4981721000003745,0.4981721000003745,270.0000000000009,2.4901319000018702,2.4901319000018702,,,,,,,,,,,,,,,,,,,,,,,,,,,,,,,,,,,,p10_high2_01,001,2023-05-04_16h11.34.292,expectation_shapes_perceived_time,2022.2.4,119.61937116439094,
1,500,0.5,none,25,green,red,no_Expectation,,,,,,0,0,0,6,train_doubleStim,,,,,,green,0.4484546137233507,0.45,2.292074100001628,0.9987965000000258,1e-05,1e-05,0.03367,0.44999590000225,0.4834958000028564,2.0003228000023228,2.0337390000022424,2.292074100001628,2.292074100001628,2.491684800002986,2.425445700002456,0.13337160000082804,4.166832200000499,1.8747580999988713,1.7413864999980433,0.87112,0.05823053316987949,-0.13587124406305215,,,,None,,0.5,0.5,0.9817846137233507,0.975,training_double_stim.csv,0.9750718000032066,1.0081625000020722,p10_high2_01,001,2023-05-04_16h11.34.292,expectation_shapes_perceived_time,2022.2.4,119.61937116439094,
1,-500,0.5,none,77,green,red,no_Expectation,,,,,,0,1,1,1,train_doubleStim,,,,,,green,0.7939971114032778,0.7916666666666666,2.291142599999148,0.9972988000008627,1e-05,1e-05,,0.7913857999992615,0.8249219999997877,1.9995466000000306,,2.291142599999148,2.291142599999148,2.4916655000015453,2.291142599999148,0.0,3.6831012000002374,1.3919586000010895,1.3919586000010895,0.82039,0.07905565711285308,-0.12490793823830786,,,,None,,-0.5,-0.5,0.2606671114032778,0.2583333333333333,training_double_stim.csv,0.25809099999969476,0.2915601999993669,p10_high2_01,001,2023-05-04_16h11.34.292,expectation_shapes_perceived_time,2022.2.4,119.61937116439094,
1,-500,0.5,none,46,red,green,no_Expectation,,,,,,0,2,2,4,train_doubleStim,,,,,,red,1.1329587711509705,1.1333333333333333,2.291884399997798,0.9976328999982798,1e-05,1e-05,0.03325,1.133144799998263,1.1662391999998363,2.000017399997887,2.0332071999982873,2.291884399997798,2.291884399997798,2.491934300000139,2.3999158999977226,0.10803149999992456,4.250439799998276,1.9585554000004777,1.8505239000005531,0.72697,0.11180825859715597,-0.09669903446240516,,,,None,,-0.5,-0.5,0.5996287711509705,0.6,training_double_stim.csv,0.6000202999966859,0.6335667999992438,p10_high2_01,001,2023-05-04_16h11.34.292,expectation_shapes_perceived_time,2022.2.4,119.61937116439094,
1,-500,0.5,none,68,red,green,no_Expectation,,,,,,0,3,3,3,train_doubleStim,,,,,,red,1.229692801169055,1.225,2.2917546999997285,0.9970992999988084,2e-05,2e-05,0.0333,1.2248065000021597,1.258093500000541,1.9998223000002326,2.0334602000002633,2.2917546999997285,2.2917546999997285,2.491756399998849,2.483303799999703,0.19154909999997471,4.050178699999378,1.7584239999996498,1.566874899999675,1.18347,-0.08056209061350739,-0.12394167786693444,,,,None,,-0.5,-0.5,0.6963628011690551,0.6916666666666667,training_double_stim.csv,0.6915628000024299,0.7249446999994689,p10_high2_01,001,2023-05-04_16h11.34.292,expectation_shapes_perceived_time,2022.2.4,119.61937116439094,
1,500,0.5,none,98,red,green,no_Expectation,,,,,,0,4,4,5,train_doubleStim,,,,,,red,0.29649107956759885,0.2916666666666667,2.291724399998202,0.9970726000028662,2e-05,2e-05,0.03387,0.29185819999838714,0.3253737999984878,2.0003266999992775,2.0335244000016246,2.291724399998202,2.291724399998202,2.4919412000017473,2.3585830999982136,0.0668587000000116,3.625211599999602,1.3334872000014002,1.2666285000013886,0.39998,0.14058519367969763,0.04569018794590173,,,,None,,0.5,0.5,0.8298210795675989,0.825,training_double_stim.csv,0.8251964000010048,0.8582980999999563,p10_high2_01,001,2023-05-04_16h11.34.292,expectation_shapes_perceived_time,2022.2.4,119.61937116439094,
1,-500,0.5,none,59,green,red,no_Expectation,,,,,,0,5,5,0,train_doubleStim,,,,,,green,1.6275127318941014,1.625,2.29161749999912,0.9964805999989039,2e-05,2e-05,,1.6250136000016937,1.6583376999988104,1.9997537000017473,,2.29161749999912,2.29161749999912,2.4913215000015043,2.499825899998541,0.2082083999994211,4.424914200000785,2.133296700001665,1.925088300002244,1.59774,-0.14090989821342814,0.044678748214013804,,,,None,,-0.5,-0.5,1.0941827318941013,1.0916666666666666,training_double_stim.csv,1.0912783999992826,1.1247853999993822,p10_high2_01,001,2023-05-04_16h11.34.292,expectation_shapes_perceived_time,2022.2.4,119.61937116439094,
1,500,0.5,none,33,green,red,no_Expectation,,,,,,0,6,6,7,train_doubleStim,,,,,,green,0.7943528192649442,0.7916666666666666,2.2918847000000824,0.9971547000022838,2e-05,2e-05,0.03356,0.7916703000009875,0.825014199999714,2.00002780000068,2.033538800002134,2.2918847000000824,2.2918847000000824,2.4917881000001216,2.2918847000000824,0.0,3.5167951000003086,1.2249104000002262,1.2249104000002262,1.0,0.0,-0.14782350948509485,,,,None,,0.5,0.5,1.3276828192649441,1.325,training_double_stim.csv,1.325226200002362,1.3582648000010522,p10_high2_01,001,2023-05-04_16h11.34.292,expectation_shapes_perceived_time,2022.2.4,119.61937116439094,
1,500,0.5,none,60,red,green,no_Expectation,,,,,,0,7,7,8,train_doubleStim,,,,,,red,1.313302692944509,1.3083333333333333,2.2918838999976288,0.9978128000002471,2e-05,2e-05,,1.3083220999978948,1.3417625000001863,1.9999146000009205,,2.2918838999976288,2.2918838999976288,2.4917256999979145,3.2913537999993423,0.9994699000017135,5.4837320000006,3.1918481000029715,2.192378200001258,1.41375,-0.14243059885324028,-0.03956405523701119,,,,None,,0.5,0.5,1.846632692944509,1.8416666666666666,training_double_stim.csv,1.841792399998667,1.8749982000008458,p10_high2_01,001,2023-05-04_16h11.34.292,expectation_shapes_perceived_time,2022.2.4,119.61937116439094,
1,500,0.5,none,88,red,green,no_Expectation,,,,,,0,8,8,9,train_doubleStim,,,,,,red,0.34763637821094595,0.35,2.2910780999991402,0.9975801000000502,1e-05,1e-05,0.03273,0.35008210000160034,0.38333309999870835,1.9997584000011557,2.033245300000999,2.2910780999991402,2.2910780999991402,2.4915996999989147,2.3993932000012137,0.10831510000207345,3.566238700001122,1.275160600001982,1.1668454999999085,0.84806,0.06791350820580619,-0.131299449197892,,,,None,,0.5,0.5,0.880966378210946,0.875,training_double_stim.csv,0.875222800001211,0.9082239999988815,p10_high2_01,001,2023-05-04_16h11.34.292,expectation_shapes_perceived_time,2022.2.4,119.61937116439094,
1,-500,0.5,none,23,green,red,no_Expectation,,,,,,0,9,9,2,train_doubleStim,,,,,,green,1.3524456473923252,1.35,2.291818699999567,0.997653899998113,2e-05,2e-05,,1.3498803000002226,1.3831979999995383,1.9999610999984725,,2.291818699999567,2.291818699999567,2.4913567999974475,2.416846899999655,0.12502820000008796,3.4415106999986165,1.1496919999990496,1.0246637999989616,0.41193,0.14220190353424636,0.040378318287502046,,,,None,,-0.5,-0.5,0.819115647392325,0.8166666666666667,training_double_stim.csv,0.8168244999978924,0.8500935999982175,p10_high2_01,001,2023-05-04_16h11.34.292,expectation_shapes_perceived_time,2022.2.4,119.61937116439094,
,,,,,,,,,0,0,0,0,0,-1,-1,0,fam,0.5319497999989835,0.5319497999989835,270.0000000000009,2.523789700000634,2.523789700000634,,,,,,,,,,,,,,,,,,,,,,,,,,,,,,,,,,,,p10_high2_01,001,2023-05-04_16h11.34.292,expectation_shapes_perceived_time,2022.2.4,119.61937116439094,
,,,,,,,,,1,0,1,0,0,-1,-1,0,fam,0.4983132999986992,0.4983132999986992,270.0000000000009,2.489855700001499,2.489855700001499,,,,,,,,,,,,,,,,,,,,,,,,,,,,,,,,,,,,p10_high2_01,001,2023-05-04_16h11.34.292,expectation_shapes_perceived_time,2022.2.4,119.61937116439094,
,,,,,,,,,2,0,2,0,0,-1,-1,0,fam,0.498306199999206,0.498306199999206,270.0000000000009,2.490212900000188,2.490212900000188,,,,,,,,,,,,,,,,,,,,,,,,,,,,,,,,,,,,p10_high2_01,001,2023-05-04_16h11.34.292,expectation_shapes_perceived_time,2022.2.4,119.61937116439094,
,,,,,,,,,3,0,3,0,0,-1,-1,0,fam,0.4987559000001056,0.4987559000001056,270.0000000000009,2.4899750000004133,2.4899750000004133,,,,,,,,,,,,,,,,,,,,,,,,,,,,,,,,,,,,p10_high2_01,001,2023-05-04_16h11.34.292,expectation_shapes_perceived_time,2022.2.4,119.61937116439094,
,-167,0.1999999999999999,unmet,,green,red,,1405.602864406746,,,,,0,0,0,273,trial,,,,,,green,1.405602864406746,1.4,2.2918374000000767,0.9988995999992767,1e-05,1e-05,0.0337,1.4002045999986876,1.4335732999970787,1.999695899998187,2.0331225999980234,2.2918374000000767,2.2918374000000767,2.491697999997996,2.84180539999943,0.5499679999993532,4.016792399997939,1.7249549999978626,1.1749869999985094,1.4659,-0.14697627927578794,-0.015803900997396553,,,,None,,-0.167,-0.16666666666666666,1.205272864406746,1.2,trial_list_0.8_red.csv,1.1999846999970032,1.2333663999997952,p10_high2_01,001,2023-05-04_16h11.34.292,expectation_shapes_perceived_time,2022.2.4,119.61937116439094,
,-233,0.8,met,,red,green,,593.3421593115039,,,,,0,1,1,337,trial,,,,,,red,0.5933421593115039,0.5916666666666667,2.2915647999980138,0.9970382999999856,1e-05,1e-05,,0.5918154999999388,0.624730699997599,1.9996389000007184,,2.2915647999980138,2.2915647999980138,2.4914723000001686,2.4249896999972407,0.1334248999992269,3.349999599999137,1.0584348000011232,0.9250099000018963,0.60129,0.14040199782530682,-0.04625006987186577,,,,None,,-0.233,-0.23333333333333334,0.3270121593115039,0.325,trial_list_0.8_red.csv,0.32536509999772534,0.35862169999745674,p10_high2_01,001,2023-05-04_16h11.34.292,expectation_shapes_perceived_time,2022.2.4,119.61937116439094,
,33,0.8,met,,red,green,,1672.2605163193596,,,,,0,2,2,216,trial,,,,,,red,1.6722605163193596,1.6666666666666667,2.2912576999988232,0.9977145999982895,2e-05,2e-05,,1.6664372999985062,1.6999680000008084,1.999743500000477,,2.2912576999988232,2.2912576999988232,2.4911793999999645,2.4165925000015704,0.12533480000274722,3.5328951999981655,1.2416374999993423,1.116302699996595,1.68603,-0.12328762076012252,0.08155950296438874,,,,None,,0.033,0.03333333333333333,1.7385905163193596,1.7333333333333334,trial_list_0.8_red.csv,1.7334723999993003,1.7666729999982635,p10_high2_01,001,2023-05-04_16h11.34.292,expectation_shapes_perceived_time,2022.2.4,119.61937116439094,
,167,0.8,met,,red,green,,1541.0340323789026,,,,,0,3,3,472,trial,,,,,,red,1.5410340323789025,1.5333333333333332,2.291304599999421,0.9983183999975154,1e-05,1e-05,0.03332,1.5331207000017457,1.566627399999561,1.999840899999981,2.0331449000004795,2.291304599999421,2.291304599999421,2.4913086999986263,2.824619700000767,0.5333151000013459,3.416293099999166,1.1249884999997448,0.591673399998399,1.60866,-0.13929433376933814,0.049486144891738554,,,,None,,0.167,0.16666666666666666,1.7413640323789026,1.7333333333333334,trial_list_0.8_red.csv,1.7330828000012843,1.7663112000009278,p10_high2_01,001,2023-05-04_16h11.34.292,expectation_shapes_perceived_time,2022.2.4,119.61937116439094,
,-300,0.1999999999999999,unmet,,green,red,,708.8659265021545,,,,,0,4,4,405,trial,,,,,,green,0.7088659265021545,0.7083333333333334,2.291249699999753,0.997425800000201,2e-05,2e-05,,0.7084729999987758,0.7416764999979932,1.9999726999994891,,2.291249699999753,2.291249699999753,2.4918572999995376,2.299776500000007,0.008526800000254298,3.5919063999972423,1.3006566999974893,1.292129899997235,0.43592,0.1448380745766599,0.029558790729930597,,,,None,,-0.3,-0.3,0.3755359265021545,0.375,trial_list_0.8_red.csv,0.3748760999988008,0.4082965999987209,p10_high2_01,001,2023-05-04_16h11.34.292,expectation_shapes_perceived_time,2022.2.4,119.61937116439094,
,-100,0.8,met,,red,green,,1785.0694796726866,,,,,0,5,5,31,trial,,,,,,red,1.7850694796726867,1.7833333333333332,2.291544800002157,0.9977882000021054,1e-05,1e-05,0.0333,1.7830538000016531,1.8164853000016592,2.000008600000001,2.0326965999993263,2.291544800002157,2.291544800002157,2.4912933000014164,2.291544800002157,0.0,3.5417722999991383,1.2502274999969814,1.2502274999969814,1.58751,-0.1422726888071026,0.040128194278926374,,,,None,,-0.1,-0.1,1.6517394796726868,1.65,trial_list_0.8_red.csv,1.6500113000001875,1.6831396000015957,p10_high2_01,001,2023-05-04_16h11.34.292,expectation_shapes_perceived_time,2022.2.4,119.61937116439094,
,-233,0.1999999999999999,unmet,,green,red,,1593.7645680541864,,,,,0,6,6,452,trial,,,,,,green,1.5937645680541863,1.5916666666666666,2.2915213000014774,0.9973312999973132,2e-05,2e-05,0.03318,1.5914835000003222,1.6250178000009328,1.999941400001262,2.033310099999653,2.2915213000014774,2.2915213000014774,2.4917534999985946,2.633427100001427,0.3419057999999495,3.308244799998647,1.0167234999971697,0.6748176999972202,1.7687,-0.09820859423082867,0.11048466850968224,,,,None,,-0.233,-0.23333333333333334,1.3274345680541864,1.325,trial_list_0.8_red.csv,1.3248192999999446,1.3583030000008876,p10_high2_01,001,2023-05-04_16h11.34.292,expectation_shapes_perceived_time,2022.2.4,119.61937116439094,
,-233,0.1999999999999999,unmet,,green,red,,1799.5884518936384,,,,,0,7,7,313,trial,,,,,,green,1.7995884518936385,1.7916666666666667,2.2917713999995613,0.9974259999980859,1e-05,1e-05,0.03369,1.7922183999980916,1.8253396000000066,2.0005478999992192,2.033592099996895,2.2917713999995613,2.2917713999995613,2.491939100000309,2.783946699997614,0.49217529999805265,4.483613000000332,2.191841600000771,1.6996663000027183,1.17202,-0.07605456818248199,-0.12675761363746998,,,,None,,-0.233,-0.23333333333333334,1.5332584518936385,1.525,trial_list_0.8_red.csv,1.5254520999988017,1.5586240999982692,p10_high2_01,001,2023-05-04_16h11.34.292,expectation_shapes_perceived_time,2022.2.4,119.61937116439094,
,-33,0.8,met,,red,green,,1653.841489466953,,,,,0,8,8,244,trial,,,,,,red,1.6538414894669529,1.65,2.2917573999984597,0.9972319000007701,2e-05,2e-05,0.03381,1.6502120999975887,1.6837213999970118,2.0001518999997643,2.033762699997169,2.2917573999984597,2.2917573999984597,2.492053499998292,2.575230399997963,0.28347299999950337,3.6087212999991607,1.316963900000701,1.0334909000011976,1.75876,-0.1016116371716836,0.10736323927574117,,,,None,,-0.033,-0.03333333333333333,1.587511489466953,1.5833333333333333,trial_list_0.8_red.csv,1.5834840999996231,1.617075099999056,p10_high2_01,001,2023-05-04_16h11.34.292,expectation_shapes_perceived_time,2022.2.4,119.61937116439094,
,-33,0.8,met,,red,green,,1153.0324515105824,,,,,0,9,9,151,trial,,,,,,red,1.1530324515105823,1.15,2.2918086999998195,0.9979811000011978,1e-05,1e-05,0.03342,1.150015400002303,1.1835385000013048,2.0001226000022143,2.0335986000027333,2.2918086999998195,2.2918086999998195,2.491893300000811,3.058760700001585,0.7669520000017656,3.9080737000003865,1.616265000000567,0.8493129999988014,1.1104,-0.050248593670415585,-0.13902110915481647,,,,None,,-0.033,-0.03333333333333333,1.0867024515105825,1.0833333333333333,trial_list_0.8_red.csv,1.0833332000001974,1.1167967000001227,p10_high2_01,001,2023-05-04_16h11.34.292,expectation_shapes_perceived_time,2022.2.4,119.61937116439094,
,100,0.8,met,,red,green,,1329.0381872736552,,,,,0,10,10,55,trial,,,,,,red,1.3290381872736552,1.325,2.291733000001841,0.9981784999981755,1e-05,1e-05,0.0337,1.3249305999997887,1.3582558999987668,2.0002802000017255,2.033369299999322,2.291733000001841,2.291733000001841,2.491636599999765,2.51658690000113,0.22485389999928884,3.2834747999986575,0.9917417999968166,0.7668878999975277,0.77843,0.09478706023311015,-0.11343369503306625,,,,None,,0.1,0.1,1.4623681872736551,1.4583333333333333,trial_list_0.8_red.csv,1.4585052000002179,1.491618700001709,p10_high2_01,001,2023-05-04_16h11.34.292,expectation_shapes_perceived_time,2022.2.4,119.61937116439094,
,-167,0.1999999999999999,unmet,,green,red,,1844.282013740912,,,,,0,11,11,460,trial,,,,,,green,1.844282013740912,1.8416666666666666,2.2920917000010377,0.997393199999351,1e-05,1e-05,0.03363,1.8417049999989104,1.8752047000016319,2.000029300001188,2.0337450000006356,2.2920917000010377,2.2920917000010377,2.491831800001819,2.6920175999985076,0.39992589999746997,3.5835689999985334,1.2914772999974957,0.8915514000000258,1.0043,-0.0019974326207409863,-0.147810013934833,,,,None,,-0.167,-0.16666666666666666,1.643952013740912,1.6416666666666666,trial_list_0.8_red.csv,1.6421709999995073,1.6752605000001495,p10_high2_01,001,2023-05-04_16h11.34.292,expectation_shapes_perceived_time,2022.2.4,119.61937116439094,
,300,0.1999999999999999,unmet,,green,red,,661.0617599896802,,,,,0,12,12,34,trial,,,,,,green,0.6610617599896802,0.6583333333333333,2.291688900000736,0.9974984000000404,1e-05,1e-05,,0.6577756000006048,0.6918019000004278,1.9996705000012298,,2.291688900000736,2.291688900000736,2.4913470999999845,2.5997007000005397,0.30801179999980377,4.166400599999179,1.8747116999984428,1.566699899998639,0.53319,0.1470206266732891,-0.015385879535576765,,,,None,,0.3,0.3,0.9943917599896803,0.9916666666666667,trial_list_0.8_red.csv,0.991481199998816,1.0246938999989652,p10_high2_01,001,2023-05-04_16h11.34.292,expectation_shapes_perceived_time,2022.2.4,119.61937116439094,
,-167,0.8,met,,red,green,,1240.4316247370098,,,,,0,13,13,96,trial,,,,,,red,1.2404316247370097,1.2333333333333334,2.29190860000017,0.9977247999995598,1e-05,1e-05,0.03364,1.2332127999980003,1.266751999999542,2.0000216999978875,2.033139499999379,2.29190860000017,2.29190860000017,2.491847199999029,2.500094300001365,0.20818570000119507,4.300065999999788,2.008157399999618,1.799971699998423,0.9018,0.04488450836961093,-0.14084449178050326,,,,None,,-0.167,-0.16666666666666666,1.0401016247370098,1.0333333333333332,trial_list_0.8_red.csv,1.033445799999754,1.066643899997871,p10_high2_01,001,2023-05-04_16h11.34.292,expectation_shapes_perceived_time,2022.2.4,119.61937116439094,
,233,0.8,met,,red,green,,338.2621198902825,,,,,0,14,14,465,trial,,,,,,red,0.33826211989028254,0.3333333333333333,2.2921212000001105,0.9968109000001277,1e-05,1e-05,0.03373,0.3341190999999526,0.367302099999506,2.0004183999990346,2.0339115999995556,2.2921212000001105,2.2921212000001105,2.491968199999974,2.659211599999253,0.3670903999991424,3.50865789999807,1.2165366999979597,0.8494462999988173,0.92781,0.033239521421297664,-0.14403792615895655,,,,None,,0.233,0.23333333333333334,0.6045921198902826,0.6,trial_list_0.8_red.csv,0.6006899999993038,0.6337192999999388,p10_high2_01,001,2023-05-04_16h11.34.292,expectation_shapes_perceived_time,2022.2.4,119.61937116439094,
,-167,0.8,met,,red,green,,708.1808365711138,,,,,0,15,15,199,trial,,,,,,red,0.7081808365711137,0.7083333333333334,2.291456200000539,0.998139600000286,1e-05,1e-05,0.03327,0.708046399999148,0.7410249999993539,1.9996037999990222,2.0329038000018045,2.291456200000539,2.291456200000539,2.491515400000935,2.291456200000539,0.0,3.191260499999771,0.8998042999992322,0.8998042999992322,0.47178,0.1472429534492788,0.013088262528824782,,,,None,,-0.167,-0.16666666666666666,0.5078508365711139,0.5083333333333333,trial_list_0.8_red.csv,0.5074391000016476,0.5411703999998281,p10_high2_01,001,2023-05-04_16h11.34.292,expectation_shapes_perceived_time,2022.2.4,119.61937116439094,
,-167,0.1999999999999999,unmet,,green,red,,1454.3579525000284,,,,,0,16,16,426,trial,,,,,,green,1.4543579525000285,1.45,2.291366299999936,0.9977126999983739,3e-05,3e-05,0.0336,1.4503196000005119,1.4836431000003358,2.0001326000019617,2.0332749000008334,2.291366299999936,2.291366299999936,2.491347900002438,2.5080158000018855,0.2166495000019495,3.6331669999999576,1.3418007000000216,1.1251511999980721,1.27371,-0.11201604374219767,-0.09645825988911463,,,,None,,-0.167,-0.16666666666666666,1.2540279525000284,1.25,trial_list_0.8_red.csv,1.250068299999839,1.2836840000018128,p10_high2_01,001,2023-05-04_16h11.34.292,expectation_shapes_perceived_time,2022.2.4,119.61937116439094,
,233,0.8,met,,red,green,,172.46663866212157,,,,,0,17,17,288,trial,,,,,,red,0.17246663866212156,0.175,2.2911251000004995,0.9983795000007376,1e-05,1e-05,,0.17459930000040913,0.20817119999992428,1.999534800001129,,2.2911251000004995,2.2911251000004995,2.4915188000013586,2.2911251000004995,0.0,3.0910530000001017,0.7999278999996022,0.7999278999996022,0.33389,0.12814913211271406,0.07368575096481059,,,,None,,0.233,0.23333333333333334,0.43879663866212154,0.43333333333333335,trial_list_0.8_red.csv,0.4330268999983673,0.4664164999994682,p10_high2_01,001,2023-05-04_16h11.34.292,expectation_shapes_perceived_time,2022.2.4,119.61937116439094,
,-33,0.1999999999999999,unmet,,green,red,,377.65025571826766,,,,,0,18,18,280,trial,,,,,,green,0.37765025571826766,0.375,2.2915775000001304,0.9981052000002819,1e-05,1e-05,,0.37491289999888977,0.40818079999735346,1.9999485999978788,,2.2915775000001304,2.2915775000001304,2.4915511999970477,2.2915775000001304,0.0,3.90793759999724,1.6163600999971095,1.6163600999971095,0.25,0.10452700597570448,0.10452700597570448,,,,None,,-0.033,-0.03333333333333333,0.31132025571826766,0.30833333333333335,trial_list_0.8_red.csv,0.30809839999710675,0.3412657999979274,p10_high2_01,001,2023-05-04_16h11.34.292,expectation_shapes_perceived_time,2022.2.4,119.61937116439094,
,300,0.1999999999999999,unmet,,green,red,,678.9592354015655,,,,,0,19,19,319,trial,,,,,,green,0.6789592354015654,0.675,2.2918905000005907,0.9973075999987486,2e-05,2e-05,,0.6754981000012776,0.7086201000020083,2.0001147000002675,,2.2918905000005907,2.2918905000005907,2.4918976000008115,2.2918905000005907,0.0,4.391637400000036,2.0997468999994453,2.0997468999994453,0.45871,0.1465818527884104,0.01911937210283614,,,,None,,0.3,0.3,1.0122892354015656,1.0083333333333333,trial_list_0.8_red.csv,1.0088255000009667,1.042121300000872,p10_high2_01,001,2023-05-04_16h11.34.292,expectation_shapes_perceived_time,2022.2.4,119.61937116439094,
,-300,0.8,met,,red,green,,529.3001569512254,,,,,0,20,20,353,trial,,,,,,red,0.5293001569512255,0.525,2.2914329000013822,0.9983167999998841,1e-05,1e-05,,0.5251368999997794,0.5584187999993446,1.9998188999998092,,2.2914329000013822,2.2914329000013822,2.491442599999573,2.5747450000017125,0.28331210000033025,4.416928000002372,2.1254951000009896,1.8421830000006594,0.67097,0.12700875366848122,-0.07563442634190454,,,,None,,-0.3,-0.3,0.1959701569512254,0.19166666666666665,trial_list_0.8_red.csv,0.19179219999932684,0.22518420000051265,p10_high2_01,001,2023-05-04_16h11.34.292,expectation_shapes_perceived_time,2022.2.4,119.61937116439094,
,-167,0.8,met,,red,green,,333.43696986500606,,,,,0,21,21,366,trial,,,,,,red,0.33343696986500604,0.3333333333333333,2.2915996000010637,0.9972734000002674,1e-05,1e-05,0.03373,0.3330978999983927,0.3669464999984484,2.0001981999994314,2.0330871000005573,2.2915996000010637,2.2915996000010637,2.4918146999989403,2.54162659999929,0.25002699999822653,3.48341530000107,1.1918157000000065,0.9417887000017799,0.38256,0.13787544333873056,0.053311838090975824,,,,None,,-0.167,-0.16666666666666666,0.1331069698650061,0.13333333333333333,trial_list_0.8_red.csv,0.13381160000062664,0.16667109999980312,p10_high2_01,001,2023-05-04_16h11.34.292,expectation_shapes_perceived_time,2022.2.4,119.61937116439094,
,-233,0.8,met,,red,green,,1392.5501985989397,,,,,0,22,22,359,trial,,,,,,red,1.3925501985989397,1.3916666666666666,2.291628799997852,0.9976701000014145,2e-05,2e-05,,1.391829099997267,1.4250124999998661,2.000215499996557,,2.291628799997852,2.291628799997852,2.4918944999990345,2.291628799997852,0.0,4.92472209999687,2.633093299999018,2.633093299999018,1.0554,-0.02559828385748872,-0.14559023943946708,,,,None,,-0.233,-0.23333333333333334,1.1262201985989397,1.125,trial_list_0.8_red.csv,1.1250211999977182,1.1586069999975734,p10_high2_01,001,2023-05-04_16h11.34.292,expectation_shapes_perceived_time,2022.2.4,119.61937116439094,
,-233,0.8,met,,red,green,,917.9788727684912,,,,,0,23,23,289,trial,,,,,,red,0.9179788727684912,0.9166666666666666,2.29170349999913,0.9977753999992274,2e-05,2e-05,0.03363,0.9167336999998952,0.9500158000009833,2.000269100000878,2.033452200001193,2.29170349999913,2.29170349999913,2.4916296000010334,2.29170349999913,0.0,3.7915892000019085,1.4998857000027783,1.4998857000027783,0.66763,0.12779448631074344,-0.07429911994810665,,,,None,,-0.233,-0.23333333333333334,0.6516488727684911,0.65,trial_list_0.8_red.csv,0.6500713999994332,0.683339100000012,p10_high2_01,001,2023-05-04_16h11.34.292,expectation_shapes_perceived_time,2022.2.4,119.61937116439094,
,100,0.1999999999999999,unmet,,green,red,,643.5414401077587,,,,,0,24,24,169,trial,,,,,,green,0.6435414401077587,0.6416666666666666,2.2917489999999816,0.9977942000004987,1e-05,1e-05,0.03379,0.6418209999974351,0.6752300999978615,2.000086999996711,2.033368499996868,2.2917489999999816,2.2917489999999816,2.49189750000005,2.358450099996844,0.06670109999686247,3.7418869999964954,1.4501379999965138,1.3834368999996514,0.47055,0.1471912985429725,0.013656924607079924,,,,None,,0.1,0.1,0.7768714401077588,0.775,trial_list_0.8_red.csv,0.7753149999989546,0.8085242999986804,p10_high2_01,001,2023-05-04_16h11.34.292,expectation_shapes_perceived_time,2022.2.4,119.61937116439094,
,300,0.8,met,,red,green,,1421.0928515095648,0,0,0,0,0,25,25,132,fam,0.5324572999998054,0.5324572999998054,270.0000000000009,2.5239170999993803,2.5239170999993803,,,,,,,,,,,,,,,,,,,,,,,,,,,,,,,,,,,,p10_high2_01,001,2023-05-04_16h11.34.292,expectation_shapes_perceived_time,2022.2.4,119.61937116439094,
,300,0.8,met,,red,green,,1421.0928515095648,1,0,1,0,0,25,25,132,fam,0.49851480000143056,0.49851480000143056,270.0000000000009,2.4901800000006915,2.4901800000006915,,,,,,,,,,,,,,,,,,,,,,,,,,,,,,,,,,,,p10_high2_01,001,2023-05-04_16h11.34.292,expectation_shapes_perceived_time,2022.2.4,119.61937116439094,
,300,0.8,met,,red,green,,1421.0928515095648,2,0,2,0,0,25,25,132,fam,0.49790419999771984,0.49790419999771984,270.0000000000009,2.489790699997684,2.489790699997684,,,,,,,,,,,,,,,,,,,,,,,,,,,,,,,,,,,,p10_high2_01,001,2023-05-04_16h11.34.292,expectation_shapes_perceived_time,2022.2.4,119.61937116439094,
,300,0.8,met,,red,green,,1421.0928515095648,3,0,3,0,0,25,25,132,fam,0.49866970000221045,0.49866970000221045,270.0000000000009,2.4900266000004194,2.4900266000004194,,,,,,,,,,,,,,,,,,,,,,,,,,,,,,,,,,,,p10_high2_01,001,2023-05-04_16h11.34.292,expectation_shapes_perceived_time,2022.2.4,119.61937116439094,
,300,0.8,met,,red,green,,1421.0928515095648,,,,,0,25,25,132,trial,,,,,,red,1.4210928515095647,1.4166666666666667,2.2915159999975003,0.9991624000031152,5e-05,5e-05,,1.4168013999988034,1.4501662000002398,1.9997476999997161,,2.2915159999975003,2.2915159999975003,2.491607699997985,2.8000025000001187,0.5084865000026184,3.566652999998041,1.2751370000005409,0.7666504999979225,1.24777,-0.10379351006025113,-0.10525539048363494,,,,None,,0.3,0.3,1.7544228515095648,1.75,trial_list_0.8_red.csv,1.7499556000002485,1.7832698999991408,p10_high2_01,001,2023-05-04_16h11.34.292,expectation_shapes_perceived_time,2022.2.4,119.61937116439094,
,-233,0.8,met,,red,green,,1699.6243903903364,,,,,0,26,26,180,trial,,,,,,red,1.6996243903903365,1.6916666666666667,2.29211910000231,0.9970138000026054,3e-05,3e-05,0.03315,1.6917566000010993,1.7253929000034987,2.000585100002354,2.0334190000030503,2.29211910000231,2.29211910000231,2.492029300003196,2.858637600002112,0.5665184999998019,4.316751700000168,2.024632599997858,1.4581140999980562,1.65445,-0.13076010881581016,0.06894623919379081,,,,None,,-0.233,-0.23333333333333334,1.4332943903903366,1.425,trial_list_0.8_red.csv,1.425060100002156,1.4588782000028004,p10_high2_01,001,2023-05-04_16h11.34.292,expectation_shapes_perceived_time,2022.2.4,119.61937116439094,
,167,0.8,met,,red,green,,975.6441488778396,,,,,0,27,27,213,trial,,,,,,red,0.9756441488778396,0.975,2.2921625999988464,0.9982442999971681,1e-05,1e-05,0.03369,0.9754022000015539,1.0086789000015415,2.0001526000014564,2.033831500000815,2.2921625999988464,2.2921625999988464,2.4918886000014027,2.4335801000015636,0.14141750000271713,3.1089374000002863,0.8167748000014399,0.6753572999987227,0.91616,0.03848769845293552,-0.14272521509630254,,,,None,,0.167,0.16666666666666666,1.1759741488778395,1.175,trial_list_0.8_red.csv,1.1757545000000391,1.2088385000024573,p10_high2_01,001,2023-05-04_16h11.34.292,expectation_shapes_perceived_time,2022.2.4,119.61937116439094,
,233,0.1999999999999999,unmet,,green,red,,892.3445201661846,,,,,0,28,28,325,trial,,,,,,green,0.8923445201661846,0.8916666666666666,2.2921398999969824,0.9974380000021483,1e-05,1e-05,0.03298,0.8913419999989856,0.9247911999991629,2.0000000999971235,2.033315099997708,2.2921398999969824,2.2921398999969824,2.4919784999983676,2.6086517999974603,0.3165119000004779,4.324811899998167,2.0326720000011846,1.7161601000007067,0.93717,0.02899057536277949,-0.14495287681389746,,,,None,,0.233,0.23333333333333334,1.1586745201661846,1.1583333333333332,trial_list_0.8_red.csv,1.1584736999975576,1.1917938999977196,p10_high2_01,001,2023-05-04_16h11.34.292,expectation_shapes_perceived_time,2022.2.4,119.61937116439094,
,-233,0.8,met,,red,green,,857.2166214932591,,,,,0,29,29,372,trial,,,,,,red,0.8572166214932592,0.8583333333333333,2.2916666000019177,0.9969752999968478,1e-05,1e-05,0.03338,0.8580455000010261,0.891489300000103,1.9995961000022362,2.0330826999997953,2.2916666000019177,2.2916666000019177,2.4914919000002556,2.583303100000194,0.2916364999982761,3.9997383000008995,1.7080716999989818,1.4164352000007057,0.92543,0.034312586887527405,-0.14378607838582916,,,,None,,-0.233,-0.23333333333333334,0.5908866214932591,0.5916666666666667,trial_list_0.8_red.csv,0.5915064000000712,0.6250166999998328,p10_high2_01,001,2023-05-04_16h11.34.292,expectation_shapes_perceived_time,2022.2.4,119.61937116439094,
,100,0.1999999999999999,unmet,,green,red,,780.5651204291607,,,,,0,30,30,69,trial,,,,,,green,0.7805651204291607,0.775,2.2919992999995884,0.9974446999985958,2e-05,2e-05,0.0335,0.7751323000011325,0.808419099997991,2.0005266000007396,2.0338798000011593,2.2919992999995884,2.2919992999995884,2.492015399999218,2.2919992999995884,0.0,3.3335006999986945,1.041501399999106,1.041501399999106,1.16656,-0.07387072684333137,-0.12804259319510772,,,,None,,0.1,0.1,0.9138951204291608,0.9083333333333333,trial_list_0.8_red.csv,0.9089414999980363,0.9423010999998951,p10_high2_01,001,2023-05-04_16h11.34.292,expectation_shapes_perceived_time,2022.2.4,119.61937116439094,
,33,0.1999999999999999,unmet,,green,red,,1587.9471415521505,,,,,0,31,31,71,trial,,,,,,green,1.5879471415521504,1.5833333333333333,2.2915691000016523,0.9971361999996589,1e-05,1e-05,,1.5832435000011174,1.6166989000012109,2.0002983000013046,,2.2915691000016523,2.2915691000016523,2.491551099999924,2.4500890000017534,0.1585199000001012,3.7417110000023968,1.4501419000007445,1.2916220000006433,1.58075,-0.14309269865755464,0.03709810705936602,,,,None,,0.033,0.03333333333333333,1.6542771415521504,1.65,trial_list_0.8_red.csv,1.6498310000024503,1.6831535000019358,p10_high2_01,001,2023-05-04_16h11.34.292,expectation_shapes_perceived_time,2022.2.4,119.61937116439094,
,-233,0.8,met,,red,green,,1762.1108888369918,,,,,0,32,32,112,trial,,,,,,red,1.7621108888369919,1.7583333333333333,2.2923219999975117,0.9973222999979043,2e-05,2e-05,0.03368,1.7586060999965412,1.7919182999976329,2.000048499998229,2.0336655999999493,2.2923219999975117,2.2923219999975117,2.491902299996582,2.6504011999968498,0.358079199999338,4.3335436999987,2.041221700001188,1.6831425000018498,1.28474,-0.11529177342355354,-0.09251808978433308,,,,None,,-0.233,-0.23333333333333334,1.495780888836992,1.4916666666666667,trial_list_0.8_red.csv,1.491632599998411,1.5250000999985787,p10_high2_01,001,2023-05-04_16h11.34.292,expectation_shapes_perceived_time,2022.2.4,119.61937116439094,
,233,0.8,met,,red,green,,1308.34227271406,,,,,0,33,33,201,trial,,,,,,red,1.3083422727140601,1.3083333333333333,2.291624400000728,0.9978489000022819,1e-05,1e-05,0.03366,1.3084746000022278,1.3419228000020667,2.0000508000011905,2.033202300000994,2.291624400000728,2.291624400000728,2.49155520000204,2.450074799999129,0.15845039999840083,3.9837713000015356,1.6921469000008074,1.5336965000024065,1.34138,-0.12984651039634204,-0.0706517777156567,,,,None,,0.233,0.23333333333333334,1.57467227271406,1.5666666666666667,trial_list_0.8_red.csv,1.5667767000013555,1.5998800000015763,p10_high2_01,001,2023-05-04_16h11.34.292,expectation_shapes_perceived_time,2022.2.4,119.61937116439094,
,100,0.1999999999999999,unmet,,green,red,,1629.1381102011717,,,,,0,34,34,499,trial,,,,,,green,1.6291381102011717,1.625,2.291327700000693,0.9975429000005533,1e-05,1e-05,,1.6246092000001227,1.6580197000002954,1.999643000002834,,2.291327700000693,2.291327700000693,2.491617600000609,2.674444400003267,0.38311670000257436,4.149700600002689,1.8583729000019957,1.4752561999994214,1.52147,-0.14748722553005567,0.009965353076355111,,,,None,,0.1,0.1,1.7624681102011717,1.7583333333333333,trial_list_0.8_red.csv,1.757989700003236,1.7913504000025569,p10_high2_01,001,2023-05-04_16h11.34.292,expectation_shapes_perceived_time,2022.2.4,119.61937116439094,
,-33,0.8,met,,red,green,,1211.828196576804,,,,,0,35,35,224,trial,,,,,,red,1.211828196576804,1.2083333333333333,2.2911154000030365,0.9979510000011942,1e-05,1e-05,,1.2080242000010912,1.2413298999999824,1.9992533000004187,,2.2911154000030365,2.2911154000030365,2.4915388000008534,3.0327121000009356,0.7415966999978991,3.949672800001281,1.6585573999982444,0.9169607000003452,1.04413,-0.020428622434066714,-0.14640512744414474,,,,None,,-0.033,-0.03333333333333333,1.145498196576804,1.1416666666666666,trial_list_0.8_red.csv,1.1411314000033599,1.1745904000017617,p10_high2_01,001,2023-05-04_16h11.34.292,expectation_shapes_perceived_time,2022.2.4,119.61937116439094,
,-33,0.8,met,,red,green,,1575.3717685042295,,,,,0,36,36,464,trial,,,,,,red,1.5753717685042294,1.5666666666666667,2.291681200000312,0.9977934999988065,3e-05,3e-05,,1.566625199997361,1.599986799999897,1.9998262999979488,,2.291681200000312,2.291681200000312,2.4919197999988683,2.291681200000312,0.0,4.207830299998022,1.9161490999977104,1.9161490999977104,1.42727,-0.14398128482358716,-0.03348401972641562,,,,None,,-0.033,-0.03333333333333333,1.5090417685042297,1.5083333333333333,trial_list_0.8_red.csv,1.5082631999976002,1.5414936999986821,p10_high2_01,001,2023-05-04_16h11.34.292,expectation_shapes_perceived_time,2022.2.4,119.61937116439094,
,-33,0.8,met,,red,green,,1047.750298091763,,,,,0,37,37,375,trial,,,,,,red,1.047750298091763,1.0416666666666667,2.2911743000004208,0.9977997000023606,1e-05,1e-05,0.03302,1.0418374000000767,1.0747893000007025,1.9999301999996533,2.0331880999983696,2.2911743000004208,2.2911743000004208,2.4915904000008595,2.6497189000001526,0.35854459999973187,3.3497924000002968,1.058618099999876,0.7000735000001441,0.9028,0.044440948331447544,-0.14098507746528188,,,,None,,-0.033,-0.03333333333333333,0.9814202980917629,0.975,trial_list_0.8_red.csv,0.9748029000002134,1.0079225999979826,p10_high2_01,001,2023-05-04_16h11.34.292,expectation_shapes_perceived_time,2022.2.4,119.61937116439094,
,-300,0.1999999999999999,unmet,,green,red,,1698.3810241052213,,,,,0,38,38,178,trial,,,,,,green,1.6983810241052213,1.6916666666666667,2.291897200000676,0.9976244999998016,3e-05,3e-05,0.03363,1.6917491000021982,1.725047200001427,2.00041119999878,2.0334709999988263,2.291897200000676,2.291897200000676,2.491753800000879,2.291897200000676,0.0,5.275243000000046,2.9833457999993698,2.9833457999993698,1.65319,-0.1310321141667858,0.06842788184265483,,,,None,,-0.3,-0.3,1.3650510241052214,1.3583333333333334,trial_list_0.8_red.csv,1.3580923000008625,1.391507399999682,p10_high2_01,001,2023-05-04_16h11.34.292,expectation_shapes_perceived_time,2022.2.4,119.61937116439094,
,100,0.8,met,,red,green,,186.98403573994503,,,,,0,39,39,144,trial,,,,,,red,0.18698403573994501,0.18333333333333332,2.2914266000007046,0.997822699999233,3e-05,3e-05,0.03323,0.18282209999961196,0.21612979999918025,1.9995056000007025,2.033285199999227,2.2914266000007046,2.2914266000007046,2.4918135999978404,2.2914266000007046,0.0,4.008448299999145,1.7170216999984405,1.7170216999984405,0.25,0.1045270059757045,0.1045270059757045,,,,None,,0.1,0.1,0.32031403573994505,0.31666666666666665,trial_list_0.8_red.csv,0.3160993999990751,0.34992219999912777,p10_high2_01,001,2023-05-04_16h11.34.292,expectation_shapes_perceived_time,2022.2.4,119.61937116439094,
,-100,0.8,met,,red,green,,685.7494523634241,,,,,0,40,40,484,trial,,,,,,red,0.6857494523634241,0.6833333333333333,2.29123079999772,0.9972887999974773,1e-05,1e-05,,0.6831856999997399,0.716488300000492,1.9999083000002429,,2.29123079999772,2.29123079999772,2.491156799998862,2.29123079999772,0.0,3.925214999999298,1.6339842000015778,1.6339842000015778,0.57055,0.14420717558569404,-0.03249739168128317,,,,None,,-0.1,-0.1,0.552419452363424,0.55,trial_list_0.8_red.csv,0.5497775000003458,0.5829601999976148,p10_high2_01,001,2023-05-04_16h11.34.292,expectation_shapes_perceived_time,2022.2.4,119.61937116439094,
,-100,0.1999999999999999,unmet,,green,red,,416.8815631013277,,,,,0,41,41,153,trial,,,,,,green,0.4168815631013277,0.4166666666666667,2.291302999998152,0.9986489999973855,1e-05,1e-05,0.03282,0.41589419999945676,0.44956549999915296,1.9996961999968335,2.032929299999523,2.291302999998152,2.291302999998152,2.4912564999976894,2.649741199998971,0.35843820000081905,3.2916546999986167,1.000351700000465,0.6419134999996459,0.25,0.10452700597570448,0.10452700597570448,,,,None,,-0.1,-0.1,0.2835515631013277,0.2833333333333333,trial_list_0.8_red.csv,0.28252789999896777,0.31584409999777563,p10_high2_01,001,2023-05-04_16h11.34.292,expectation_shapes_perceived_time,2022.2.4,119.61937116439094,
,-300,0.8,met,,red,green,,1534.200831937789,,,,,0,42,42,24,trial,,,,,,red,1.534200831937789,1.5333333333333332,2.2916282000005594,0.9972558000008576,1e-05,1e-05,0.03369,1.5332262000010815,1.5668662000025506,2.000313600001391,2.033674100002827,2.2916282000005594,2.2916282000005594,2.4917579000029946,2.4837997000031464,0.19217150000258698,4.783655600000202,2.4920273999996425,2.2998558999970555,1.61471,-0.13832890302317952,0.05212393447250243,,,,None,,-0.3,-0.3,1.200870831937789,1.2,trial_list_0.8_red.csv,1.200378700003057,1.2332979000020714,p10_high2_01,001,2023-05-04_16h11.34.292,expectation_shapes_perceived_time,2022.2.4,119.61937116439094,
,167,0.8,met,,red,green,,755.3239744411585,,,,,0,43,43,68,trial,,,,,,red,0.7553239744411585,0.75,2.2915831999998773,0.9973575999974855,2e-05,2e-05,,0.7501981999994314,0.7834799999982351,2.0000333999996656,,2.2915831999998773,2.2915831999998773,2.4914909999970405,2.3583992999992915,0.06681609999941429,3.291455499998847,0.9998722999989695,0.9330561999995552,0.86102,0.06251241359548412,-0.13395517199032314,,,,None,,0.167,0.16666666666666666,0.9556539744411585,0.95,trial_list_0.8_red.csv,0.950138699998206,0.983510699999897,p10_high2_01,001,2023-05-04_16h11.34.292,expectation_shapes_perceived_time,2022.2.4,119.61937116439094,
,33,0.8,met,,red,green,,1030.25718503073,,,,,0,44,44,56,trial,,,,,,red,1.03025718503073,1.025,2.291655599998194,0.9982038999987708,1e-05,1e-05,0.03332,1.024271399997815,1.0576612999975623,1.999670999997761,2.0330699999976787,2.291655599998194,2.291655599998194,2.4913124999984575,2.8422074999980396,0.5505518999998458,5.041114699997706,2.7494590999995125,2.1989071999996668,1.08568,-0.03931055777681295,-0.14250077194094696,,,,None,,0.033,0.03333333333333333,1.0965871850307298,1.0916666666666666,trial_list_0.8_red.csv,1.0912461999978404,1.1247291999970912,p10_high2_01,001,2023-05-04_16h11.34.292,expectation_shapes_perceived_time,2022.2.4,119.61937116439094,
,-33,0.8,met,,red,green,,1429.2255212591838,,,,,0,45,45,115,trial,,,,,,red,1.4292255212591838,1.425,2.2918721999994887,0.9970235000000685,4e-05,4e-05,0.03335,1.4253869999993185,1.4585305000000517,2.000230499997997,2.033708499999193,2.2918721999994887,2.2918721999994887,2.491945099998702,2.2918721999994887,0.0,4.067362399997364,1.7754901999978756,1.7754901999978756,1.59033,-0.14191056910569105,0.041390582655826555,,,,None,,-0.033,-0.03333333333333333,1.3628955212591838,1.3583333333333334,trial_list_0.8_red.csv,1.3584371999968425,1.3920163999973738,p10_high2_01,001,2023-05-04_16h11.34.292,expectation_shapes_perceived_time,2022.2.4,119.61937116439094,
,-233,0.8,met,,red,green,,929.0371478645862,,,,,0,46,46,485,trial,,,,,,red,0.9290371478645862,0.9249999999999999,2.291944600001443,0.9970160999982909,4e-05,4e-05,,0.9253083000003244,0.9586448000009113,1.999913400002697,,2.291944600001443,2.291944600001443,2.491775599999528,2.808357600002637,0.5164130000011937,4.441875100001198,2.149930499999755,1.633517499998561,0.68122,0.12450751438471104,-0.07968480920621507,,,,None,,-0.233,-0.23333333333333334,0.6627071478645862,0.6583333333333333,trial_list_0.8_red.csv,0.6587679000003845,0.6920281000020623,p10_high2_01,001,2023-05-04_16h11.34.292,expectation_shapes_perceived_time,2022.2.4,119.61937116439094,
,-233,0.8,met,,red,green,,1353.1970179320358,,,,,0,47,47,371,trial,,,,,,red,1.3531970179320358,1.35,2.2913991999994323,0.9989925000008952,1e-05,1e-05,0.0336,1.3495522999983223,1.3829325000006065,1.9994561999992584,2.033071800000471,2.2913991999994323,2.2913991999994323,2.491817699999956,2.8663803999988886,0.5749811999994563,6.316548499999044,4.025149299999612,3.4501681000001554,1.50692,-0.14778859192006655,0.0032127954765231856,,,,None,,-0.233,-0.23333333333333334,1.0868670179320359,1.0833333333333333,trial_list_0.8_red.csv,1.0834896999986086,1.1165020000007644,p10_high2_01,001,2023-05-04_16h11.34.292,expectation_shapes_perceived_time,2022.2.4,119.61937116439094,
,300,0.8,met,,red,green,,894.8366275501699,,,,,0,48,48,54,trial,,,,,,red,0.8948366275501699,0.8916666666666666,2.291727899999387,0.9968828999990365,1e-05,1e-05,,0.8918310000008205,0.9250162999996974,1.999681799999962,,2.291727899999387,2.291727899999387,2.4916130999990855,2.6083269999980985,0.3165990999987116,3.5583316999982344,1.2666037999988475,0.9500047000001359,0.86151,0.062305618460785694,-0.13405148214290258,,,,None,,0.3,0.3,1.2281666275501697,1.225,trial_list_0.8_red.csv,1.2251181999999972,1.2584754999988945,p10_high2_01,001,2023-05-04_16h11.34.292,expectation_shapes_perceived_time,2022.2.4,119.61937116439094,
,33,0.1999999999999999,unmet,,green,red,,420.4281651776018,,,,,0,49,49,95,trial,,,,,,green,0.4204281651776018,0.4166666666666667,2.292069700000866,0.9976131999974314,1e-05,1e-05,0.0337,0.4170672000000195,0.45025109999915003,2.0001732999990054,2.0335109000006923,2.292069700000866,2.292069700000866,2.4913777000001573,2.4087629999994533,0.11669329999858746,4.766918000001169,2.4748483000003034,2.358155000001716,0.79353,0.08930093984893384,-0.11780123980072121,,,,None,,0.033,0.03333333333333333,0.4867581651776018,0.48333333333333334,trial_list_0.8_red.csv,0.48348279999845545,0.5167346999987785,p10_high2_01,001,2023-05-04_16h11.34.292,expectation_shapes_perceived_time,2022.2.4,119.61937116439094,
,-100,0.8,met,,red,green,,943.2137860836012,0,0,0,0,0,50,50,421,fam,0.5328014000006078,0.5328014000006078,270.0000000000009,2.5239235000008193,2.5239235000008193,,,,,,,,,,,,,,,,,,,,,,,,,,,,,,,,,,,,p10_high2_01,001,2023-05-04_16h11.34.292,expectation_shapes_perceived_time,2022.2.4,119.61937116439094,
,-100,0.8,met,,red,green,,943.2137860836012,1,0,1,0,0,50,50,421,fam,0.49843499999769847,0.49843499999769847,270.0000000000009,2.4898121999976865,2.4898121999976865,,,,,,,,,,,,,,,,,,,,,,,,,,,,,,,,,,,,p10_high2_01,001,2023-05-04_16h11.34.292,expectation_shapes_perceived_time,2022.2.4,119.61937116439094,
,-100,0.8,met,,red,green,,943.2137860836012,2,0,2,0,0,50,50,421,fam,0.4986886000006052,0.4986886000006052,270.0000000000009,2.4902130000009493,2.4902130000009493,,,,,,,,,,,,,,,,,,,,,,,,,,,,,,,,,,,,p10_high2_01,001,2023-05-04_16h11.34.292,expectation_shapes_perceived_time,2022.2.4,119.61937116439094,
,-100,0.8,met,,red,green,,943.2137860836012,3,0,3,0,0,50,50,421,fam,0.49508140000034473,0.49508140000034473,270.0000000000009,2.487005399998452,2.487005399998452,,,,,,,,,,,,,,,,,,,,,,,,,,,,,,,,,,,,p10_high2_01,001,2023-05-04_16h11.34.292,expectation_shapes_perceived_time,2022.2.4,119.61937116439094,
,-100,0.8,met,,red,green,,943.2137860836012,,,,,0,50,50,421,trial,,,,,,red,0.9432137860836012,0.9416666666666667,2.2912987999989127,0.9990068000006431,1e-05,1e-05,0.0333,0.9412053000014566,0.9745182000006025,1.999191900002188,2.0324814000014158,2.2912987999989127,2.2912987999989127,2.4911031000010553,2.3994850000017323,0.10818620000281953,4.074475800000073,1.7831770000011602,1.6749907999983407,1.05662,-0.02615570873224381,-0.14549112982310622,,,,None,,-0.1,-0.1,0.8098837860836012,0.8083333333333333,trial_list_0.8_red.csv,0.8081568000015977,0.8414123000002292,p10_high2_01,001,2023-05-04_16h11.34.292,expectation_shapes_perceived_time,2022.2.4,119.61937116439094,
,-300,0.8,met,,red,green,,490.3571157144173,,,,,0,51,51,28,trial,,,,,,red,0.4903571157144173,0.49166666666666664,2.291464099998848,0.9961809999986144,1e-05,1e-05,0.03277,0.49175409999952535,0.5244830000010552,1.9993840999995882,2.032701799998904,2.291464099998848,2.291464099998848,2.4912607000005664,2.291464099998848,0.0,3.191081299999496,0.8996172000006482,0.8996172000006482,0.7893,0.09085965754055768,-0.11660322717704903,,,,None,,-0.3,-0.3,0.15702711571441733,0.15833333333333333,trial_list_0.8_red.csv,0.15846139999848674,0.19176299999890034,p10_high2_01,001,2023-05-04_16h11.34.292,expectation_shapes_perceived_time,2022.2.4,119.61937116439094,
,-233,0.1999999999999999,unmet,,green,red,,1247.187415757788,,,,,0,52,52,3,trial,,,,,,green,1.2471874157577878,1.2416666666666667,2.291622099997767,0.9973354000030668,1e-05,1e-05,,1.2415607000002638,1.274948399997811,1.9999551000000793,,2.291622099997767,2.291622099997767,2.492054800000915,2.5677863999990223,0.27616430000125547,3.9084494999988237,1.616827400001057,1.3406630999998015,1.4935,-0.1477927353597515,-0.0030161782726479893,,,,None,,-0.233,-0.23333333333333334,0.9808574157577878,0.975,trial_list_0.8_red.csv,0.975050499997451,1.0083636999988812,p10_high2_01,001,2023-05-04_16h11.34.292,expectation_shapes_perceived_time,2022.2.4,119.61937116439094,
,33,0.1999999999999999,unmet,,green,red,,174.11045911708376,,,,,0,53,53,21,trial,,,,,,green,0.17411045911708375,0.175,2.2914846999992733,0.9981350000016391,1e-05,1e-05,0.03277,0.17442320000191103,0.2078298000014911,1.9994578000005276,2.0328038000006927,2.2914846999992733,2.2914846999992733,2.4914625999990676,2.299373199999536,0.007888500000262866,3.3660334999985935,1.0745487999993202,1.0666602999990573,0.57717,0.14350017495002076,-0.035489290579037394,,,,None,,0.033,0.03333333333333333,0.24044045911708378,0.24166666666666667,trial_list_0.8_red.csv,0.24121379999996861,0.27447620000020834,p10_high2_01,001,2023-05-04_16h11.34.292,expectation_shapes_perceived_time,2022.2.4,119.61937116439094,
,-233,0.8,met,,red,green,,1689.4219911573964,,,,,0,54,54,187,trial,,,,,,red,1.6894219911573964,1.6833333333333333,2.2916733999991266,0.9976289000005636,1e-05,1e-05,0.03327,1.683033900000737,1.7165635000019392,1.99932919999992,2.0332908000018506,2.2916733999991266,2.2916733999991266,2.491215199999715,2.358322899999621,0.0666495000004943,4.958278599999176,2.666605200000049,2.599955699999555,1.64911,-0.13189801181465408,0.0667435722435599,,,,None,,-0.233,-0.23333333333333334,1.4230919911573965,1.4166666666666667,trial_list_0.8_red.csv,1.416095700002188,1.4493475999988732,p10_high2_01,001,2023-05-04_16h11.34.292,expectation_shapes_perceived_time,2022.2.4,119.61937116439094,
,-100,0.8,met,,red,green,,1809.38993962632,,,,,0,55,55,126,trial,,,,,,red,1.80938993962632,1.8,2.2918213000011747,0.9974747999985993,1e-05,1e-05,0.03315,1.7995516999981191,1.8331527999980608,2.0001411999983247,2.033330300000671,2.2918213000011747,2.2918213000011747,2.4914079000009224,2.774551300000894,0.48272999999971944,4.016554499998165,1.7247331999969902,1.2420031999972707,1.68717,-0.12299659457712617,0.08199772971808414,,,,None,,-0.1,-0.1,1.67605993962632,1.6666666666666667,trial_list_0.8_red.csv,1.6665853000013158,1.6999550000000454,p10_high2_01,001,2023-05-04_16h11.34.292,expectation_shapes_perceived_time,2022.2.4,119.61937116439094,
,100,0.8,met,,red,green,,1334.123785420149,,,,,0,56,56,143,trial,,,,,,red,1.334123785420149,1.3333333333333333,2.2917473999987124,0.9977518999985477,1e-05,1e-05,,1.3335401999975147,1.3668433999991976,2.000171699997736,,2.2917473999987124,2.2917473999987124,2.4913999999989755,2.774540499998693,0.48279309999998077,3.4915254000006826,1.1997780000019702,0.7169849000019894,1.42311,-0.14353139649143629,-0.03536280783122343,,,,None,,0.1,0.1,1.467453785420149,1.4666666666666666,trial_list_0.8_red.csv,1.4665802999988955,1.4999033999993117,p10_high2_01,001,2023-05-04_16h11.34.292,expectation_shapes_perceived_time,2022.2.4,119.61937116439094,
,33,0.8,met,,red,green,,976.7211348814752,,,,,0,57,57,188,trial,,,,,,red,0.9767211348814753,0.975,2.291835299998638,0.99776650000058,1e-05,1e-05,,0.9749652999998943,1.0081710999984352,1.9996938000003865,,2.291835299998638,2.291835299998638,2.491081899999699,2.6332540000003064,0.3414187000016682,4.524485900001309,2.232650600002671,1.891231900001003,1.01038,-0.004817771078473002,-0.14774497973983874,,,,None,,0.033,0.03333333333333333,1.0430511348814753,1.0416666666666667,trial_list_0.8_red.csv,1.0417745000013383,1.0743734999996377,p10_high2_01,001,2023-05-04_16h11.34.292,expectation_shapes_perceived_time,2022.2.4,119.61937116439094,
,167,0.8,met,,red,green,,274.20771707491366,,,,,0,58,58,272,trial,,,,,,red,0.27420771707491365,0.275,2.2923915999999736,0.9978631999983918,1e-05,1e-05,0.03385,0.2753926000004867,0.3086793000002217,2.00034930000038,2.0334857999987435,2.2923915999999736,2.2923915999999736,2.491704899999604,2.375536600000487,0.08314500000051339,3.8255342000011296,1.533142600001156,1.4499976000006427,0.45671,0.1464585952314735,0.02004170250535953,,,,None,,0.167,0.16666666666666666,0.47453771707491366,0.475,trial_list_0.8_red.csv,0.475300199999765,0.5089388999986113,p10_high2_01,001,2023-05-04_16h11.34.292,expectation_shapes_perceived_time,2022.2.4,119.61937116439094,
,-233,0.8,met,,red,green,,1220.7071344256733,,,,,0,59,59,37,trial,,,,,,red,1.2207071344256732,1.2166666666666666,2.291423399998166,0.9977515999999014,1e-05,1e-05,,1.2163995999981125,1.2498554999983753,1.9997229000000516,,2.291423399998166,2.291423399998166,2.491649299998244,2.299862399999256,0.00843900000108988,4.99164749999909,2.7002241000009235,2.6917850999998336,1.13982,-0.06286517340001294,-0.13378998441541218,,,,None,,-0.233,-0.23333333333333334,0.9543771344256733,0.95,trial_list_0.8_red.csv,0.9500047000001359,0.983146200000192,p10_high2_01,001,2023-05-04_16h11.34.292,expectation_shapes_perceived_time,2022.2.4,119.61937116439094,
,-300,0.8,met,,red,green,,979.1756189764586,,,,,0,60,60,87,trial,,,,,,red,0.9791756189764587,0.975,2.29183059999923,0.9974059000014677,2e-05,2e-05,0.03352,0.974902199999633,1.0084064999973634,1.9997025999982725,2.033621399998083,2.29183059999923,2.29183059999923,2.491668499998923,2.4003883999976097,0.10855779999837978,3.258671499999764,0.966840900000534,0.8582831000021542,0.65615,0.13039146919152356,-0.06964089831820008,,,,None,,-0.3,-0.3,0.6458456189764585,0.6416666666666666,trial_list_0.8_red.csv,0.6418243999978586,0.6751731999975163,p10_high2_01,001,2023-05-04_16h11.34.292,expectation_shapes_perceived_time,2022.2.4,119.61937116439094,
,167,0.8,met,,red,green,,1356.1407489737628,,,,,0,61,61,413,trial,,,,,,red,1.356140748973763,1.35,2.2914844999977504,0.9971562999999151,2e-05,2e-05,,1.3497057999993558,1.3831723999974201,1.999813799997355,,2.2914844999977504,2.2914844999977504,2.4911504999981844,2.4578467999999702,0.16636230000221985,4.558274999999412,2.2667905000016617,2.100428199999442,1.5,-0.14782350948509485,0.0,,,,None,,0.167,0.16666666666666666,1.5564707489737628,1.55,trial_list_0.8_red.csv,1.5500391999994463,1.5830696999983047,p10_high2_01,001,2023-05-04_16h11.34.292,expectation_shapes_perceived_time,2022.2.4,119.61937116439094,
,-233,0.8,met,,red,green,,667.1162314789431,,,,,0,62,62,232,trial,,,,,,red,0.6671162314789431,0.6666666666666666,2.291850200002955,0.9972291999984009,2e-05,2e-05,,0.6668667000012647,0.7002216000000772,1.999706700000388,,2.291850200002955,2.291850200002955,2.4917057000020577,2.291850200002955,0.0,3.6833183000017016,1.3914680999987468,1.3914680999987468,0.52051,0.1475168213757151,-0.009517214282304199,,,,None,,-0.233,-0.23333333333333334,0.4007862314789431,0.4,trial_list_0.8_red.csv,0.4002473000000464,0.43378579999989597,p10_high2_01,001,2023-05-04_16h11.34.292,expectation_shapes_perceived_time,2022.2.4,119.61937116439094,
,-33,0.8,met,,red,green,,1726.311605937134,,,,,0,63,63,137,trial,,,,,,red,1.726311605937134,1.7249999999999999,2.2907846000016434,0.9972315999984858,1e-05,1e-05,0.03314,1.7243015999993077,1.7579278000011982,1.999247200001264,2.032816899998579,2.2907846000016434,2.2907846000016434,2.4909961000012117,2.75767850000193,0.4668939000002865,3.833133899999666,1.5423492999980226,1.075455399997736,1.76196,-0.10052640699378626,0.10838003254017581,,,,None,,-0.033,-0.03333333333333333,1.659981605937134,1.6583333333333332,trial_list_0.8_red.csv,1.6579583999991883,1.6908991999989667,p10_high2_01,001,2023-05-04_16h11.34.292,expectation_shapes_perceived_time,2022.2.4,119.61937116439094,
,167,0.1999999999999999,unmet,,green,red,,562.6350616446884,,,,,0,64,64,251,trial,,,,,,green,0.5626350616446885,0.5583333333333333,2.2920697999979893,0.9973024999999325,1e-05,1e-05,0.03295,0.5587159999995492,0.5916704000010213,2.0003596999995352,2.033626699998422,2.2920697999979893,2.2920697999979893,2.491427900000417,2.4247763999992458,0.13270660000125645,3.20853889999853,0.9164691000005405,0.783762499999284,0.83515,0.073180106076991,-0.1284385535228822,,,,None,,0.167,0.16666666666666666,0.7629650616446885,0.7583333333333333,trial_list_0.8_red.csv,0.7588394000013068,0.7917085999979463,p10_high2_01,001,2023-05-04_16h11.34.292,expectation_shapes_perceived_time,2022.2.4,119.61937116439094,
,-167,0.8,met,,red,green,,741.8278919251068,,,,,0,65,65,437,trial,,,,,,red,0.7418278919251068,0.7416666666666667,2.2917906000002404,0.9978271999971184,1e-05,1e-05,0.03374,0.7417472999986785,0.7753947999990487,2.000501099999383,2.033675899998343,2.2917906000002404,2.2917906000002404,2.4917569999997795,2.392146199999843,0.10035559999960242,3.358148399998754,1.0663577999985137,0.9660021999989112,0.64758,0.13221736635250278,-0.06610868317625139,,,,None,,-0.167,-0.16666666666666666,0.5414978919251068,0.5416666666666666,trial_list_0.8_red.csv,0.5420483999987482,0.5750765999982832,p10_high2_01,001,2023-05-04_16h11.34.292,expectation_shapes_perceived_time,2022.2.4,119.61937116439094,
,33,0.8,met,,red,green,,1584.0214018937145,,,,,0,66,66,286,trial,,,,,,red,1.5840214018937144,1.575,2.291583399997762,0.9908016000008502,2e-05,2e-05,0.03309,1.5745893999992404,1.6086649999997462,1.9997703999979421,2.033562799999345,2.291583399997762,2.291583399997762,2.491452499998559,2.4164958000001207,0.12491240000235848,4.016245099999651,1.7246617000018887,1.5997492999995302,1.6496,-0.1317963172641932,0.06694416115006638,,,,None,,0.033,0.03333333333333333,1.6503514018937144,1.6416666666666666,trial_list_0.8_red.csv,1.6416078999973251,1.6754059999984747,p10_high2_01,001,2023-05-04_16h11.34.292,expectation_shapes_perceived_time,2022.2.4,119.61937116439094,
,-233,0.1999999999999999,unmet,,green,red,,520.9198468686066,,,,,0,67,67,160,trial,,,,,,green,0.5209198468686066,0.5166666666666666,2.291626999998698,0.9991771000022709,1e-05,1e-05,,0.5166529000016453,0.5496951999994053,2.0000259000007645,,2.291626999998698,2.291626999998698,2.491375000001426,2.291626999998698,0.0,4.291111400001682,1.9994844000029843,1.9994844000029843,0.26145,0.10821698031423162,0.10070191223685443,,,,None,,-0.233,-0.23333333333333334,0.2545898468686066,0.25,trial_list_0.8_red.csv,0.24971949999962817,0.28331450000041514,p10_high2_01,001,2023-05-04_16h11.34.292,expectation_shapes_perceived_time,2022.2.4,119.61937116439094,
,-33,0.8,met,,red,green,,1665.4183466466864,,,,,0,68,68,420,trial,,,,,,red,1.6654183466466863,1.6583333333333332,2.2920083999997587,0.9983451000007335,1e-05,1e-05,0.03315,1.6584838999988278,1.6920571000009659,2.000094800001534,2.0337647999986075,2.2920083999997587,2.2920083999997587,2.4920936999988044,2.4003197999991244,0.10831139999936568,4.274998699998832,1.9829902999990736,1.874678899999708,1.75549,-0.10270955136620845,0.10631339527379471,,,,None,,-0.033,-0.03333333333333333,1.5990883466466865,1.5916666666666666,trial_list_0.8_red.csv,1.5919155000010505,1.6252037000012933,p10_high2_01,001,2023-05-04_16h11.34.292,expectation_shapes_perceived_time,2022.2.4,119.61937116439094,
,-100,0.8,met,,red,green,,1156.194444893129,,,,,0,69,69,344,trial,,,,,,red,1.156194444893129,1.15,2.2920859000005294,0.9986610999985714,2e-05,2e-05,0.0334,1.1499329000034777,1.1836017000023276,2.0001107000025513,2.033565700003237,2.2920859000005294,2.2920859000005294,2.4915970000001835,2.616969600003358,0.32488370000282885,5.008296600000904,2.7162107000003743,2.3913269999975455,1.2313,-0.09820859423082867,-0.11048466850968224,,,,None,,-0.1,-0.1,1.022864444893129,1.0166666666666666,trial_list_0.8_red.csv,1.0168853000031959,1.0504895000012766,p10_high2_01,001,2023-05-04_16h11.34.292,expectation_shapes_perceived_time,2022.2.4,119.61937116439094,
,-300,0.8,met,,red,green,,696.0501975124757,,,,,0,70,70,326,trial,,,,,,red,0.6960501975124758,0.6916666666666667,2.2913314000034006,0.9984831999972812,2e-05,2e-05,0.03341,0.6916330000021844,0.7252672000031453,2.000169200000528,2.0334898000000976,2.2913314000034006,2.2913314000034006,2.4914516000026197,2.391455600001791,0.1001241999983904,4.133493600002112,1.842162199998711,1.7420380000003206,0.93569,0.029661335625199254,-0.144817109228914,,,,None,,-0.3,-0.3,0.36272019751247575,0.35833333333333334,trial_list_0.8_red.csv,0.3582693000025756,0.3916618000002927,p10_high2_01,001,2023-05-04_16h11.34.292,expectation_shapes_perceived_time,2022.2.4,119.61937116439094,
,-233,0.8,met,,red,green,,1048.3207091932888,,,,,0,71,71,419,trial,,,,,,red,1.048320709193289,1.0416666666666667,2.2912998000028892,0.9970388000001549,1e-05,1e-05,,1.0415366000015638,1.0748839000007138,2.0000193000014406,,2.2912998000028892,2.2912998000028892,2.4915972000017064,2.5750256000028457,0.2837257999999565,4.11689380000098,1.825593999998091,1.5418681999981345,0.9256,0.034238959215167036,-0.14380362870370153,,,,None,,-0.233,-0.23333333333333334,0.7819907091932888,0.7833333333333333,trial_list_0.8_red.csv,0.7834376000027987,0.8166328000006615,p10_high2_01,001,2023-05-04_16h11.34.292,expectation_shapes_perceived_time,2022.2.4,119.61937116439094,
,33,0.8,met,,red,green,,154.17281636017253,,,,,0,72,72,448,trial,,,,,,red,0.15417281636017252,0.15,2.2910673999977007,0.9977401999967697,1e-05,1e-05,0.0331,0.14971379999769852,0.1831341999968572,1.9999295999987226,2.032740799997555,2.2910673999977007,2.2910673999977007,2.4912097999986145,2.2910673999977007,0.0,4.0330044999973325,1.7419370999996318,1.7419370999996318,0.35046,0.1318093111229806,0.06691857333935938,,,,None,,0.033,0.03333333333333333,0.22050281636017252,0.21666666666666667,trial_list_0.8_red.csv,0.21626349999860395,0.2502710999979172,p10_high2_01,001,2023-05-04_16h11.34.292,expectation_shapes_perceived_time,2022.2.4,119.61937116439094,
,33,0.8,met,,red,green,,616.7233137908011,,,,,0,73,73,161,trial,,,,,,red,0.616723313790801,0.6166666666666667,2.2915388999972492,0.9980523000012909,1e-05,1e-05,,0.6163755999987188,0.6500573999983317,1.9994985999983328,,2.2915388999972492,2.2915388999972492,2.4913906999972824,2.5164104999967094,0.22487159999946016,3.5830984999993234,1.2915596000020741,1.066688000002614,0.70141,0.11920561655370374,-0.08741745213938275,,,,None,,0.033,0.03333333333333333,0.6830533137908011,0.6833333333333333,trial_list_0.8_red.csv,0.6834351999968931,0.7167457999967155,p10_high2_01,001,2023-05-04_16h11.34.292,expectation_shapes_perceived_time,2022.2.4,119.61937116439094,
,33,0.1999999999999999,unmet,,green,red,,607.4854579705813,,,,,0,74,74,106,trial,,,,,,green,0.6074854579705813,0.6083333333333333,2.2918186000024434,0.9984184999993886,2e-05,2e-05,0.0332,0.6083132999992813,0.6414344000004348,1.9998219000008248,2.033080000001064,2.2918186000024434,2.2918186000024434,2.491357099999732,2.349995399999898,0.05817679999745451,4.69173310000042,2.3999144999979762,2.3417377000005217,0.43479,0.14473193946415414,0.030074169239304754,,,,None,,0.033,0.03333333333333333,0.6738154579705813,0.675,trial_list_0.8_red.csv,0.6749636000022292,0.7081768999996711,p10_high2_01,001,2023-05-04_16h11.34.292,expectation_shapes_perceived_time,2022.2.4,119.61937116439094,
,33,0.8,met,,red,green,,963.8609215056596,0,0,0,0,0,75,75,281,fam,0.531961600001523,0.531961600001523,270.0000000000009,2.523347099999228,2.523347099999228,,,,,,,,,,,,,,,,,,,,,,,,,,,,,,,,,,,,p10_high2_01,001,2023-05-04_16h11.34.292,expectation_shapes_perceived_time,2022.2.4,119.61937116439094,
,33,0.8,met,,red,green,,963.8609215056596,1,0,1,0,0,75,75,281,fam,0.49813710000307765,0.49813710000307765,270.0000000000009,2.490404000000126,2.490404000000126,,,,,,,,,,,,,,,,,,,,,,,,,,,,,,,,,,,,p10_high2_01,001,2023-05-04_16h11.34.292,expectation_shapes_perceived_time,2022.2.4,119.61937116439094,
,33,0.8,met,,red,green,,963.8609215056596,2,0,2,0,0,75,75,281,fam,0.4983068999972602,0.4983068999972602,270.0000000000009,2.490338299998257,2.490338299998257,,,,,,,,,,,,,,,,,,,,,,,,,,,,,,,,,,,,p10_high2_01,001,2023-05-04_16h11.34.292,expectation_shapes_perceived_time,2022.2.4,119.61937116439094,
,33,0.8,met,,red,green,,963.8609215056596,3,0,3,0,0,75,75,281,fam,0.4990922999968461,0.4990922999968461,270.0000000000009,2.490406899996742,2.490406899996742,,,,,,,,,,,,,,,,,,,,,,,,,,,,,,,,,,,,p10_high2_01,001,2023-05-04_16h11.34.292,expectation_shapes_perceived_time,2022.2.4,119.61937116439094,
,33,0.8,met,,red,green,,963.8609215056596,,,,,0,75,75,281,trial,,,,,,red,0.9638609215056596,0.9583333333333334,2.291592800000217,0.9990930000021763,1e-05,1e-05,0.03324,0.9581720999995014,0.991509200001019,1.9999175000011746,2.03328650000185,2.291592800000217,2.291592800000217,2.491622199999256,2.6416697000022396,0.35007690000202274,5.350002499999391,3.0584096999991743,2.7083327999971516,1.04682,-0.021663337392586086,-0.1462275273999561,,,,None,,0.033,0.03333333333333333,1.0301909215056597,1.025,trial_list_0.8_red.csv,1.0248223000016878,1.0582315999999992,p10_high2_01,001,2023-05-04_16h11.34.292,expectation_shapes_perceived_time,2022.2.4,119.61937116439094,
,-100,0.1999999999999999,unmet,,green,red,,1714.917276038752,,,,,0,76,76,119,trial,,,,,,green,1.714917276038752,1.7083333333333333,2.2918844999985595,0.9965144000016153,1e-05,1e-05,0.0335,1.709105300000374,1.7423957999999402,2.000078900000517,2.033827100000053,2.2918844999985595,2.2918844999985595,2.492038699998375,2.2918844999985595,0.0,3.9837081999976363,1.6918236999990768,1.6918236999990768,1.59087,-0.14184130096786235,0.04162733832752483,,,,None,,-0.1,-0.1,1.5815872760387522,1.575,trial_list_0.8_red.csv,1.5749929999983578,1.6089396999996097,p10_high2_01,001,2023-05-04_16h11.34.292,expectation_shapes_perceived_time,2022.2.4,119.61937116439094,
,100,0.8,met,,red,green,,330.24601485924273,,,,,0,77,77,250,trial,,,,,,red,0.3302460148592427,0.3333333333333333,2.291818100002274,0.9978139999984705,3e-05,3e-05,0.03332,0.3333154000029026,0.36666300000069896,2.0000178000009328,2.0333911000016087,2.291818100002274,2.291818100002274,2.4918936000030953,2.291818100002274,0.0,3.2498628000030294,0.9580447000007553,0.9580447000007553,0.55423,0.1456832076989889,-0.025063777668643254,,,,None,,0.1,0.1,0.4635760148592427,0.4583333333333333,trial_list_0.8_red.csv,0.45866360000218265,0.49162560000331723,p10_high2_01,001,2023-05-04_16h11.34.292,expectation_shapes_perceived_time,2022.2.4,119.61937116439094,
,300,0.1999999999999999,unmet,,green,red,,1086.884198123234,,,,,0,78,78,467,trial,,,,,,green,1.086884198123234,1.0833333333333333,2.2916936999972677,0.9973987999983365,2e-05,2e-05,0.03331,1.083797899998899,1.1171997999990708,1.999818199998117,2.033856099998957,2.2916936999972677,2.2916936999972677,2.492217199996958,2.3918842999992194,0.10019060000195168,5.574921100000211,3.283227400002943,3.183036800000991,1.18443,-0.08093746218026268,-0.12369687616228826,,,,None,,0.3,0.3,1.420214198123234,1.4166666666666667,trial_list_0.8_red.csv,1.4163749999970605,1.4499379999979283,p10_high2_01,001,2023-05-04_16h11.34.292,expectation_shapes_perceived_time,2022.2.4,119.61937116439094,
,-100,0.1999999999999999,unmet,,green,red,,1215.2186641336184,,,,,0,79,79,135,trial,,,,,,green,1.2152186641336185,1.2083333333333333,2.2919677999998385,0.9982316999994509,1e-05,1e-05,,1.2083816999984265,1.2419541999988724,1.9999626999997417,,2.2919677999998385,2.2919677999998385,2.4918373999971664,2.4832279999973252,0.19126019999748678,4.166543299998011,1.8745754999981727,1.683315300000686,1.48822,-0.14772222580791766,-0.005471193548441396,,,,None,,-0.1,-0.1,1.0818886641336185,1.075,trial_list_0.8_red.csv,1.0745864999989863,1.1081414999971457,p10_high2_01,001,2023-05-04_16h11.34.292,expectation_shapes_perceived_time,2022.2.4,119.61937116439094,
,167,0.8,met,,red,green,,511.6945158889708,,,,,0,80,80,129,trial,,,,,,red,0.5116945158889707,0.5083333333333333,2.291287000000011,0.9978716000005079,3e-05,3e-05,0.03326,0.5081492999997863,0.5417625999980373,1.9999647999975423,2.0332285999975284,2.291287000000011,2.291287000000011,2.491463599999406,2.766475000000355,0.4751880000003439,4.083152999999584,1.7918659999995725,1.3166779999992286,0.48674,0.14769535730713926,0.006153973221130802,,,,None,,0.167,0.16666666666666666,0.7120245158889708,0.7083333333333334,trial_list_0.8_red.csv,0.7081148999968718,0.7418365999983507,p10_high2_01,001,2023-05-04_16h11.34.292,expectation_shapes_perceived_time,2022.2.4,119.61937116439094,
,300,0.8,met,,red,green,,1222.592120873495,,,,,0,81,81,466,trial,,,,,,red,1.2225921208734951,1.2166666666666666,2.2916435999977693,0.997114399997372,1e-05,1e-05,,1.2165260999972816,1.249815099999978,1.9999029999999038,,2.2916435999977693,2.2916435999977693,2.491569999998319,2.4670553999967524,0.17541179999898304,4.983033499996964,2.6913898999991943,2.5159781000002113,1.41283,-0.1423154567854,-0.03997625190601124,,,,None,,0.3,0.3,1.555922120873495,1.55,trial_list_0.8_red.csv,1.5503261999983806,1.5831336999981431,p10_high2_01,001,2023-05-04_16h11.34.292,expectation_shapes_perceived_time,2022.2.4,119.61937116439094,
,100,0.8,met,,red,green,,1262.566615076557,,,,,0,82,82,77,trial,,,,,,red,1.2625666150765569,1.2583333333333333,2.2915823000003,0.9977257999998983,1e-05,1e-05,0.03278,1.2583440999987943,1.2915758999988611,1.999809799999639,2.0330701999992016,2.2915823000003,2.2915823000003,2.491151999998692,2.59939889999805,0.30781659999775,3.9416023999983736,1.6500200999980734,1.3422035000003234,1.54786,-0.14615539571683012,0.022144756926792443,,,,None,,0.1,0.1,1.3958966150765568,1.3916666666666666,trial_list_0.8_red.csv,1.39170440000089,1.424732600000425,p10_high2_01,001,2023-05-04_16h11.34.292,expectation_shapes_perceived_time,2022.2.4,119.61937116439094,
,233,0.8,met,,red,green,,1292.0998055107568,,,,,0,83,83,267,trial,,,,,,red,1.2920998055107569,1.2916666666666667,2.2918313999980455,0.9979822000022978,2e-05,2e-05,0.03362,1.291757700000744,1.3248750999991898,2.0001622999989195,2.033607299999858,2.2918313999980455,2.2918313999980455,2.4915688000000955,2.7164883999976155,0.42465699999956996,5.158830000000307,2.866998600002262,2.442341600002692,1.25979,-0.10769225502215703,-0.10126286666262525,,,,None,,0.233,0.23333333333333334,1.5584298055107568,1.55,trial_list_0.8_red.csv,1.5501874000001408,1.5834447999986878,p10_high2_01,001,2023-05-04_16h11.34.292,expectation_shapes_perceived_time,2022.2.4,119.61937116439094,
,-300,0.8,met,,red,green,,1346.5322015140084,,,,,0,84,84,330,trial,,,,,,red,1.3465322015140084,1.3416666666666666,2.291249899997638,0.9977840000028664,1e-05,1e-05,0.03328,1.3408682999979646,1.3741556999993918,1.9995939999971597,2.0328475999995135,2.291249899997638,2.291249899997638,2.491139800000383,3.0245418999984395,0.7332920000008016,5.774663500000315,3.4834136000026774,2.7501216000018758,0.90792,0.042167187472759785,-0.14168174990847288,,,,None,,-0.3,-0.3,1.0132022015140083,1.0083333333333333,trial_list_0.8_red.csv,1.0079747999989195,1.0413373999981559,p10_high2_01,001,2023-05-04_16h11.34.292,expectation_shapes_perceived_time,2022.2.4,119.61937116439094,
,233,0.1999999999999999,unmet,,green,red,,211.44718041686932,,,,,0,85,85,29,trial,,,,,,green,0.21144718041686933,0.20833333333333334,2.2917144000020926,0.9975693000014871,4e-05,4e-05,,0.20843800000147894,0.2416819000027317,2.000169200000528,,2.2917144000020926,2.2917144000020926,2.4920640000018466,2.2917144000020926,0.0,4.100422999999864,1.8087085999977717,1.8087085999977717,0.20422,0.08846564198631783,0.11842981104619969,,,,None,,0.233,0.23333333333333334,0.4777771804168693,0.475,trial_list_0.8_red.csv,0.4749790000023495,0.5084462000013446,p10_high2_01,001,2023-05-04_16h11.34.292,expectation_shapes_perceived_time,2022.2.4,119.61937116439094,
,167,0.1999999999999999,unmet,,green,red,,546.0990354247676,,,,,0,86,86,334,trial,,,,,,green,0.5460990354247677,0.5416666666666666,2.291861000001518,0.9972736999989138,4e-05,4e-05,,0.5420665000019653,0.5751468000016757,2.000248600001214,,2.291861000001518,2.291861000001518,2.491295200001332,2.525085000001127,0.23322399999960908,3.5838809000015317,1.2920199000000139,1.0587959000004048,0.48281,0.1476080232051059,0.00797881206514086,,,,None,,0.167,0.16666666666666666,0.7464290354247677,0.7416666666666667,trial_list_0.8_red.csv,0.741607700001623,0.7751013000015519,p10_high2_01,001,2023-05-04_16h11.34.292,expectation_shapes_perceived_time,2022.2.4,119.61937116439094,
,-33,0.8,met,,red,green,,1535.248353883842,,,,,0,87,87,384,trial,,,,,,red,1.535248353883842,1.5333333333333332,2.2920520000006945,0.9959349999990081,2e-05,2e-05,0.03325,1.5336222999976599,1.567102499997418,2.0002827999996953,2.033721100000548,2.2920520000006945,2.2920520000006945,2.4920825000008335,2.3501638999987335,0.05811189999803901,3.5671196000002965,1.275067599999602,1.216955700001563,1.71929,-0.11410943650656843,0.09397247712305637,,,,None,,-0.033,-0.03333333333333333,1.468918353883842,1.4666666666666666,trial_list_0.8_red.csv,1.4668363999990106,1.500233599999774,p10_high2_01,001,2023-05-04_16h11.34.292,expectation_shapes_perceived_time,2022.2.4,119.61937116439094,
,-300,0.8,met,,red,green,,911.6348713375244,,,,,0,88,88,128,trial,,,,,,red,0.9116348713375244,0.9083333333333333,2.2916717999978573,0.9970218999987992,2e-05,2e-05,,0.9081732999984524,0.9416559999990568,2.0000383999977203,,2.2916717999978573,2.2916717999978573,2.491546199998993,2.2916717999978573,0.0,3.7582641999979387,1.4665924000000814,1.4665924000000814,0.83599,0.0728397422541239,-0.1286318852572826,,,,None,,-0.3,-0.3,0.5783048713375243,0.575,trial_list_0.8_red.csv,0.574630299997807,0.6079394999978831,p10_high2_01,001,2023-05-04_16h11.34.292,expectation_shapes_perceived_time,2022.2.4,119.61937116439094,
,300,0.8,met,,red,green,,1026.2180421365,,,,,0,89,89,100,trial,,,,,,red,1.0262180421365,1.025,2.2914801000006264,0.9987403999984963,1e-05,1e-05,0.03354,1.0249743000022136,1.058367100002215,1.9998677000003227,2.0335164000025543,2.2914801000006264,2.2914801000006264,2.491416600001685,2.2914801000006264,0.0,4.300019800000882,2.008539700000256,2.008539700000256,0.91588,0.03861076854836858,-0.14269197072223172,,,,None,,0.3,0.3,1.3595480421364998,1.3583333333333334,trial_list_0.8_red.csv,1.3581811000003654,1.3913726000027964,p10_high2_01,001,2023-05-04_16h11.34.292,expectation_shapes_perceived_time,2022.2.4,119.61937116439094,
,-233,0.8,met,,red,green,,1309.6347418841096,,,,,0,90,90,2,trial,,,,,,red,1.3096347418841097,1.3083333333333333,2.291621500000474,0.9975525000008929,1e-05,1e-05,0.03357,1.3082955999998376,1.34178669999892,1.9997461000020849,2.0330098000013095,2.291621500000474,2.291621500000474,2.4915365999986534,2.6331744999988587,0.3415529999983846,3.716567600000417,1.4249460999999428,1.0833931000015582,0.62888,0.13587124406305215,-0.05823053316987949,,,,None,,-0.233,-0.23333333333333334,1.0433047418841097,1.0416666666666667,trial_list_0.8_red.csv,1.041833499999484,1.075143099998968,p10_high2_01,001,2023-05-04_16h11.34.292,expectation_shapes_perceived_time,2022.2.4,119.61937116439094,
,-300,0.8,met,,red,green,,1470.7470073332547,,,,,0,91,91,13,trial,,,,,,red,1.4707470073332547,1.4666666666666666,2.2910679999986314,0.9978419999970356,1e-05,1e-05,0.03301,1.4663920999992115,1.4999368999997387,2.000074299998232,2.0330205999998725,2.2910679999986314,2.2910679999986314,2.4916739000000234,2.5246714999993856,0.23360350000075414,3.3500034999997297,1.0589355000010983,0.8253320000003441,1.01539,-0.007144391726745391,-0.14765076235273808,,,,None,,-0.3,-0.3,1.1374170073332548,1.1333333333333333,trial_list_0.8_red.csv,1.1330941999985953,1.166311199998745,p10_high2_01,001,2023-05-04_16h11.34.292,expectation_shapes_perceived_time,2022.2.4,119.61937116439094,
,300,0.8,met,,red,green,,189.8030963670359,,,,,0,92,92,258,trial,,,,,,red,0.18980309636703588,0.19166666666666665,2.292098800000531,0.997121899999911,1e-05,1e-05,0.03349,0.19205449999935809,0.22532680000222172,2.00015379999968,2.0334399999992456,2.292098800000531,2.292098800000531,2.491775400001643,2.292098800000531,0.0,3.5835360000019136,1.2914372000013827,1.2914372000013827,0.48281,0.1476080232051059,0.00797881206514086,,,,None,,0.3,0.3,0.523133096367036,0.525,trial_list_0.8_red.csv,0.5252032999997027,0.5587205000010727,p10_high2_01,001,2023-05-04_16h11.34.292,expectation_shapes_perceived_time,2022.2.4,119.61937116439094,
,-100,0.8,met,,red,green,,517.2393194569406,,,,,0,93,93,194,trial,,,,,,red,0.5172393194569406,0.5166666666666666,2.291638499998953,0.9976077999999688,1e-05,1e-05,0.03334,0.516241400000581,0.5500728000006347,1.999825700000656,2.033359600001859,2.291638499998953,2.291638499998953,2.4917171000015514,2.4917171000015514,0.20007860000259825,3.6249367000018538,1.3332982000029006,1.1332196000003023,0.28374,0.11499799543069071,0.09288299630940403,,,,None,,-0.1,-0.1,0.3839093194569406,0.3833333333333333,trial_list_0.8_red.csv,0.3831742000002123,0.41688929999872926,p10_high2_01,001,2023-05-04_16h11.34.292,expectation_shapes_perceived_time,2022.2.4,119.61937116439094,
,-33,0.8,met,,red,green,,200.8185369063958,,,,,0,94,94,322,trial,,,,,,red,0.20081853690639578,0.2,2.291186300000845,0.9978317999994033,1e-05,1e-05,0.0331,0.19984610000028624,0.2331704999996873,1.9997519999997166,2.0329721000016434,2.291186300000845,2.291186300000845,2.492019400000572,2.299498299998959,0.008311999998113606,3.699861900000542,1.4086755999996967,1.400363600001583,0.1101,0.05011506330178976,0.1390693006624666,,,,None,,-0.033,-0.03333333333333333,0.13448853690639578,0.13333333333333333,trial_list_0.8_red.csv,0.13312779999978375,0.16670800000065356,p10_high2_01,001,2023-05-04_16h11.34.292,expectation_shapes_perceived_time,2022.2.4,119.61937116439094,
,300,0.8,met,,red,green,,990.6711127599922,,,,,0,95,95,254,trial,,,,,,red,0.9906711127599922,0.9916666666666667,2.2920731999984127,0.9975882000035199,1e-05,1e-05,0.03346,0.9921047999996517,1.0251589999970747,2.0003438999992795,2.0334813999979815,2.2920731999984127,2.2920731999984127,2.4915907999966294,2.2920731999984127,0.0,3.8422816999991483,1.5502085000007355,1.5502085000007355,0.87498,0.056578018473882066,-0.13656763079902567,,,,None,,0.3,0.3,1.3240011127599922,1.3166666666666667,trial_list_0.8_red.csv,1.3168608999985736,1.3499093999998877,p10_high2_01,001,2023-05-04_16h11.34.292,expectation_shapes_perceived_time,2022.2.4,119.61937116439094,
,33,0.8,met,,red,green,,686.103771022683,,,,,0,96,96,98,trial,,,,,,red,0.6861037710226829,0.6833333333333333,2.292051000000356,0.9980959999993502,2e-05,2e-05,0.03356,0.6835772999984329,0.7166981999980635,2.0003732000004675,2.033486599997559,2.292051000000356,2.292051000000356,2.4914471999982197,2.591421299999638,0.299370299999282,5.750361700000212,3.4583106999998563,3.1589404000005743,0.99678,0.0014930905940994741,-0.14781596881584796,,,,None,,0.033,0.03333333333333333,0.752433771022683,0.75,trial_list_0.8_red.csv,0.7499160000006668,0.7835285000001022,p10_high2_01,001,2023-05-04_16h11.34.292,expectation_shapes_perceived_time,2022.2.4,119.61937116439094,
,233,0.8,met,,red,green,,702.9118900164467,,,,,0,97,97,364,trial,,,,,,red,0.7029118900164467,0.7,2.2913474000015412,0.9977952000008372,1e-05,1e-05,0.03318,0.6998958000003768,0.7325533000002906,1.999859600000491,2.0329595000002882,2.2913474000015412,2.2913474000015412,2.4909494999992603,2.5659693000015977,0.2746219000000565,5.62469499999861,3.3333475999970688,3.0587256999970123,1.0095,-0.004410677407088028,-0.14775769313744896,,,,None,,0.233,0.23333333333333334,0.9692418900164468,0.9666666666666667,trial_list_0.8_red.csv,0.9659783999995852,0.9992946999991545,p10_high2_01,001,2023-05-04_16h11.34.292,expectation_shapes_perceived_time,2022.2.4,119.61937116439094,
,-300,0.8,met,,red,green,,1691.903883422442,,,,,0,98,98,165,trial,,,,,,red,1.691903883422442,1.6833333333333333,2.291969199999585,0.9974839000024076,2e-05,2e-05,,1.683530400001473,1.7165439000018523,1.9999922000024526,,2.291969199999585,2.291969199999585,2.491947500002425,2.491947500002425,0.19997830000284011,6.466895900000964,4.174926700001379,3.9749483999985387,1.45626,-0.14642981163034105,-0.020250931395685463,,,,None,,-0.3,-0.3,1.3585738834224421,1.3583333333333334,trial_list_0.8_red.csv,1.3584248000006482,1.3920584000006784,p10_high2_01,001,2023-05-04_16h11.34.292,expectation_shapes_perceived_time,2022.2.4,119.61937116439094,
,-300,0.1999999999999999,unmet,,green,red,,1772.8462711431575,,,,,0,99,99,111,trial,,,,,,green,1.7728462711431576,1.7666666666666666,2.291486800000712,0.9978914999992412,1e-05,1e-05,0.03343,1.766055399999459,1.7994187000003876,1.999552000001131,2.0330307000003813,2.291486800000712,2.291486800000712,2.491555500000686,2.5163385000014387,0.22485170000072685,4.908046199998353,2.616559399997641,2.391707699996914,1.50637,-0.14779395364965298,0.0029558790729930593,,,,None,,-0.3,-0.3,1.4395162711431575,1.4333333333333333,trial_list_0.8_red.csv,1.4330282000009902,1.466807400000107,p10_high2_01,001,2023-05-04_16h11.34.292,expectation_shapes_perceived_time,2022.2.4,119.61937116439094,
,-100,0.8,met,,red,green,,851.9672841803958,0,0,0,0,0,100,100,457,fam,0.5397640999981377,0.5397640999981377,270.0000000000009,2.5317668999996386,2.5317668999996386,,,,,,,,,,,,,,,,,,,,,,,,,,,,,,,,,,,,p10_high2_01,001,2023-05-04_16h11.34.292,expectation_shapes_perceived_time,2022.2.4,119.61937116439094,
,-100,0.8,met,,red,green,,851.9672841803958,1,0,1,0,0,100,100,457,fam,0.49883480000062264,0.49883480000062264,270.0000000000009,2.490538900001411,2.490538900001411,,,,,,,,,,,,,,,,,,,,,,,,,,,,,,,,,,,,p10_high2_01,001,2023-05-04_16h11.34.292,expectation_shapes_perceived_time,2022.2.4,119.61937116439094,
,-100,0.8,met,,red,green,,851.9672841803958,2,0,2,0,0,100,100,457,fam,0.4982471000002988,0.4982471000002988,270.0000000000009,2.4904276999986905,2.4904276999986905,,,,,,,,,,,,,,,,,,,,,,,,,,,,,,,,,,,,p10_high2_01,001,2023-05-04_16h11.34.292,expectation_shapes_perceived_time,2022.2.4,119.61937116439094,
,-100,0.8,met,,red,green,,851.9672841803958,3,0,3,0,0,100,100,457,fam,0.4985610999974597,0.4985610999974597,270.0000000000009,2.4903555999990203,2.4903555999990203,,,,,,,,,,,,,,,,,,,,,,,,,,,,,,,,,,,,p10_high2_01,001,2023-05-04_16h11.34.292,expectation_shapes_perceived_time,2022.2.4,119.61937116439094,
,-100,0.8,met,,red,green,,851.9672841803958,,,,,0,100,100,457,trial,,,,,,red,0.8519672841803958,0.85,2.2922159000008833,0.9910629000005429,2e-05,2e-05,0.03344,0.849898899999971,0.8840209000009054,2.000446900001407,2.0338821000004828,2.2922159000008833,2.2922159000008833,2.491950999999972,2.599994100000913,0.30777820000002976,4.199975700001232,1.907759800000349,1.5999816000003193,0.77151,0.09723138725021208,-0.11134562088330739,,,,None,,-0.1,-0.1,0.7186372841803957,0.7166666666666667,trial_list_0.8_red.csv,0.7168024999991758,0.7506518000009237,p10_high2_01,001,2023-05-04_16h11.34.292,expectation_shapes_perceived_time,2022.2.4,119.61937116439094,
,233,0.1999999999999999,unmet,,green,red,,612.2880549533513,,,,,0,101,101,333,trial,,,,,,green,0.6122880549533514,0.6083333333333333,2.2911911999981385,0.9973128000019642,1e-05,1e-05,0.03313,0.6081264999993437,0.6416412999969907,1.9995795999966504,2.033216399999219,2.2911911999981385,2.2911911999981385,2.4915782999996736,2.300255799997103,0.009064599998964695,4.591955299998517,2.3007641000003787,2.291699500001414,1.0,0.0,-0.14782350948509485,,,,None,,0.233,0.23333333333333334,0.8786180549533513,0.875,trial_list_0.8_red.csv,0.8747528999992937,0.9083006999971985,p10_high2_01,001,2023-05-04_16h11.34.292,expectation_shapes_perceived_time,2022.2.4,119.61937116439094,
,-233,0.8,met,,red,green,,962.2125503306236,,,,,0,102,102,369,trial,,,,,,red,0.9622125503306236,0.9583333333333334,2.291863900001772,0.9974763000027451,2e-05,2e-05,0.03324,0.9578113999996276,0.9918410000027507,1.9999819000004209,2.033241299999645,2.291863900001772,2.291863900001772,2.491369000003033,2.7498293000026024,0.4579654000008304,4.074726000002556,1.7828621000007843,1.3248966999999539,1.21944,-0.09402649567251056,-0.11406492917648822,,,,None,,-0.233,-0.23333333333333334,0.6958825503306235,0.6916666666666667,trial_list_0.8_red.csv,0.6916075000008277,0.7251987000017834,p10_high2_01,001,2023-05-04_16h11.34.292,expectation_shapes_perceived_time,2022.2.4,119.61937116439094,
,233,0.8,met,,red,green,,1255.9750145496762,,,,,0,103,103,191,trial,,,,,,red,1.2559750145496762,1.25,2.2914863000005425,0.9977834999990591,1e-05,1e-05,,1.2500820999994176,1.2835525999980746,2.0002161000011256,,2.2914863000005425,2.2914863000005425,2.4912145999987843,2.9662022999982582,0.6747159999977157,5.141751499999373,2.85026519999883,2.1755492000011145,1.18265,-0.08024252417655311,-0.12414881099013879,,,,None,,0.233,0.23333333333333334,1.5223050145496761,1.5166666666666666,trial_list_0.8_red.csv,1.5166061999989324,1.5497762000013608,p10_high2_01,001,2023-05-04_16h11.34.292,expectation_shapes_perceived_time,2022.2.4,119.61937116439094,
,-233,0.8,met,,red,green,,975.5006702397834,,,,,0,104,104,22,trial,,,,,,red,0.9755006702397834,0.975,2.291632499996922,0.9977518999985477,1e-05,1e-05,,0.975074300000415,1.0080873999977484,1.9995101999993494,,2.291632499996922,2.291632499996922,2.4910817999989376,2.6415691999973205,0.34993670000039856,3.4415791999999783,1.1499467000030563,0.8000100000026578,0.8056,0.08477121630133719,-0.12110173757333882,,,,None,,-0.233,-0.23333333333333334,0.7091706702397833,0.7083333333333334,trial_list_0.8_red.csv,0.7078702999970119,0.7418459999971674,p10_high2_01,001,2023-05-04_16h11.34.292,expectation_shapes_perceived_time,2022.2.4,119.61937116439094,
,33,0.8,met,,red,green,,729.7405314391589,,,,,0,105,105,139,trial,,,,,,red,0.7297405314391588,0.725,2.2922957000009774,0.9964645000000019,1e-05,1e-05,0.03393,0.725390100000368,0.7585768999997526,2.000332499999786,2.0336539999989327,2.2922957000009774,2.2922957000009774,2.4915928000009444,3.0002616999991005,0.7079659999981232,4.30043730000034,2.0081415999993624,1.3001756000012392,0.84079,0.07089125780737962,-0.12971591854116274,,,,None,,0.033,0.03333333333333333,0.796070531439159,0.7916666666666666,trial_list_0.8_red.csv,0.7920302999991691,0.8252874999998312,p10_high2_01,001,2023-05-04_16h11.34.292,expectation_shapes_perceived_time,2022.2.4,119.61937116439094,
,167,0.1999999999999999,unmet,,green,red,,1318.4634796549103,,,,,0,106,106,140,trial,,,,,,green,1.3184634796549104,1.3166666666666667,2.2909141999989515,0.9976958000006562,1e-05,1e-05,0.03287,1.3163743000004615,1.3496200000008685,1.9996915999981866,2.033004199998686,2.2909141999989515,2.2909141999989515,2.491119300000719,2.2909141999989515,0.0,5.008310400000482,2.717396200001531,2.717396200001531,1.7039,-0.11851688729920222,0.08834895235031438,,,,None,,0.167,0.16666666666666666,1.5187934796549103,1.5166666666666666,trial_list_0.8_red.csv,1.5162080000009155,1.5498890999988362,p10_high2_01,001,2023-05-04_16h11.34.292,expectation_shapes_perceived_time,2022.2.4,119.61937116439094,
,100,0.8,met,,red,green,,1726.3708232803606,,,,,0,107,107,205,trial,,,,,,red,1.7263708232803605,1.7249999999999999,2.291460399999778,0.996961699998792,2e-05,2e-05,,1.7249289999999746,1.7581367999991926,1.9997832000008202,,2.291460399999778,2.291460399999778,2.4912043000003905,2.6249977000006766,0.33353730000089854,4.66666830000031,2.3752079000005324,2.041670599999634,1.79739,-0.08786497265597755,0.11887613947573435,,,,None,,0.1,0.1,1.8597008232803605,1.8499999999999999,trial_list_0.8_red.csv,1.8499960000008286,1.8832653999998001,p10_high2_01,001,2023-05-04_16h11.34.292,expectation_shapes_perceived_time,2022.2.4,119.61937116439094,
,-233,0.8,met,,red,green,,1388.4089718343666,,,,,0,108,108,488,trial,,,,,,red,1.3884089718343666,1.3833333333333333,2.291697500000737,0.9983610999988741,1e-05,1e-05,0.03343,1.383540400001948,1.4164509000002,2.000007900001947,2.033311200000753,2.291697500000737,2.291697500000737,2.4914558000018587,2.5414592000015546,0.24976170000081765,5.332954600002267,3.0412571000015305,2.791495400000713,1.49691,-0.1478165430858127,-0.001435112068794298,,,,None,,-0.233,-0.23333333333333334,1.1220789718343667,1.1166666666666667,trial_list_0.8_red.csv,1.1167969000016456,1.1499987999995938,p10_high2_01,001,2023-05-04_16h11.34.292,expectation_shapes_perceived_time,2022.2.4,119.61937116439094,
,-33,0.8,met,,red,green,,805.9654137375111,,,,,0,109,109,470,trial,,,,,,red,0.8059654137375111,0.8,2.291815000000497,0.9976427999972657,3e-05,3e-05,,0.8001627999983612,0.8335043000006408,2.000088099997811,,2.291815000000497,2.291815000000497,2.491696299999603,2.3667629000010493,0.07494790000055218,3.1415506999983336,0.8497356999978365,0.7747877999972843,0.75243,0.10372606779837204,-0.10532185345680853,,,,None,,-0.033,-0.03333333333333333,0.7396354137375111,0.7333333333333333,trial_list_0.8_red.csv,0.7334735000004002,0.7666441000001214,p10_high2_01,001,2023-05-04_16h11.34.292,expectation_shapes_perceived_time,2022.2.4,119.61937116439094,
,300,0.8,met,,red,green,,206.18287031176516,,,,,0,110,110,461,trial,,,,,,red,0.20618287031176516,0.20833333333333334,2.2922446000011405,0.9976045000003069,1e-05,1e-05,0.03341,0.2081623000012769,0.24153479999949923,1.9999829000007594,2.0336014999993495,2.2922446000011405,2.2922446000011405,2.4923286000012013,2.2922446000011405,0.0,3.700443300000188,1.4081986999990477,1.4081986999990477,0.44519,0.1456374591834131,0.025328253771028365,,,,None,,0.3,0.3,0.5395128703117651,0.5416666666666666,trial_list_0.8_red.csv,0.5420613999995112,0.5751452000004065,p10_high2_01,001,2023-05-04_16h11.34.292,expectation_shapes_perceived_time,2022.2.4,119.61937116439094,
,-233,0.8,met,,red,green,,603.0600157872705,,,,,0,111,111,195,trial,,,,,,red,0.6030600157872704,0.6,2.292047900002217,0.9980552999986685,1e-05,1e-05,0.03354,0.6003356000001077,0.6338375000013912,2.000706499999069,2.0335114000008616,2.292047900002217,2.292047900002217,2.492251200001192,2.292047900002217,0.0,4.350553600001149,2.058505699998932,2.058505699998932,0.64468,0.13281556025273306,-0.06489851239622182,,,,None,,-0.233,-0.23333333333333334,0.33673001578727046,0.3333333333333333,trial_list_0.8_red.csv,0.33335839999926975,0.366681300001801,p10_high2_01,001,2023-05-04_16h11.34.292,expectation_shapes_perceived_time,2022.2.4,119.61937116439094,
,-300,0.8,met,,red,green,,1713.39779397526,,,,,0,112,112,120,trial,,,,,,red,1.7133977939752598,1.7083333333333333,2.292383500000142,0.9970897999992303,1e-05,1e-05,0.03349,1.709066499999608,1.7420008000008238,2.000403099998948,2.0339525999988837,2.292383500000142,2.292383500000142,2.4919827000012447,2.766860600000655,0.474477100000513,3.9502300999993167,1.657846599999175,1.183369499998662,0.85242,0.06610868317625139,-0.13221736635250278,,,,None,,-0.3,-0.3,1.38006779397526,1.375,trial_list_0.8_red.csv,1.375316000001476,1.4086430999996082,p10_high2_01,001,2023-05-04_16h11.34.292,expectation_shapes_perceived_time,2022.2.4,119.61937116439094,
,300,0.1999999999999999,unmet,,green,red,,741.0890232995196,,,,,0,113,113,298,trial,,,,,,green,0.7410890232995195,0.7416666666666667,2.2917065999972692,0.9976955000020098,1e-05,1e-05,0.03305,0.7418858999990334,0.7750578999985009,1.9999247999985528,2.033603399999265,2.2917065999972692,2.2917065999972692,2.491786599999614,2.5251086999996915,0.23340210000242223,4.316817499999161,2.0251109000018914,1.7917087999994692,0.88068,0.05412178024416183,-0.13755952478724467,,,,None,,0.3,0.3,1.0744190232995194,1.075,trial_list_0.8_red.csv,1.0754789999991772,1.1083437999986927,p10_high2_01,001,2023-05-04_16h11.34.292,expectation_shapes_perceived_time,2022.2.4,119.61937116439094,
,100,0.8,met,,red,green,,841.491653913312,,,,,0,114,114,265,trial,,,,,,red,0.841491653913312,0.8416666666666667,2.2920076999980665,0.9980046000018774,2e-05,2e-05,,0.8417936000005284,0.8752076999990095,2.000593000000663,,2.2920076999980665,2.2920076999980665,2.492075300000579,2.641971900000499,0.34996420000243234,3.816764499999408,1.5247568000013416,1.1747925999989093,1.00816,-0.003789101006385283,-0.14777493924902604,,,,None,,0.1,0.1,0.9748216539133121,0.975,trial_list_0.8_red.csv,0.9752482000003511,1.0086332999999286,p10_high2_01,001,2023-05-04_16h11.34.292,expectation_shapes_perceived_time,2022.2.4,119.61937116439094,
,-100,0.8,met,,red,green,,776.2510905650885,,,,,0,115,115,290,trial,,,,,,red,0.7762510905650885,0.775,2.292262599999958,0.9977379000010842,4e-05,4e-05,0.03331,0.7752886999987822,0.8085208000011335,2.0002717999996094,2.033708099999785,2.292262599999958,2.292262599999958,2.492151999998896,3.059057300000859,0.7667947000009008,4.258492000000842,1.9662294000008842,1.1994346999999834,0.97808,0.010170566642500215,-0.14747321631625313,,,,None,,-0.1,-0.1,0.6429210905650884,0.6416666666666666,trial_list_0.8_red.csv,0.6418206999987888,0.6753731999997399,p10_high2_01,001,2023-05-04_16h11.34.292,expectation_shapes_perceived_time,2022.2.4,119.61937116439094,
,-100,0.8,met,,red,green,,679.3578565733416,,,,,0,116,116,114,trial,,,,,,red,0.6793578565733416,0.675,2.291850500001601,0.9974808000006306,2e-05,2e-05,0.03363,0.6751340000009804,0.7084337000014784,2.000105600000097,2.033586199999263,2.291850500001601,2.291850500001601,2.4919886000025144,2.7506537000008393,0.45880319999923813,4.050579999999172,1.758729499997571,1.299926299998333,0.59579,0.1411809324867898,-0.043814772151072705,,,,None,,-0.1,-0.1,0.5460278565733415,0.5416666666666666,trial_list_0.8_red.csv,0.5419561000016984,0.575263000002451,p10_high2_01,001,2023-05-04_16h11.34.292,expectation_shapes_perceived_time,2022.2.4,119.61937116439094,
,300,0.8,met,,red,green,,680.624505293787,,,,,0,117,117,200,trial,,,,,,red,0.680624505293787,0.675,2.2917491999978665,0.9975070000000414,3e-05,3e-05,0.03348,0.6750938999975915,0.7080594999970344,2.00030649999826,2.033648799999355,2.2917491999978665,2.2917491999978665,2.4920172999991337,2.9086565999969025,0.616907399999036,4.3248542999972415,2.033105099999375,1.416197700000339,0.44743,0.1458122115556408,0.02430203525927347,,,,None,,0.3,0.3,1.013954505293787,1.0083333333333333,trial_list_0.8_red.csv,1.0082078999985242,1.0422039999975823,p10_high2_01,001,2023-05-04_16h11.34.292,expectation_shapes_perceived_time,2022.2.4,119.61937116439094,
,-100,0.8,met,,red,green,,1651.90900036867,,,,,0,118,118,261,trial,,,,,,red,1.6519090003686698,1.65,2.2919342999994115,0.99781190000067,2e-05,2e-05,,1.650045799997315,1.6834627999996883,2.0002863999980036,,2.2919342999994115,2.2919342999994115,2.4918330000000424,2.7918904999969527,0.49995619999754126,4.292012499998236,2.000078199998825,1.5001220000012836,1.39954,-0.14052183471417734,-0.04588468072299669,,,,None,,-0.1,-0.1,1.5185790003686699,1.5166666666666666,trial_list_0.8_red.csv,1.5169064999972761,1.550418399998307,p10_high2_01,001,2023-05-04_16h11.34.292,expectation_shapes_perceived_time,2022.2.4,119.61937116439094,
,-167,0.1999999999999999,unmet,,green,red,,864.8037846956439,,,,,0,119,119,141,trial,,,,,,green,0.8648037846956439,0.8583333333333333,2.2914544999985083,0.998489099998551,2e-05,2e-05,,0.8581578999983321,0.8914063999982318,2.000179200000275,,2.2914544999985083,2.2914544999985083,2.4916152999976475,2.56651409999904,0.27505960000053165,4.307994299997517,2.016539799999009,1.7414801999984775,0.56387,0.14485767649047226,-0.029462578269248595,,,,None,,-0.167,-0.16666666666666666,0.6644737846956439,0.6583333333333333,trial_list_0.8_red.csv,0.6580089999988559,0.6916194000004907,p10_high2_01,001,2023-05-04_16h11.34.292,expectation_shapes_perceived_time,2022.2.4,119.61937116439094,
,100,0.8,met,,red,green,,1277.7031749687494,,,,,0,120,120,453,trial,,,,,,red,1.2777031749687493,1.275,2.291390500002308,0.9986417000000074,1e-05,1e-05,,1.2753578000010748,1.3084453000010399,2.0003979000030085,,2.291390500002308,2.291390500002308,2.4917425000021467,2.608603700002277,0.3172131999999692,3.983190900002228,1.69180039999992,1.3745871999999508,0.79617,0.08832178594898965,-0.11853713377364403,,,,None,,0.1,0.1,1.4110331749687492,1.4083333333333332,trial_list_0.8_red.csv,1.4085790999997698,1.4419220000017958,p10_high2_01,001,2023-05-04_16h11.34.292,expectation_shapes_perceived_time,2022.2.4,119.61937116439094,
,100,0.8,met,,red,green,,1610.146322310149,,,,,0,121,121,287,trial,,,,,,red,1.6101463223101489,1.6083333333333334,2.291942600000766,0.9982158999991952,1e-05,1e-05,0.03344,1.6088412000026437,1.6420295000025362,2.0004174999994575,2.0335669000014605,2.291942600000766,2.291942600000766,2.492093400000158,2.466760200000863,0.17481760000009672,3.5335637999996834,1.2416211999989173,1.0668035999988206,1.59641,-0.14109458008639433,0.044092056276998234,,,,None,,0.1,0.1,1.7434763223101488,1.7416666666666667,trial_list_0.8_red.csv,1.741467300002114,1.7754616000020178,p10_high2_01,001,2023-05-04_16h11.34.292,expectation_shapes_perceived_time,2022.2.4,119.61937116439094,
,167,0.8,met,,red,green,,729.9189926205455,,,,,0,122,122,193,trial,,,,,,red,0.7299189926205455,0.725,2.2919470999986515,0.9976007999975991,2e-05,2e-05,0.03346,0.725026700001763,0.7584467999986373,2.0001781999999366,2.033415800000512,2.2919470999986515,2.2919470999986515,2.491775599999528,2.4416965000018536,0.14974940000320203,3.258363900000404,0.9664168000017526,0.8166673999985505,0.4256,0.14380362870370153,0.034238959215167036,,,,None,,0.167,0.16666666666666666,0.9302489926205455,0.9249999999999999,trial_list_0.8_red.csv,0.9250104000020656,0.9586153000018385,p10_high2_01,001,2023-05-04_16h11.34.292,expectation_shapes_perceived_time,2022.2.4,119.61937116439094,
