id,delay,expectation,congruency,trial_num,stim_color,distractor_color,block,targetTimeMs,famLoop.thisRepN,famLoop.thisTrialN,famLoop.thisN,famLoop.thisIndex,trialss.thisRepN,trialss.thisTrialN,trialss.thisN,trialss.thisIndex,isTrial,handMove.started,audioCue2Start.started,handOri,handMove.ended,audioCue2End.started,target_color,expected_target_onset,expected_target_onset_in_frames,fixationPoint.started,fixationPoint.stopped,audCueStart.started,placeholder.started,audCueStart.stopped,target.started,target.stopped,audCueEnd.started,audCueEnd.stopped,responsePointer.started,cueForRep.started,space2pass.started,responseStarted,rtUntillMotionTreshold,responsePointer.stopped,rTAfterMotionTreshold,rtDurationBtwRespMotion,perceivedTime,resp_x_coord,resp_y_coord,feedbackPointer.stopped,actualTime_x_coord,actualTime_y_coord,space2pass.keys,space2pass.rt,expected_delay,expected_delays_frame,expected_distractor,expected_distractor_frame,expBlockFiles,distractor.started,distractor.stopped,participant,session,date,expName,psychopyVersion,frameRate,
,,,,,,,,,0,0,0,0,,,,,fam,1.3393106000003172,1.3393106000003172,270.0,3.339867000000595,3.339867000000595,,,,,,,,,,,,,,,,,,,,,,,,,,,,,,,,,,,,p10_bas1_01,001,2023-05-04_14h43.20.631,expectation_shapes_perceived_time,2022.2.4,119.99414428657029,
,,,,,,,,,1,0,1,0,,,,,fam,0.49724459999924875,0.49724459999924875,270.0,2.4972056999995402,2.4972056999995402,,,,,,,,,,,,,,,,,,,,,,,,,,,,,,,,,,,,p10_bas1_01,001,2023-05-04_14h43.20.631,expectation_shapes_perceived_time,2022.2.4,119.99414428657029,
,,,,,,,,,2,0,2,0,,,,,fam,0.4991002999995544,0.4991002999995544,270.0,2.4988647999998648,2.4988647999998648,,,,,,,,,,,,,,,,,,,,,,,,,,,,,,,,,,,,p10_bas1_01,001,2023-05-04_14h43.20.631,expectation_shapes_perceived_time,2022.2.4,119.99414428657029,
,,,,,,,,,3,0,3,0,,,,,fam,0.49775059999956284,0.49775059999956284,270.0,2.4975740000008955,2.4975740000008955,,,,,,,,,,,,,,,,,,,,,,,,,,,,,,,,,,,,p10_bas1_01,001,2023-05-04_14h43.20.631,expectation_shapes_perceived_time,2022.2.4,119.99414428657029,
,,,,,,,,,4,0,4,0,,,,,fam,0.4976908000007825,0.4976908000007825,270.0,2.498113800000283,2.498113800000283,,,,,,,,,,,,,,,,,,,,,,,,,,,,,,,,,,,,p10_bas1_01,001,2023-05-04_14h43.20.631,expectation_shapes_perceived_time,2022.2.4,119.99414428657029,
,,,,,,,,,5,0,5,0,,,,,fam,0.4972271999995428,0.4972271999995428,270.0,2.497219299999415,2.497219299999415,,,,,,,,,,,,,,,,,,,,,,,,,,,,,,,,,,,,p10_bas1_01,001,2023-05-04_14h43.20.631,expectation_shapes_perceived_time,2022.2.4,119.99414428657029,
,,,,,,,,,6,0,6,0,,,,,fam,0.4975070999989839,0.4975070999989839,270.0,2.4972402999992482,2.4972402999992482,,,,,,,,,,,,,,,,,,,,,,,,,,,,,,,,,,,,p10_bas1_01,001,2023-05-04_14h43.20.631,expectation_shapes_perceived_time,2022.2.4,119.99414428657029,
,,,,,,,,,7,0,7,0,,,,,fam,0.4972060000000056,0.4972060000000056,270.0,2.497354399998585,2.497354399998585,,,,,,,,,,,,,,,,,,,,,,,,,,,,,,,,,,,,p10_bas1_01,001,2023-05-04_14h43.20.631,expectation_shapes_perceived_time,2022.2.4,119.99414428657029,
,,,,,,,,,8,0,8,0,,,,,fam,0.497401999999056,0.497401999999056,270.0,2.497413499999311,2.497413499999311,,,,,,,,,,,,,,,,,,,,,,,,,,,,,,,,,,,,p10_bas1_01,001,2023-05-04_14h43.20.631,expectation_shapes_perceived_time,2022.2.4,119.99414428657029,
,,,,,,,,,9,0,9,0,,,,,fam,0.498079000000871,0.498079000000871,270.0,2.4979693999994197,2.4979693999994197,,,,,,,,,,,,,,,,,,,,,,,,,,,,,,,,,,,,p10_bas1_01,001,2023-05-04_14h43.20.631,expectation_shapes_perceived_time,2022.2.4,119.99414428657029,
,,,,,,,,,10,0,10,0,,,,,fam,0.4975428000016109,0.4975428000016109,270.0,2.4975154000003386,2.4975154000003386,,,,,,,,,,,,,,,,,,,,,,,,,,,,,,,,,,,,p10_bas1_01,001,2023-05-04_14h43.20.631,expectation_shapes_perceived_time,2022.2.4,119.99414428657029,
,,,,,,,,,11,0,11,0,,,,,fam,0.4975436000004265,0.4975436000004265,270.0,2.4971724999995786,2.4971724999995786,,,,,,,,,,,,,,,,,,,,,,,,,,,,,,,,,,,,p10_bas1_01,001,2023-05-04_14h43.20.631,expectation_shapes_perceived_time,2022.2.4,119.99414428657029,
,,,,,,,,,12,0,12,0,,,,,fam,0.49775339999905555,0.49775339999905555,270.0,2.497942599999078,2.497942599999078,,,,,,,,,,,,,,,,,,,,,,,,,,,,,,,,,,,,p10_bas1_01,001,2023-05-04_14h43.20.631,expectation_shapes_perceived_time,2022.2.4,119.99414428657029,
,,,,,,,,,13,0,13,0,,,,,fam,0.4975703000000067,0.4975703000000067,270.0,2.497483500001181,2.497483500001181,,,,,,,,,,,,,,,,,,,,,,,,,,,,,,,,,,,,p10_bas1_01,001,2023-05-04_14h43.20.631,expectation_shapes_perceived_time,2022.2.4,119.99414428657029,
,,,,,,,,,14,0,14,0,,,,,fam,0.49893100000008417,0.49893100000008417,270.0,2.498617999999624,2.498617999999624,,,,,,,,,,,,,,,,,,,,,,,,,,,,,,,,,,,,p10_bas1_01,001,2023-05-04_14h43.20.631,expectation_shapes_perceived_time,2022.2.4,119.99414428657029,
,,,,,,,,,15,0,15,0,,,,,fam,0.4989731000005122,0.4989731000005122,270.0,2.498741199999131,2.498741199999131,,,,,,,,,,,,,,,,,,,,,,,,,,,,,,,,,,,,p10_bas1_01,001,2023-05-04_14h43.20.631,expectation_shapes_perceived_time,2022.2.4,119.99414428657029,
,,,,,,,,,16,0,16,0,,,,,fam,0.49859490000017104,0.49859490000017104,270.0,2.498549700001604,2.498549700001604,,,,,,,,,,,,,,,,,,,,,,,,,,,,,,,,,,,,p10_bas1_01,001,2023-05-04_14h43.20.631,expectation_shapes_perceived_time,2022.2.4,119.99414428657029,
,,,,,,,,,17,0,17,0,,,,,fam,0.49910819999968226,0.49910819999968226,270.0,2.4992653999997856,2.4992653999997856,,,,,,,,,,,,,,,,,,,,,,,,,,,,,,,,,,,,p10_bas1_01,001,2023-05-04_14h43.20.631,expectation_shapes_perceived_time,2022.2.4,119.99414428657029,
,,,,,,,,,18,0,18,0,,,,,fam,0.4979144000008091,0.4979144000008091,270.0,2.497608499999842,2.497608499999842,,,,,,,,,,,,,,,,,,,,,,,,,,,,,,,,,,,,p10_bas1_01,001,2023-05-04_14h43.20.631,expectation_shapes_perceived_time,2022.2.4,119.99414428657029,
,,,,,,,,,19,0,19,0,,,,,fam,0.49697550000018964,0.49697550000018964,270.0,2.4969872000001487,2.4969872000001487,,,,,,,,,,,,,,,,,,,,,,,,,,,,,,,,,,,,p10_bas1_01,001,2023-05-04_14h43.20.631,expectation_shapes_perceived_time,2022.2.4,119.99414428657029,
,,,,,,,,,,,,,0,0,0,0,test,,,,,,red,1.8090008396778106,1.7933884297520661,2.2999569999992673,0.99835929999972,3.159999869239982e-05,3e-05,0.03329859999939799,1.8082168999990245,1.8415346000001591,1.9999021999992692,2.0333539999992354,2.2999569999992673,2.2999569999992673,2.5999769999998534,4.250270900000032,1.950313900000765,47.1085922000002,44.808635200000936,42.85832130000017,1.81013,-0.08304002778868283,0.12229531365242377,47.1085922000002,-0.08347250230306866,0.12200053817813312,space,44.50405370000044,,,,,,,,p10_bas1_01,001,2023-05-04_14h43.20.631,expectation_shapes_perceived_time,2022.2.4,119.99414428657029,
,,,,,,,,,,,,,1,0,1,0,test,,,,,,red,0.5159711735537097,0.5123966942148761,2.299676399999953,0.9962806999992608,3.2300000384566374e-05,3e-05,0.0335177000015392,0.5168907000006584,0.5504753000004712,2.0001695999999356,2.033557300001121,2.299676399999953,2.299676399999953,2.6003944000003685,3.2833128000002034,0.9836364000002504,12.53327580000041,10.233599400000458,9.249963000000207,1.53374,-0.14699405893920564,0.015637665844596346,12.53327580000041,0.1476374739951409,-0.007413921285259087,space,9.931326300000364,,,,,,,,p10_bas1_01,001,2023-05-04_14h43.20.631,expectation_shapes_perceived_time,2022.2.4,119.99414428657029,
,,,,,,,,,,,,,2,0,2,0,test,,,,,,green,0.8036670674209019,0.7933884297520661,2.300039099998685,0.9987761000011233,3.199999991920777e-05,3e-05,,0.7999583999990136,0.8332183999991685,2.0000645000000077,,2.300039099998685,2.300039099998685,2.5999179999998887,2.924833699998999,0.624794600000314,7.091767599999002,4.791728500000318,4.166933900000004,0.95088,0.02272150910103363,-0.14606684422093047,7.091767599999002,0.08550499500499907,-0.12058476597682236,space,4.485951700000442,,,,,,,,p10_bas1_01,001,2023-05-04_14h43.20.631,expectation_shapes_perceived_time,2022.2.4,119.99414428657029,
,,,,,,,,,,,,,3,0,3,0,test,,,,,,green,0.8094140250491833,0.8016528925619835,2.2997950999997556,0.9971018000014737,4.030000127386302e-05,4e-05,,0.8078887000010582,0.8410860000003595,2.000307899999825,,2.2997950999997556,2.2997950999997556,2.6000834999995277,2.849879700001111,0.5500846000013553,7.608201799999733,5.308406699999978,4.758322099998622,0.28011,0.11393383443809028,0.09418530313548798,7.608201799999733,0.08331406798951856,-0.12210878769166371,space,5.002481099998477,,,,,,,,p10_bas1_01,001,2023-05-04_14h43.20.631,expectation_shapes_perceived_time,2022.2.4,119.99414428657029,
,,,,,,,,,,,,,4,0,4,0,test,,,,,,red,1.0208491479959327,1.0082644628099173,2.2992070999989664,0.9974352000008366,4.020000051241368e-05,4e-05,,1.0163186999998288,1.0497501999998349,1.9995873999996547,2.032616099999359,2.2992070999989664,2.2992070999989664,2.599688000000242,2.9831354999987525,0.683928399999786,8.08327300000019,5.784065900001224,5.100137500001438,1.05423,-0.025063777668643254,-0.1456832076989889,8.08327300000019,-0.009675448706458329,-0.14750652747868012,space,5.482942299999195,,,,,,,,p10_bas1_01,001,2023-05-04_14h43.20.631,expectation_shapes_perceived_time,2022.2.4,119.99414428657029,
,,,,,,,,,,,,,5,0,5,0,test,,,,,,green,0.6676687943778615,0.6611570247933884,2.2999964999999065,0.9967493000003742,3.9799999285605736e-05,4e-05,0.03330180000011751,0.6665219999995315,0.6999878000005992,1.9997798999993392,2.033271099999183,2.2999964999999065,2.2999964999999065,2.599860300000728,2.7165151000008336,0.4165186000009271,6.10786089999965,3.807864399999744,3.391345799998817,0.52096,0.14750323670022897,-0.009725488134081032,6.10786089999965,0.12778558575476434,-0.07431442679454438,space,3.5029221000004327,,,,,,,,p10_bas1_01,001,2023-05-04_14h43.20.631,expectation_shapes_perceived_time,2022.2.4,119.99414428657029,
,,,,,,,,,,,,,6,0,6,0,test,,,,,,red,0.8815582976138138,0.8760330578512396,2.300271000000066,0.9981645999996545,3.199999991920777e-05,3e-05,,0.8830711000009615,0.9164030000010825,2.000092100000984,,2.300271000000066,2.300271000000066,2.600152099999832,2.7586375000009866,0.4583665000009205,7.483416500001113,5.1831455000010465,4.724779000000126,0.52029,0.14752329218652271,-0.009416380352331239,7.483416500001113,0.0537439575674921,-0.13770757779248582,space,4.875553500000024,,,,,,,,p10_bas1_01,001,2023-05-04_14h43.20.631,expectation_shapes_perceived_time,2022.2.4,119.99414428657029,
,,,,,,,,,,,,,7,0,7,0,test,,,,,,red,0.17320630659076022,0.17355371900826447,2.2999418000017613,0.9973246000008658,3.910000123141799e-05,4e-05,0.03326350000133971,0.17497370000091905,0.2084383000001253,1.9998721000010846,2.0335720000002766,2.2999418000017613,2.2999418000017613,2.5994030000001658,2.4329571000016585,0.13301529999989725,9.158175200000187,6.858233399998426,6.7252180999985285,0.12591,0.05696161581101515,0.13640807996848367,9.158175200000187,0.0765261053208018,0.1264734958832066,space,6.553210099998978,,,,,,,,p10_bas1_01,001,2023-05-04_14h43.20.631,expectation_shapes_perceived_time,2022.2.4,119.99414428657029,
,,,,,,,,,,,,,8,0,8,0,test,,,,,,green,0.9861187411251456,0.975206611570248,2.2996961000008014,0.997048299999733,3.990000004705507e-05,4e-05,0.0333145999993576,0.9834539000003133,1.0167521000003035,2.000042800000301,2.033570999999938,2.2996961000008014,2.2996961000008014,2.5999226000003546,2.824943200001144,0.5252471000003425,6.108122900001035,3.808426800000234,3.2831796999998915,0.84502,0.06916480487732228,-0.1306446314349421,6.108122900001035,0.006444430904535868,-0.14768296877706172,space,3.505695599998944,,,,,,,,p10_bas1_01,001,2023-05-04_14h43.20.631,expectation_shapes_perceived_time,2022.2.4,119.99414428657029,
,,,,,,,,,,,,,9,0,9,0,test,,,,,,red,0.46511953161680253,0.4628099173553719,2.3002636000001075,0.9970990999991045,3.219999962311704e-05,3e-05,,0.4664484999993874,0.5000406999988627,2.000372399999833,,2.3002636000001075,2.3002636000001075,2.599776999999449,2.533549399999174,0.2332857999990665,5.333009599999059,3.0327459999989514,2.799460199999885,0.36721,0.13514608490757488,0.059894287629493406,5.333009599999059,0.1469368777876837,0.016166134432733934,space,2.732665100000304,,,,,,,,p10_bas1_01,001,2023-05-04_14h43.20.631,expectation_shapes_perceived_time,2022.2.4,119.99414428657029,
,,,,,,,,,,,,,10,0,10,0,test,,,,,,green,1.422865751394678,1.4132231404958677,2.2996445999997377,0.991350300000704,9.000000136438757e-05,9e-05,0.032790200000818004,1.4246066000014252,1.4579226000005292,1.9995940999997401,2.03296760000012,2.2996445999997377,2.2996445999997377,2.5995252000011533,2.9830328000007285,0.6833882000009908,5.207936900000277,2.9082923000005394,2.2249040999995486,1.32289,-0.125525783501183,-0.07807091412878456,5.207936900000277,-0.14350452607196412,-0.0354716922820281,space,2.6078011999998125,,,,,,,,p10_bas1_01,001,2023-05-04_14h43.20.631,expectation_shapes_perceived_time,2022.2.4,119.99414428657029,
,,,,,,,,,,,,,11,0,11,0,test,,,,,,red,1.8080269794532187,1.7933884297520661,2.2998066999989533,0.9968779000009818,3.990000004705507e-05,4e-05,0.03340339999886055,1.808499299999312,1.8418869999986782,2.000055799999245,2.0336750999995274,2.2998066999989533,2.2998066999989533,2.5999340999987908,2.8994689999999537,0.5996623000010004,5.800008500000331,3.5002018000013777,2.9005395000003773,1.87025,-0.058602563215714665,0.13571119902586554,5.800008500000331,-0.0838453683003884,0.12174458579773535,space,3.199784100001125,,,,,,,,p10_bas1_01,001,2023-05-04_14h43.20.631,expectation_shapes_perceived_time,2022.2.4,119.99414428657029,
,,,,,,,,,,,,,12,0,12,0,test,,,,,,red,1.7401996404322884,1.7272727272727273,2.299918400000024,0.9971430999994482,3.169999945384916e-05,3e-05,0.033210999999937485,1.741591400001198,1.7750713000004907,1.9996656000002986,2.033267300001171,2.299918400000024,2.299918400000024,2.5997414000012213,3.0159684999998717,0.7160500999998476,5.583010700000159,3.283092300000135,2.5670422000002873,1.90819,-0.042047954862672134,0.1417171812038209,5.583010700000159,-0.10769521302150079,0.10125972076172977,space,2.9831557999987126,,,,,,,,p10_bas1_01,001,2023-05-04_14h43.20.631,expectation_shapes_perceived_time,2022.2.4,119.99414428657029,
,,,,,,,,,,,,,13,0,13,0,test,,,,,,red,1.5206880714611657,1.5041322314049588,2.300345200001175,0.9969527000012022,5.8600000556907617e-05,6e-05,0.03363810000155354,1.517037400000845,1.5503103000010015,2.000415600001361,2.033576300000277,2.300345200001175,2.300345200001175,2.6003404000002774,2.816740199999913,0.5163949999987381,5.266716000000088,2.966370799998913,2.449975800000175,1.66204,-0.12907914878616442,0.07204417606669641,5.266716000000088,-0.14751140472589577,0.00960080373108942,space,2.6632377000005363,,,,,,,,p10_bas1_01,001,2023-05-04_14h43.20.631,expectation_shapes_perceived_time,2022.2.4,119.99414428657029,
,,,,,,,,,,,,,14,0,14,0,test,,,,,,red,1.5425885064499538,1.5289256198347108,2.299932299998545,0.9970225000015489,4.0099999750964344e-05,4e-05,0.033276099999056896,1.5418069999996078,1.5752255999996123,2.0000989999989542,2.033333199999106,2.299932299998545,2.299932299998545,2.600182299998778,2.824865199998385,0.5249328999998397,5.599961899999471,3.3000296000009257,2.775096700001086,1.66925,-0.12741414062990233,0.07494949448817782,5.599961899999471,-0.1465023656214265,0.01971919937055761,space,2.9975269000005937,,,,,,,,p10_bas1_01,001,2023-05-04_14h43.20.631,expectation_shapes_perceived_time,2022.2.4,119.99414428657029,
,,,,,,,,,,,,,15,0,15,0,test,,,,,,green,0.8496856111987028,0.8429752066115703,2.300207300000693,0.997034199999689,3.1600000511389226e-05,3e-05,0.0334075999999186,0.8499835000002349,0.8832864000014524,1.9999799000015628,2.0334014000000025,2.300207300000693,2.300207300000693,2.599932800001625,2.591591700000208,0.29138439999951515,5.258036900000661,2.957829599999968,2.666445200000453,0.87159,0.058030365310869705,-0.13595685587118045,5.258036900000661,0.06724052541666911,-0.13164536337516866,space,2.654011200000241,,,,,,,,p10_bas1_01,001,2023-05-04_14h43.20.631,expectation_shapes_perceived_time,2022.2.4,119.99414428657029,
,,,,,,,,,,,,,16,0,16,0,test,,,,,,red,1.833122010164648,1.8181818181818183,2.3002247999993415,0.9972118999994564,4.140000055485871e-05,4e-05,0.03346210000017891,1.8332807000006142,1.8666159999993397,2.000128899999254,2.033471799999461,2.3002247999993415,2.3002247999993415,2.5999572000000626,2.7584678000002896,0.4582430000009481,5.399491199999829,3.099266400000488,2.64102339999954,1.90913,-0.04162733832752483,0.14184130096786235,5.399491199999829,-0.07399672909333302,0.12796981690999562,space,2.79527489999964,,,,,,,,p10_bas1_01,001,2023-05-04_14h43.20.631,expectation_shapes_perceived_time,2022.2.4,119.99414428657029,
,,,,,,,,,,,,,17,0,17,0,test,,,,,,green,0.947829525148319,0.9421487603305785,2.3002094000003126,0.9988840000005439,3.719999949680641e-05,4e-05,0.033281500000157394,0.9499329999998736,0.9833080999997037,2.000080399999206,2.03351499999917,2.3002094000003126,2.3002094000003126,2.5999728000006144,2.575130299999728,0.27492089999941527,5.466729399999167,3.1665199999988545,2.891599099999439,0.60137,0.14039120681842074,-0.0462828154346442,5.466729399999167,0.024119707757698085,-0.14584248233684574,space,2.8598696000008204,,,,,,,,p10_bas1_01,001,2023-05-04_14h43.20.631,expectation_shapes_perceived_time,2022.2.4,119.99414428657029,
,,,,,,,,,,,,,18,0,18,0,test,,,,,,red,0.2779567469144689,0.2727272727272727,2.299942600000577,0.9968731999997544,3.169999945384916e-05,3e-05,,0.27531380000073113,0.3088678999993135,2.0000321000006807,,2.299942600000577,2.299942600000577,2.5997081999994407,2.416502899999614,0.11656029999903694,5.833595300000525,3.533652699999948,3.417092400000911,0.24525,0.1029554345230264,0.10607529617523932,5.833595300000525,0.113292784424047,0.09495543667392795,space,3.2340766999986954,,,,,,,,p10_bas1_01,001,2023-05-04_14h43.20.631,expectation_shapes_perceived_time,2022.2.4,119.99414428657029,
,,,,,,,,,,,,,19,0,19,0,test,,,,,,green,0.6386288328924027,0.6363636363636364,2.300174199999674,0.996523800000432,3.9999998989515007e-05,4e-05,0.03338339999936579,0.6413498000001709,0.6747185999993235,2.000414099999034,2.033611999999266,2.300174199999674,2.300174199999674,2.600095199999487,2.6584332000002178,0.3582590000005439,5.125261199998931,2.8250869999992574,2.4668279999987135,0.45532,0.1463694583035477,0.020682640847240433,5.125261199998931,0.13402459278291717,-0.062363438694984966,space,2.5196804000006523,,,,,,,,p10_bas1_01,001,2023-05-04_14h43.20.631,expectation_shapes_perceived_time,2022.2.4,119.99414428657029,
,,,,,,,,,0,0,0,0,,,,,fam,0.5653419999998732,0.5653419999998732,270.0,2.5653083999986848,2.5653083999986848,,,,,,,,,,,,,,,,,,,,,,,,,,,,,,,,,,,,p10_bas1_01,001,2023-05-04_14h43.20.631,expectation_shapes_perceived_time,2022.2.4,119.99414428657029,
,,,,,,,,,1,0,1,0,,,,,fam,0.4970852000005834,0.4970852000005834,270.0,2.4975929000011092,2.4975929000011092,,,,,,,,,,,,,,,,,,,,,,,,,,,,,,,,,,,,p10_bas1_01,001,2023-05-04_14h43.20.631,expectation_shapes_perceived_time,2022.2.4,119.99414428657029,
,,,,,,,,,2,0,2,0,,,,,fam,0.4976592000002711,0.4976592000002711,270.0,2.497701300000699,2.497701300000699,,,,,,,,,,,,,,,,,,,,,,,,,,,,,,,,,,,,p10_bas1_01,001,2023-05-04_14h43.20.631,expectation_shapes_perceived_time,2022.2.4,119.99414428657029,
,,,,,,,,,3,0,3,0,,,,,fam,0.4974430999991455,0.4974430999991455,270.0,2.4977908999990177,2.4977908999990177,,,,,,,,,,,,,,,,,,,,,,,,,,,,,,,,,,,,p10_bas1_01,001,2023-05-04_14h43.20.631,expectation_shapes_perceived_time,2022.2.4,119.99414428657029,
,,,,,,,,,4,0,4,0,,,,,fam,0.49737219999951776,0.49737219999951776,270.0,2.49755340000047,2.49755340000047,,,,,,,,,,,,,,,,,,,,,,,,,,,,,,,,,,,,p10_bas1_01,001,2023-05-04_14h43.20.631,expectation_shapes_perceived_time,2022.2.4,119.99414428657029,
,,,,,,,,,,,,,0,0,0,0,testSingleStim,,,,,,green,0.6290959103655227,0.6198347107438017,0.06920950000130688,0.9975921000004746,3.149999974993989e-05,3e-05,0.033450499999162275,0.6249212000002444,0.658156899999085,2.000127199999042,2.0332349999989674,2.2999127000002773,2.2999127000002773,2.6000657999993564,2.9998579999992216,0.6999452999989444,4.824894399998811,2.524981699998534,1.8250363999995898,0.41792,0.14293598494428983,0.037697402622669844,,,,None,,,,,,,,,p10_bas1_01,001,2023-05-04_14h43.20.631,expectation_shapes_perceived_time,2022.2.4,119.99414428657029,
,,,,,,,,,,,,,1,0,1,0,testSingleStim,,,,,,red,1.124223883328737,1.115702479338843,0.0046612000005552545,0.9955801000014617,3.9599999581696466e-05,4e-05,,1.124693699999625,1.1581153999995877,1.9997558999984903,,2.299861299999975,2.299861299999975,2.59966969999914,2.974607299998752,0.6747459999987768,4.391262600000118,2.0914013000001432,1.4166553000013664,1.16482,-0.07316583308902089,-0.12844668475628113,,,,None,,,,,,,,,p10_bas1_01,001,2023-05-04_14h43.20.631,expectation_shapes_perceived_time,2022.2.4,119.99414428657029,
,,,,,,,,,,,,,2,0,2,0,testSingleStim,,,,,,green,0.40008109507752554,0.39669421487603307,0.004395500000100583,0.997533800000383,3.9999998989515007e-05,4e-05,0.03336169999965932,0.3999915999993391,0.4333056999985274,2.0000701999997545,2.033265299998675,2.2999241999987134,2.2999241999987134,2.5997854999986885,2.5249599999988277,0.22503580000011425,3.9415941999995994,1.641670000000886,1.4166342000007717,0.18537,0.08130153616949161,0.12345788825737614,,,,None,,,,,,,,,p10_bas1_01,001,2023-05-04_14h43.20.631,expectation_shapes_perceived_time,2022.2.4,119.99414428657029,
,,,,,,,,,,,,,3,0,3,0,testSingleStim,,,,,,red,0.9592361635075893,0.9504132231404959,0.004443900001206202,0.996504200000345,3.950000063923653e-05,4e-05,0.03329880000092089,0.9585347000011097,0.9917824000003748,2.0001127000014094,2.0333225000013044,2.299924800001463,2.299924800001463,2.6003069000016694,2.8342163000015717,0.5342915000001085,8.16640069999994,5.866475899998477,5.3321843999983685,1.1994,-0.0866642908526088,-0.11975429281451397,,,,None,,,,,,,,,p10_bas1_01,001,2023-05-04_14h43.20.631,expectation_shapes_perceived_time,2022.2.4,119.99414428657029,
,,,,,,,,,,,,,4,0,4,0,testSingleStim,,,,,,green,1.08800950874955,1.0826446280991735,0.005779500001153792,0.9955593000013323,3.199999991920777e-05,3e-05,,1.091964499999449,1.125087700000222,2.0002946999993583,,2.300180799998998,2.300180799998998,2.600044299999354,2.82504279999921,0.524862000000212,4.391547299999729,2.0913665000007313,1.5665045000005193,0.92369,0.03510114917239042,-0.14359561025068807,,,,None,,,,,,,,,p10_bas1_01,001,2023-05-04_14h43.20.631,expectation_shapes_perceived_time,2022.2.4,119.99414428657029,
,,,,,,,,,,,,,5,0,5,0,testSingleStim,,,,,,green,0.8896474081559316,0.8842975206611571,0.0025877999996737344,0.9982899000006,3.119999928458128e-05,3e-05,0.03349269999853277,0.8917012000001705,0.9249851999993552,2.0000328999994963,2.033536199998707,2.3000522000002093,2.3000522000002093,2.600015699999858,3.2665359000002354,0.9664837000000261,5.1333512000001065,2.833298999999897,1.866815299999871,1.01368,-0.006352127643370625,-0.14768696770836706,,,,None,,,,,,,,,p10_bas1_01,001,2023-05-04_14h43.20.631,expectation_shapes_perceived_time,2022.2.4,119.99414428657029,
,,,,,,,,,,,,,6,0,6,0,testSingleStim,,,,,,red,1.0458042408477843,1.0330578512396695,0.004412399999637273,0.9958375999995042,3.1600000511389226e-05,3e-05,0.03319809999993595,1.0419541999999637,1.075168700001086,2.0001290000000154,2.0335817000013776,2.3000499999998283,2.3000499999998283,2.5995731000002706,2.907791999999972,0.6077420000001439,6.433407200000147,4.133357200000319,3.525615200000175,0.88074,0.054099836738075224,-0.13756815627681984,,,,None,,,,,,,,,p10_bas1_01,001,2023-05-04_14h43.20.631,expectation_shapes_perceived_time,2022.2.4,119.99414428657029,
,,,,,,,,,,,,,7,0,7,0,testSingleStim,,,,,,red,1.148729328359922,1.140495867768595,0.005043400000431575,0.9961643000006006,4.199999966658652e-05,4e-05,,1.1497720000006666,1.1832781000011892,1.9999649000001227,,2.30001749999974,2.30001749999974,2.599953099999766,3.016422500000772,0.716405000001032,4.608178500000577,2.308161000000837,1.5917559999998048,0.85081,0.06677559601557126,-0.13188180213075323,,,,None,,,,,,,,,p10_bas1_01,001,2023-05-04_14h43.20.631,expectation_shapes_perceived_time,2022.2.4,119.99414428657029,
,,,,,,,,,,,,,8,0,8,0,testSingleStim,,,,,,red,0.9267482808489973,0.9173553719008265,0.004344999999375432,0.9965629999987868,3.270000161137432e-05,3e-05,0.03301939999983006,0.9249734000004537,0.9581188000011025,2.0000149000006786,2.0332928000007087,2.3001578000003065,2.3001578000003065,2.599765300001309,2.9080827000016143,0.6079249000013078,4.174826500000563,1.8746687000002566,1.2667437999989488,0.71371,0.11573948057742278,-0.0919573955272674,,,,None,,,,,,,,,p10_bas1_01,001,2023-05-04_14h43.20.631,expectation_shapes_perceived_time,2022.2.4,119.99414428657029,
,,,,,,,,,,,,,9,0,9,0,testSingleStim,,,,,,green,1.5887450818604656,1.578512396694215,0.0042751999990287,0.9972154999995837,3.169999945384916e-05,3e-05,0.033380299999407725,1.5918266999997286,1.6251424000001862,2.0003154999994877,2.0334423999993305,2.300375700000586,2.300375700000586,2.600184499999159,2.4420281000002433,0.14165239999965706,5.558485300000029,3.258109599999443,3.116457199999786,1.5159,-0.14763907583936972,0.007381953791968486,,,,None,,,,,,,,,p10_bas1_01,001,2023-05-04_14h43.20.631,expectation_shapes_perceived_time,2022.2.4,119.99414428657029,
,,,,,,,,,,,,,10,0,10,0,testSingleStim,,,,,,green,1.1581065672629816,1.1487603305785123,0.0044512999993457925,0.9960472000002483,4.0299999454873614e-05,4e-05,,1.1583465999992768,1.191574299999047,1.9996360999994067,,2.299699499999406,2.299699499999406,2.599705200000244,2.766160499999387,0.46646099999998114,6.699606099999073,4.399906599999667,3.9334455999996862,1.17672,-0.07791704215195985,-0.12562135367356791,,,,None,,,,,,,,,p10_bas1_01,001,2023-05-04_14h43.20.631,expectation_shapes_perceived_time,2022.2.4,119.99414428657029,
,,,,,,,,,,,,,11,0,11,0,testSingleStim,,,,,,red,0.7207982556117551,0.7107438016528926,0.0043101999999635154,0.9979856999998447,9.859999954642262e-05,0.0001,,0.7163096000003861,0.7494853000007424,1.9997703000008187,,2.299717399999281,2.299717399999281,2.5998357999997097,2.5913375000000087,0.2916201000007277,7.132777900000292,4.833060500001011,4.541440400000283,0.52051,0.1475168213757151,-0.009517214282304199,,,,None,,,,,,,,,p10_bas1_01,001,2023-05-04_14h43.20.631,expectation_shapes_perceived_time,2022.2.4,119.99414428657029,
,,,,,,,,,,,,,12,0,12,0,testSingleStim,,,,,,red,1.7076487181772735,1.694214876033058,0.004531299999143812,0.9964894999993703,4.020000051241368e-05,4e-05,0.03330939999978,1.7083074999991368,1.741563600000518,1.9995851999992738,2.0330054000005475,2.299457600000096,2.299457600000096,2.5997621000005893,3.133229700000811,0.833772100000715,5.657742900000812,3.3582853000007162,2.5245132000000012,1.33075,-0.12741414062990233,-0.07494949448817782,,,,None,,,,,,,,,p10_bas1_01,001,2023-05-04_14h43.20.631,expectation_shapes_perceived_time,2022.2.4,119.99414428657029,
,,,,,,,,,,,,,13,0,13,0,testSingleStim,,,,,,red,1.1527557569739277,1.140495867768595,0.0032538999985263217,0.9984200999988389,3.170000127283856e-05,3e-05,0.03324620000057621,1.149577700000009,1.1829608999996708,1.9996062999998685,2.0329928000010113,2.2995976000001974,2.2995976000001974,2.5996403000008286,2.9000842000004923,0.6004866000002949,3.974842300000091,1.6752446999998938,1.074758099999599,1.00677,-0.003144469392937004,-0.14779006146803922,,,,None,,,,,,,,,p10_bas1_01,001,2023-05-04_14h43.20.631,expectation_shapes_perceived_time,2022.2.4,119.99414428657029,
,,,,,,,,,,,,,14,0,14,0,testSingleStim,,,,,,red,1.5111605233285375,1.4958677685950414,0.004432399999132031,0.997176999999283,1.5999999959603883e-05,2e-05,0.03337649999957648,1.5085366999992402,1.5418551999991905,2.0003844999991998,2.033967399998801,2.3003653999985545,2.3003653999985545,2.6005138000000443,2.9589273999990837,0.6585620000005292,6.0335063000002265,3.733140900001672,3.0745789000011428,1.7116,-0.11634536753866916,0.09118961239517312,,,,None,,,,,,,,,p10_bas1_01,001,2023-05-04_14h43.20.631,expectation_shapes_perceived_time,2022.2.4,119.99414428657029,
,,,,,,,,,,,,,15,0,15,0,testSingleStim,,,,,,red,0.6734878009542042,0.6694214876033058,0.004308899999159621,0.9980192000002717,4.0299999454873614e-05,4e-05,,0.6748124999994616,0.7083440999995219,2.000060599999415,,2.2997417999995378,2.2997417999995378,2.599722400000246,2.416298899999674,0.11655710000013642,4.858070300000691,2.558328500001153,2.4417714000010164,0.54329,0.1464585952314735,-0.02004170250535953,,,,None,,,,,,,,,p10_bas1_01,001,2023-05-04_14h43.20.631,expectation_shapes_perceived_time,2022.2.4,119.99414428657029,
,,,,,,,,,,,,,16,0,16,0,testSingleStim,,,,,,green,1.1177807463201825,1.1074380165289257,0.004359499998827232,0.9977604999985488,3.950000063923653e-05,4e-05,,1.1164566999996168,1.1496845000001485,1.9997800999990432,,2.299579000000449,2.299579000000449,2.599119399999836,2.59076880000066,0.2911898000002111,4.307966599999418,2.0083875999989687,1.7171977999987575,1.00366,-0.001699008567707255,-0.1478137453905312,,,,None,,,,,,,,,p10_bas1_01,001,2023-05-04_14h43.20.631,expectation_shapes_perceived_time,2022.2.4,119.99414428657029,
,,,,,,,,,,,,,17,0,17,0,testSingleStim,,,,,,red,0.8003509435553988,0.7933884297520661,0.004661000000851345,0.9961810999993759,4.000000080850441e-05,4e-05,0.03342530000008992,0.8003423000009207,0.8336436999998114,2.0002528999993956,2.0333800000007614,2.2997233999994933,2.2997233999994933,2.6001348000008875,2.416334800000186,0.11661140000069281,3.7000643000010314,1.400340900001538,1.2837295000008453,0.74293,0.10682345542439946,-0.10217895736246904,,,,None,,,,,,,,,p10_bas1_01,001,2023-05-04_14h43.20.631,expectation_shapes_perceived_time,2022.2.4,119.99414428657029,
,,,,,,,,,,,,,18,0,18,0,testSingleStim,,,,,,green,1.1076985380297808,1.0991735537190084,0.004335300000093412,0.9964447999991535,4.040000021632295e-05,4e-05,0.03331339999931515,1.1081651000004058,1.1418250000006083,1.999846599999728,2.0332242000004044,2.299809500000265,2.299809500000265,2.5994274000004225,2.7244324999992386,0.4246229999989737,5.316378400000758,3.016568900000493,2.5919459000015195,0.90089,0.045287703579682,-0.14071536469401194,,,,None,,,,,,,,,p10_bas1_01,001,2023-05-04_14h43.20.631,expectation_shapes_perceived_time,2022.2.4,119.99414428657029,
,,,,,,,,,,,,,19,0,19,0,testSingleStim,,,,,,red,0.3541442761193249,0.34710743801652894,0.0043893000001844484,0.9971761999986484,5.579999924520962e-05,6e-05,0.03364709999914339,0.35001980000015465,0.38340819999939413,1.9999006999987614,2.033642200000031,2.300029699999868,2.300029699999868,2.600578300000052,2.5919994999985647,0.29196979999869654,5.0500484999993205,2.7500187999994523,2.4580490000007558,0.34641,0.13094672635768217,0.06859114237783352,,,,None,,,,,,,,,p10_bas1_01,001,2023-05-04_14h43.20.631,expectation_shapes_perceived_time,2022.2.4,119.99414428657029,
,,,,,,,,,,,,,20,0,20,0,testSingleStim,,,,,,green,0.5220056848416539,0.5206611570247934,0.004476900001463946,0.9964059000012639,3.1800000215298496e-05,3e-05,0.033382800000254065,0.5246929000004457,0.5581942000007984,2.0003315000012662,2.03357909999977,2.300075099999958,2.300075099999958,2.6003228000008676,2.6501805999996577,0.35010549999969953,4.533454500000516,2.2333794000005582,1.8832739000008587,0.13414,0.0604680793186122,0.13489033078767337,,,,None,,,,,,,,,p10_bas1_01,001,2023-05-04_14h43.20.631,expectation_shapes_perceived_time,2022.2.4,119.99414428657029,
,,,,,,,,,,,,,21,0,21,0,testSingleStim,,,,,,green,0.41464327265974543,0.4132231404958678,0.00479059999997844,0.9959393999997701,1.4599998394260183e-05,1e-05,0.03380519999882381,0.4173557999984041,0.4507320999982767,2.0004828999990423,2.034078699998645,2.3005132999987836,2.3005132999987836,2.6011000999988028,2.567165299999033,0.26665200000024925,4.467233899998973,2.1667206000001897,1.9000685999999405,0.06695,0.03086238584381601,0.14456591263682234,,,,None,,,,,,,,,p10_bas1_01,001,2023-05-04_14h43.20.631,expectation_shapes_perceived_time,2022.2.4,119.99414428657029,
,,,,,,,,,,,,,22,0,22,0,testSingleStim,,,,,,red,0.8126381479028515,0.8099173553719008,0.0044606000010389835,0.9971259000012651,3.169999945384916e-05,3e-05,0.033575900000869296,0.8170872999999119,0.8504591000000801,2.000335000000632,2.033640600000581,2.3002073999996355,2.3002073999996355,2.5999917999997706,2.6753172999997332,0.3751099000000977,4.282864599999812,1.982657200000176,1.6075473000000784,0.42036,0.14322069722305134,0.03660084484589089,,,,None,,,,,,,,,p10_bas1_01,001,2023-05-04_14h43.20.631,expectation_shapes_perceived_time,2022.2.4,119.99414428657029,
,,,,,,,,,,,,,23,0,23,0,testSingleStim,,,,,,green,1.7506788116223724,1.7355371900826446,0.002815499999996973,0.9990593000002264,4.0099999750964344e-05,4e-05,0.03316869999980554,1.7496893999996246,1.783273900000495,1.9999721999993199,2.033103600000686,2.29973389999941,2.29973389999941,2.5998491999998805,2.5831287000000884,0.2833948000006785,4.441220000000612,2.1414861000012024,1.858091300000524,1.91961,-0.03693784571498128,0.14313415214555247,,,,None,,,,,,,,,p10_bas1_01,001,2023-05-04_14h43.20.631,expectation_shapes_perceived_time,2022.2.4,119.99414428657029,
,,,,,,,,,,,,,24,0,24,0,testSingleStim,,,,,,green,0.9810261244735291,0.975206611570248,0.00437450000026729,0.9966189000006125,3.2100000680657104e-05,3e-05,,0.9834358000007342,1.0168888000007428,2.0000617999994574,,2.300238400001035,2.300238400001035,2.5998436999998376,2.3582366999999067,0.057998299998871516,4.2499339999994845,1.9496955999984493,1.8916972999995778,0.25909,0.10746963565173664,0.10149910033775127,,,,None,,,,,,,,,p10_bas1_01,001,2023-05-04_14h43.20.631,expectation_shapes_perceived_time,2022.2.4,119.99414428657029,
,,,,,,,,,,,,,25,0,25,0,testSingleStim,,,,,,green,1.251973158517539,1.2396694214876034,0.004385099999126396,0.9964865999991162,4.030000127386302e-05,4e-05,,1.24988520000079,1.283282300000792,1.99994180000067,,2.2998776000004,2.2998776000004,2.5999432999997225,3.091539900000498,0.7916623000000982,6.008139000001393,3.7082614000009926,2.9165991000008944,1.00692,-0.0032127954765231856,-0.14778859192006655,,,,None,,,,,,,,,p10_bas1_01,001,2023-05-04_14h43.20.631,expectation_shapes_perceived_time,2022.2.4,119.99414428657029,
,,,,,,,,,,,,,26,0,26,0,testSingleStim,,,,,,green,0.44659311197737667,0.4462809917355372,0.004469399998924928,0.9966406999992614,7.74000000092201e-05,8e-05,0.03327469999931054,0.449937499999578,0.48335670000051323,1.9997325999993336,2.033201899999767,2.2997151999989,2.2997151999989,2.600053599999228,2.3750437999988208,0.0753285999999207,5.033038800000213,2.733323600001313,2.6579950000013923,0.15345,0.06853422728933846,0.13097652326406906,,,,None,,,,,,,,,p10_bas1_01,001,2023-05-04_14h43.20.631,expectation_shapes_perceived_time,2022.2.4,119.99414428657029,
,,,,,,,,,,,,,27,0,27,0,testSingleStim,,,,,,red,0.601076320185907,0.5950413223140496,0.004442600000402308,0.9965862999997626,3.9599999581696466e-05,4e-05,,0.5996538999988843,0.6331439999994473,1.9995589999998629,,2.29997849999927,2.29997849999927,2.5997638999997434,2.6329358000002685,0.33295730000099866,3.866616899998917,1.566638399999647,1.2336810999986483,0.3006,0.11975429281451397,0.0866642908526088,,,,None,,,,,,,,,p10_bas1_01,001,2023-05-04_14h43.20.631,expectation_shapes_perceived_time,2022.2.4,119.99414428657029,
,,,,,,,,,,,,,28,0,28,0,testSingleStim,,,,,,green,1.5123479384939023,1.4958677685950414,0.0045315000006667105,0.9962486000003992,4.020000051241368e-05,4e-05,0.033411599999453756,1.5082992000006925,1.5416755999995075,1.9999286999991455,2.033402200000637,2.300121300000683,2.300121300000683,2.5999606999994285,2.674831300000733,0.37471000000005006,3.824979200000598,1.5248578999999154,1.1501478999998653,1.80616,-0.08455693424917395,0.12125145288560793,,,,None,,,,,,,,,p10_bas1_01,001,2023-05-04_14h43.20.631,expectation_shapes_perceived_time,2022.2.4,119.99414428657029,
,,,,,,,,,,,,,29,0,29,0,testSingleStim,,,,,,red,0.7182528069394917,0.7107438016528926,0.004464899999220506,0.9976412999985769,4.0499999158782884e-05,4e-05,0.03296839999893564,0.7158184999989317,0.7493320999983553,1.9999095999992278,2.033293499998763,2.2996290999999474,2.2996290999999474,2.599721699998554,2.7912726999984443,0.49164359999849694,4.099263699999938,1.7996345999999903,1.3079910000014934,0.38661,0.13854342318944562,0.051551041186770466,,,,None,,,,,,,,,p10_bas1_01,001,2023-05-04_14h43.20.631,expectation_shapes_perceived_time,2022.2.4,119.99414428657029,
,,,,,,,,,,,,,30,0,30,0,testSingleStim,,,,,,green,0.22099407490242795,0.2231404958677686,0.003459000001384993,0.9976980999999796,3.9599999581696466e-05,4e-05,0.032990699999572826,0.22483219999958237,0.2579788000002736,1.999787999999171,2.033126899999843,2.2997539000007237,2.2997539000007237,2.5995650999993813,2.416664899999887,0.11691099999916332,3.8745182000002387,1.574764299999515,1.4578533000003517,0.05523,0.025518276576070455,0.14560428399287262,,,,None,,,,,,,,,p10_bas1_01,001,2023-05-04_14h43.20.631,expectation_shapes_perceived_time,2022.2.4,119.99414428657029,
,,,,,,,,,,,,,31,0,31,0,testSingleStim,,,,,,green,0.6623829280143061,0.6528925619834711,0.0043239999995421385,0.9966650999995181,3.229999856557697e-05,3e-05,0.033295799999905284,0.6577692999999272,0.6911349000001792,1.9998240999993868,2.0333654999994906,2.2999368000000686,2.2999368000000686,2.59996080000019,2.675192299999253,0.3752554999991844,4.758534399999917,2.458597599999848,2.0833421000006638,0.09683,0.04427877404776543,0.14103609511510468,,,,None,,,,,,,,,p10_bas1_01,001,2023-05-04_14h43.20.631,expectation_shapes_perceived_time,2022.2.4,119.99414428657029,
,,,,,,,,,,,,,32,0,32,0,testSingleStim,,,,,,red,1.5029810292430195,1.487603305785124,0.004405300000144052,0.9956738000000769,3.090000063821208e-05,3e-05,0.03342770000017481,1.5007709000001341,1.5338700000011158,2.000774800000727,2.0338388000000123,2.300511400000687,2.300511400000687,2.6004859000004217,2.933690600000773,0.633179200000086,4.483553000000029,2.183041599999342,1.549862399999256,1.73301,-0.10995555173123046,0.09880064068603316,,,,None,,,,,,,,,p10_bas1_01,001,2023-05-04_14h43.20.631,expectation_shapes_perceived_time,2022.2.4,119.99414428657029,
,,,,,,,,,,,,,33,0,33,0,testSingleStim,,,,,,red,0.4343542105861767,0.4297520661157025,0.004431899998962763,0.9976551999989169,3.2100000680657104e-05,3e-05,,0.4338893000003736,0.46716470000137633,2.000554700000066,,2.3004317000013543,2.3004317000013543,2.59995440000057,2.435439700000643,0.13500799999928859,4.275085700001,1.9746539999996457,1.8396460000003572,0.11339,0.051551041186770466,0.13854342318944562,,,,None,,,,,,,,,p10_bas1_01,001,2023-05-04_14h43.20.631,expectation_shapes_perceived_time,2022.2.4,119.99414428657029,
,,,,,,,,,,,,,34,0,34,0,testSingleStim,,,,,,green,1.4761435058670596,1.462809917355372,0.004336300000431947,0.9975371999989875,3.8100000892882235e-05,4e-05,0.033429000000978704,1.474712700000964,1.5082928000010725,1.9999752000003355,2.0332453999999416,2.2999820000004547,2.2999820000004547,2.5999197000001004,2.7166727000003448,0.41669069999989006,3.733076100001199,1.4330941000007442,1.0164034000008542,1.6944,-0.12110173757333884,0.08477121630133719,,,,None,,,,,,,,,p10_bas1_01,001,2023-05-04_14h43.20.631,expectation_shapes_perceived_time,2022.2.4,119.99414428657029,
,,,,,,,,,,,,,35,0,35,0,testSingleStim,,,,,,red,1.8117912500659936,1.7933884297520661,0.004386700000395649,0.9974887000007584,3.2300000384566374e-05,3e-05,0.033542100001795916,1.807895700001609,1.841217900000629,1.9998117000013735,2.033414300000004,2.3000401000008424,2.3000401000008424,2.6003064000015,3.0415991000008944,0.741559000000052,4.39980850000029,2.099768399999448,1.3582093999993958,1.87459,-0.05674627726908964,0.1364978020797021,,,,None,,,,,,,,,p10_bas1_01,001,2023-05-04_14h43.20.631,expectation_shapes_perceived_time,2022.2.4,119.99414428657029,
,,,,,,,,,,,,,36,0,36,0,testSingleStim,,,,,,green,0.44730416448528515,0.4462809917355372,0.003005200000188779,0.9976081000004342,4.020000051241368e-05,4e-05,0.033217900001545786,0.4497992000015074,0.4832512000011775,1.9998661000008724,2.03328540000075,2.300248100000317,2.300248100000317,2.5997884000007616,2.300248100000317,0.0,3.74113700000089,1.440888900000573,1.440888900000573,0.09525,0.04357838546571324,0.14125407702679466,,,,None,,,,,,,,,p10_bas1_01,001,2023-05-04_14h43.20.631,expectation_shapes_perceived_time,2022.2.4,119.99414428657029,
,,,,,,,,,,,,,37,0,37,0,testSingleStim,,,,,,red,0.7929267034963682,0.7851239669421488,0.004602200000590528,0.996945400000186,6.70000008540228e-05,7e-05,,0.7917680999998993,0.8251369000008708,2.0002896999994846,,2.3000879000010173,2.3000879000010173,2.5999881999996433,2.5999881999996433,0.299900299998626,3.858347200000935,1.5582592999999179,1.2583590000012919,0.21371,0.0919573955272674,0.11573948057742278,,,,None,,,,,,,,,p10_bas1_01,001,2023-05-04_14h43.20.631,expectation_shapes_perceived_time,2022.2.4,119.99414428657029,
,,,,,,,,,,,,,38,0,38,0,testSingleStim,,,,,,red,1.055523506145799,1.0495867768595042,0.004431500001373934,0.996250100000907,3.219999962311704e-05,3e-05,0.0335138000009465,1.0586132999997062,1.0917609999996785,2.0002739999999903,2.03356309999981,2.3001602000003913,2.3001602000003913,2.6003547000000253,2.458329799999774,0.15816959999938263,4.15028490000077,1.8501247000003787,1.691955100000996,1.00663,-0.003078988336860108,-0.1477914401692852,,,,None,,,,,,,,,p10_bas1_01,001,2023-05-04_14h43.20.631,expectation_shapes_perceived_time,2022.2.4,119.99414428657029,
,,,,,,,,,,,,,39,0,39,0,testSingleStim,,,,,,green,1.0466644473367892,1.0413223140495869,0.004661700000724522,0.9962909000005311,5.020000025979243e-05,5e-05,0.03319299999930081,1.049912200000108,1.0832917999996425,1.9998673999998573,2.033398199999283,2.3001810000005207,2.3001810000005207,2.5998342000002594,2.566533999999592,0.26635299999907147,3.7414914000000863,1.4413103999995656,1.174957400000494,1.2405,-0.1013616468857929,-0.10759928669414938,,,,None,,,,,,,,,p10_bas1_01,001,2023-05-04_14h43.20.631,expectation_shapes_perceived_time,2022.2.4,119.99414428657029,
,,,,,,,,,0,0,0,0,0,-1,-1,0,fam,0.5560621000004176,0.5560621000004176,270.0,2.556130299999495,2.556130299999495,,,,,,,,,,,,,,,,,,,,,,,,,,,,,,,,,,,,p10_bas1_01,001,2023-05-04_14h43.20.631,expectation_shapes_perceived_time,2022.2.4,119.99414428657029,
,,,,,,,,,1,0,1,0,0,-1,-1,0,fam,0.49760760000026494,0.49760760000026494,270.0,2.497380599999815,2.497380599999815,,,,,,,,,,,,,,,,,,,,,,,,,,,,,,,,,,,,p10_bas1_01,001,2023-05-04_14h43.20.631,expectation_shapes_perceived_time,2022.2.4,119.99414428657029,
,,,,,,,,,2,0,2,0,0,-1,-1,0,fam,0.4989924000001338,0.4989924000001338,270.0,2.4988130000001547,2.4988130000001547,,,,,,,,,,,,,,,,,,,,,,,,,,,,,,,,,,,,p10_bas1_01,001,2023-05-04_14h43.20.631,expectation_shapes_perceived_time,2022.2.4,119.99414428657029,
,,,,,,,,,3,0,3,0,0,-1,-1,0,fam,0.49766429999908723,0.49766429999908723,270.0,2.497604499998488,2.497604499998488,,,,,,,,,,,,,,,,,,,,,,,,,,,,,,,,,,,,p10_bas1_01,001,2023-05-04_14h43.20.631,expectation_shapes_perceived_time,2022.2.4,119.99414428657029,
1,500,0.5,none,98,red,green,no_Expectation,,,,,,0,0,0,5,train_doubleStim,,,,,,red,0.2989254627200403,0.2975206611570248,2.299389700001484,0.9985514999989391,3e-05,3e-05,0.033,0.29972020000059274,0.3333328000007896,1.9997546000013244,2.0334129000002577,2.299389700001484,2.299389700001484,2.499930100000711,3.324760500001503,1.0253708000000188,6.51647469999989,4.217084999998406,3.191714199998387,0.82113,0.0787623274252334,-0.12509310826360598,,,,None,,0.5,0.49586776859504134,0.8322554627200404,0.8264462809917356,training_double_stim.csv,0.8331953000015346,0.8666795000008278,p10_bas1_01,001,2023-05-04_14h43.20.631,expectation_shapes_perceived_time,2022.2.4,119.99414428657029,
1,500,0.5,none,60,red,green,no_Expectation,,,,,,0,1,1,8,train_doubleStim,,,,,,red,0.5920648538842201,0.5867768595041323,2.2996689999999944,0.995911399999386,4e-05,4e-05,,0.5917921000000206,0.624796600000991,1.9997691000007762,,2.2996689999999944,2.2996689999999944,2.4998734000000695,3.0584120000003168,0.7587430000003224,5.199707000001581,2.9000380000015866,2.1412950000012643,0.80991,0.08312264078306279,-0.1222391776221512,,,,None,,0.5,0.49586776859504134,1.12539485388422,1.115702479338843,training_double_stim.csv,1.1250663000009808,1.1584643000005599,p10_bas1_01,001,2023-05-04_14h43.20.631,expectation_shapes_perceived_time,2022.2.4,119.99414428657029,
1,-500,0.5,none,77,green,red,no_Expectation,,,,,,0,2,2,1,train_doubleStim,,,,,,green,1.5453810463437858,1.5289256198347108,2.300069799999619,0.9979370999990351,4e-05,4e-05,,1.5413616999994701,1.5747819999996864,1.9999813999984326,,2.300069799999619,2.300069799999619,2.499460499999259,2.6077544999989186,0.3076846999992995,4.399695399999473,2.099625599999854,1.7919409000005544,0.90078,0.045336549042163075,-0.14069963495843713,,,,None,,-0.5,-0.49586776859504134,1.0120510463437857,1.0,training_double_stim.csv,1.0082941000000574,1.0415033999997831,p10_bas1_01,001,2023-05-04_14h43.20.631,expectation_shapes_perceived_time,2022.2.4,119.99414428657029,
1,-500,0.5,none,68,red,green,no_Expectation,,,,,,0,3,3,3,train_doubleStim,,,,,,red,1.444417784161244,1.4297520661157026,2.2999139000003197,0.997593500000221,7e-05,7e-05,,1.4419503000008262,1.4751165000016044,1.9997569000006479,,2.2999139000003197,2.2999139000003197,2.499938500001008,2.691734700001689,0.3918208000013692,4.466662400000132,2.1667484999998123,1.7749276999984431,1.53071,-0.1471361321697812,0.01423898053255947,,,,None,,-0.5,-0.49586776859504134,0.911087784161244,0.9008264462809917,training_double_stim.csv,0.9084093000001303,0.94197560000066,p10_bas1_01,001,2023-05-04_14h43.20.631,expectation_shapes_perceived_time,2022.2.4,119.99414428657029,
1,500,0.5,none,88,red,green,no_Expectation,,,,,,0,4,4,9,train_doubleStim,,,,,,red,0.6073988538407536,0.6033057851239669,2.3003518000004988,0.9973599000004469,3e-05,3e-05,0.03335,0.6083152000010159,0.6419139999998151,2.0002260000001115,2.033534199999849,2.3003518000004988,2.3003518000004988,2.500196099999812,3.0166628999995737,0.7163110999990749,5.775140699999611,3.474788899999112,2.758477800000037,1.45343,-0.14624401541244808,-0.021551749639729192,,,,None,,0.5,0.49586776859504134,1.1407288538407536,1.1322314049586777,training_double_stim.csv,1.1417364000008092,1.1747668999996677,p10_bas1_01,001,2023-05-04_14h43.20.631,expectation_shapes_perceived_time,2022.2.4,119.99414428657029,
1,-500,0.5,none,46,red,green,no_Expectation,,,,,,0,5,5,4,train_doubleStim,,,,,,red,1.3345751743727823,1.322314049586777,2.299994199998764,0.9961922000002232,4e-05,4e-05,0.03348,1.3334274999997433,1.366893299998992,2.000349999998434,2.033332099999825,2.299994199998764,2.299994199998764,2.499906600000031,3.0494007999986934,0.7494065999999293,6.674601699998675,4.374607499999911,3.6252008999999816,0.89013,0.05001535026017996,-0.1391051929111255,,,,None,,-0.5,-0.49586776859504134,0.8012451743727823,0.7933884297520661,training_double_stim.csv,0.7998818999985815,0.8335403999990376,p10_bas1_01,001,2023-05-04_14h43.20.631,expectation_shapes_perceived_time,2022.2.4,119.99414428657029,
1,-500,0.5,none,59,green,red,no_Expectation,,,,,,0,6,6,0,train_doubleStim,,,,,,green,1.4412711960638493,1.4297520661157026,2.3000001999989763,0.9967656999997416,4e-05,4e-05,0.03334,1.441761599999154,1.4747838999992382,2.000132899998789,2.03310109999984,2.3000001999989763,2.3000001999989763,2.499798799999553,3.1999025999994046,0.8999024000004283,7.216398999999001,4.9163988000000245,4.016496399999596,1.68089,-0.12458923269493223,0.07955697991363142,,,,None,,-0.5,-0.49586776859504134,0.9079411960638494,0.9008264462809917,training_double_stim.csv,0.9082037999996828,0.9414923999993334,p10_bas1_01,001,2023-05-04_14h43.20.631,expectation_shapes_perceived_time,2022.2.4,119.99414428657029,
1,500,0.5,none,25,green,red,no_Expectation,,,,,,0,7,7,6,train_doubleStim,,,,,,green,0.42209903473870564,0.42148760330578516,2.299281699999483,0.996271699999852,4e-05,4e-05,0.03311,0.42495579999922484,0.4583050999990519,1.9992382999989786,2.0325374999993073,2.299281699999483,2.299281699999483,2.499519799999689,3.0579343999997946,0.7586527000003116,5.9079320000000735,3.6086503000005905,2.849997600000279,1.00346,-0.0016066823671044364,-0.14781477777360813,,,,None,,0.5,0.49586776859504134,0.9554290347387057,0.9504132231404959,training_double_stim.csv,0.9581505999994988,0.9915219999984402,p10_bas1_01,001,2023-05-04_14h43.20.631,expectation_shapes_perceived_time,2022.2.4,119.99414428657029,
1,-500,0.5,none,23,green,red,no_Expectation,,,,,,0,8,8,2,train_doubleStim,,,,,,green,1.2753757392880747,1.2644628099173554,2.3002811999995174,0.9964641999995365,5e-05,5e-05,0.03311,1.2755822999988595,1.3084996999987197,2.0000232999991567,2.0335104999994655,2.3002811999995174,2.3002811999995174,2.4999971999986883,3.783398699999452,1.4831174999999348,8.316757999999027,6.016476799999509,4.533359299999574,1.48326,-0.14761919216631908,-0.007769431166648373,,,,None,,-0.5,-0.49586776859504134,0.7420457392880747,0.7355371900826446,training_double_stim.csv,0.7417384000000311,0.775027499999851,p10_bas1_01,001,2023-05-04_14h43.20.631,expectation_shapes_perceived_time,2022.2.4,119.99414428657029,
1,500,0.5,none,33,green,red,no_Expectation,,,,,,0,9,9,7,train_doubleStim,,,,,,green,0.37663497904014553,0.371900826446281,2.3003912000003766,0.9965140999993309,4e-05,4e-05,,0.3748782000002393,0.40838909999911266,2.000302399999782,,2.3003912000003766,2.3003912000003766,2.499827399999049,2.724658199998885,0.42426699999850825,5.166385999998965,2.865994799998589,2.4417278000000806,0.97609,0.011095115996378677,-0.14740654109474527,,,,None,,0.5,0.49586776859504134,0.9099649790401455,0.9008264462809917,training_double_stim.csv,0.9079086000001553,0.9410310000002937,p10_bas1_01,001,2023-05-04_14h43.20.631,expectation_shapes_perceived_time,2022.2.4,119.99414428657029,
1,-500,0.5,none,46,red,green,no_Expectation,,,,,,1,0,10,4,train_doubleStim,,,,,,red,1.637344480280023,1.6198347107438016,2.300380299999233,0.9964094000006298,3e-05,3e-05,0.03337,1.6333832000000257,1.667006499999843,2.0000529999997525,2.0334771999987424,2.300380299999233,2.300380299999233,2.500111099998321,2.774976799999422,0.4745965000001888,4.49998339999911,2.1996030999998766,1.7250065999996878,1.8642,-0.06116980346186625,0.13457356761610573,,,,None,,-0.5,-0.49586776859504134,1.104014480280023,1.0909090909090908,training_double_stim.csv,1.1003617999995186,1.1335124999986874,p10_bas1_01,001,2023-05-04_14h43.20.631,expectation_shapes_perceived_time,2022.2.4,119.99414428657029,
1,500,0.5,none,98,red,green,no_Expectation,,,,,,1,1,11,5,train_doubleStim,,,,,,red,1.0689235977854328,1.0578512396694215,2.300403200000801,0.9966379999987112,4e-05,4e-05,0.03343,1.0666754000012588,1.1002179000006436,2.0002050000002782,2.033632900000157,2.300403200000801,2.300403200000801,2.500290700001642,2.8416438000003836,0.5412405999995826,4.566429700000299,2.266026499999498,1.7247858999999153,1.89441,-0.048141225020021036,0.13976484683231913,,,,None,,0.5,0.49586776859504134,1.6022535977854326,1.5867768595041323,training_double_stim.csv,1.6002314000015758,1.6333911000001535,p10_bas1_01,001,2023-05-04_14h43.20.631,expectation_shapes_perceived_time,2022.2.4,119.99414428657029,
1,-500,0.5,none,68,red,green,no_Expectation,,,,,,1,2,12,3,train_doubleStim,,,,,,red,1.57298685326069,1.5619834710743803,2.3003009999993083,0.9966423999994731,4e-05,4e-05,0.03336,1.5753280999997514,1.608455400000821,1.9998587000009138,2.033530900000187,2.3003009999993083,2.3003009999993083,2.5000498999997944,2.991648499999428,0.6913475000001199,6.091555099999823,3.791254100000515,3.099906600000395,1.8147,-0.08127494417279243,0.12347539595481927,,,,None,,-0.5,-0.49586776859504134,1.0396568532606902,1.0330578512396695,training_double_stim.csv,1.041850699999486,1.075431600000229,p10_bas1_01,001,2023-05-04_14h43.20.631,expectation_shapes_perceived_time,2022.2.4,119.99414428657029,
1,-500,0.5,none,77,green,red,no_Expectation,,,,,,1,3,13,1,train_doubleStim,,,,,,green,0.7737120613135497,0.768595041322314,2.3003417999989324,0.9976439000001847,3e-05,3e-05,0.03332,0.7753237999986595,0.8089075999996567,2.000060200000007,2.033459499998571,2.3003417999989324,2.3003417999989324,2.5003678999983094,2.7501402999987477,0.44979849999981525,5.174800699998741,2.8744588999998086,2.4246603999999934,0.17989,0.07916570166522433,0.1248382218566999,,,,None,,-0.5,-0.49586776859504134,0.24038206131354975,0.2396694214876033,training_double_stim.csv,0.24216299999898183,0.2753754999994271,p10_bas1_01,001,2023-05-04_14h43.20.631,expectation_shapes_perceived_time,2022.2.4,119.99414428657029,
1,500,0.5,none,60,red,green,no_Expectation,,,,,,1,4,14,8,train_doubleStim,,,,,,red,1.1556054272450467,1.1487603305785123,2.2999325999990106,0.9978928000000451,4e-05,4e-05,,1.1586409999999887,1.1917947999991156,2.0001164999994216,,2.2999325999990106,2.2999325999990106,2.500235800000155,3.016470799999297,0.7165382000002865,5.649878299998818,3.3499456999998074,2.633407499999521,1.73073,-0.11065893195225744,0.09801219687199945,,,,None,,0.5,0.49586776859504134,1.6889354272450467,1.677685950413223,training_double_stim.csv,1.6919196999988344,1.7253342999993038,p10_bas1_01,001,2023-05-04_14h43.20.631,expectation_shapes_perceived_time,2022.2.4,119.99414428657029,
1,-500,0.5,none,23,green,red,no_Expectation,,,,,,1,5,15,2,train_doubleStim,,,,,,green,0.7678973781866308,0.7603305785123967,2.300289500000872,0.9972940999996354,4e-05,4e-05,,0.7668214000004809,0.8005307000003086,2.0002254999999423,,2.300289500000872,2.300289500000872,2.500188400001207,2.433393299999807,0.13310379999893485,4.6750842000001285,2.3747946999992564,2.2416909000003216,0.12175,0.05517194852966447,0.13714170063088021,,,,None,,-0.5,-0.49586776859504134,0.23456737818663084,0.23140495867768596,training_double_stim.csv,0.23362989999986894,0.26676880000013625,p10_bas1_01,001,2023-05-04_14h43.20.631,expectation_shapes_perceived_time,2022.2.4,119.99414428657029,
1,500,0.5,none,88,red,green,no_Expectation,,,,,,1,6,16,9,train_doubleStim,,,,,,red,1.2397575753535541,1.231404958677686,2.299955399999817,0.9965179999999236,4e-05,4e-05,0.03336,1.241356700000324,1.2750517000004038,1.9999236000003293,2.0334153000003425,2.299955399999817,2.299955399999817,2.499912699999186,2.299955399999817,0.0,5.099765099999786,2.799809699999969,2.799809699999969,1.04517,-0.020905401195140897,-0.14633780836598625,,,,None,,0.5,0.49586776859504134,1.773087575353554,1.7603305785123968,training_double_stim.csv,1.7749327999990783,1.8082899000000907,p10_bas1_01,001,2023-05-04_14h43.20.631,expectation_shapes_perceived_time,2022.2.4,119.99414428657029,
1,500,0.5,none,25,green,red,no_Expectation,,,,,,1,7,17,6,train_doubleStim,,,,,,green,0.3183624498821315,0.3140495867768595,2.2994390000003477,0.9965922999999748,4e-05,4e-05,0.03334,0.3168683999992936,0.34989039999891247,1.9994244999998045,2.032769899999039,2.2994390000003477,2.2994390000003477,2.4997960000000603,2.491421299999274,0.19198229999892646,4.20782650000001,1.9083874999996624,1.716405200000736,0.34024,0.12959198817865172,0.07111755448828448,,,,None,,0.5,0.49586776859504134,0.8516924498821316,0.8429752066115703,training_double_stim.csv,0.8496741999988444,0.883022300000448,p10_bas1_01,001,2023-05-04_14h43.20.631,expectation_shapes_perceived_time,2022.2.4,119.99414428657029,
1,-500,0.5,none,59,green,red,no_Expectation,,,,,,1,8,18,0,train_doubleStim,,,,,,green,1.1107405421100531,1.0991735537190084,2.2998592000003555,0.9982849999996688,3e-05,3e-05,0.03332,1.1082626999996137,1.141686999999365,1.9999326999986806,2.0330053999987285,2.2998592000003555,2.2998592000003555,2.499999100000423,3.5998885999997583,1.3000293999994028,5.64974489999986,3.349885699999504,2.0498563000001013,0.87459,0.05674627726908964,-0.1364978020797021,,,,None,,-0.5,-0.49586776859504134,0.5774105421100532,0.5702479338842975,training_double_stim.csv,0.574895199999446,0.6083340000004682,p10_bas1_01,001,2023-05-04_14h43.20.631,expectation_shapes_perceived_time,2022.2.4,119.99414428657029,
1,500,0.5,none,33,green,red,no_Expectation,,,,,,1,9,19,7,train_doubleStim,,,,,,green,0.4736131047751402,0.47107438016528924,2.300159899999926,0.9975085999994917,2e-05,2e-05,0.03329,0.4749630000005709,0.5082445999996708,2.0001695999999356,2.0335532999997668,2.300159899999926,2.300159899999926,2.5001671999998507,2.6002109999990353,0.3000510999991093,4.016761999999289,1.7166020999993634,1.4165510000002541,0.31771,0.12423961647815811,0.08010185799249667,,,,None,,0.5,0.49586776859504134,1.0069431047751403,1.0,training_double_stim.csv,1.0085183999999572,1.0418107000004966,p10_bas1_01,001,2023-05-04_14h43.20.631,expectation_shapes_perceived_time,2022.2.4,119.99414428657029,
,,,,,,,,,0,0,0,0,0,-1,-1,0,fam,0.5642829999997048,0.5642829999997048,270.0,2.5641453999996884,2.5641453999996884,,,,,,,,,,,,,,,,,,,,,,,,,,,,,,,,,,,,p10_bas1_01,001,2023-05-04_14h43.20.631,expectation_shapes_perceived_time,2022.2.4,119.99414428657029,
,,,,,,,,,1,0,1,0,0,-1,-1,0,fam,0.49739880000015546,0.49739880000015546,270.0,2.4975704999997106,2.4975704999997106,,,,,,,,,,,,,,,,,,,,,,,,,,,,,,,,,,,,p10_bas1_01,001,2023-05-04_14h43.20.631,expectation_shapes_perceived_time,2022.2.4,119.99414428657029,
,,,,,,,,,2,0,2,0,0,-1,-1,0,fam,0.5025156000010611,0.5025156000010611,270.0,2.4973816000001534,2.4973816000001534,,,,,,,,,,,,,,,,,,,,,,,,,,,,,,,,,,,,p10_bas1_01,001,2023-05-04_14h43.20.631,expectation_shapes_perceived_time,2022.2.4,119.99414428657029,
,,,,,,,,,3,0,3,0,0,-1,-1,0,fam,0.49754009999924165,0.49754009999924165,270.0,2.497526699999071,2.497526699999071,,,,,,,,,,,,,,,,,,,,,,,,,,,,,,,,,,,,p10_bas1_01,001,2023-05-04_14h43.20.631,expectation_shapes_perceived_time,2022.2.4,119.99414428657029,
,100,0.5,none,,red,green,,915.1796437791772,,,,,0,0,0,284,trial,,,,,,red,0.9151796437791773,0.9090909090909092,2.299827100001494,0.9986769999995886,3e-05,3e-05,,0.9165389000008872,0.9498191000002407,1.9998421000000235,,2.299827100001494,2.299827100001494,2.500011699999959,2.891473000001497,0.5916459000000032,4.891268700001092,2.591441599999598,1.999795699999595,0.99665,0.0015559507420789295,-0.14781532049749832,,,,None,,0.1,0.09917355371900827,1.0485096437791772,1.0413223140495869,trial_list_0.5_green.csv,1.0496456000000762,1.0831479000007675,p10_bas1_01,001,2023-05-04_14h43.20.631,expectation_shapes_perceived_time,2022.2.4,119.99414428657029,
,100,0.5,none,,green,red,,238.94186292510253,,,,,0,1,1,331,trial,,,,,,green,0.23894186292510253,0.2396694214876033,2.300438499998563,0.9968384000003425,2e-05,2e-05,,0.24207249999926717,0.2756671999995888,2.0006563999995706,2.0337566999987757,2.300438499998563,2.300438499998563,2.500391399998989,2.592111099998874,0.2916726000003109,4.733379599998443,2.43294109999988,2.141268499999569,0.14295,0.0641763825160418,0.13316599372078672,,,,None,,0.1,0.09917355371900827,0.37227186292510256,0.371900826446281,trial_list_0.5_green.csv,0.3754713999987871,0.4090122999987216,p10_bas1_01,001,2023-05-04_14h43.20.631,expectation_shapes_perceived_time,2022.2.4,119.99414428657029,
,-167,0.5,none,,green,red,,1082.4373794591734,,,,,0,2,2,277,trial,,,,,,green,1.0824373794591733,1.0743801652892562,2.3001477000016166,0.9984042000014597,3e-05,3e-05,0.03342,1.0835214000017004,1.1167347000009613,1.999778100000185,2.0331226000016613,2.3001477000016166,2.3001477000016166,2.5000374000010197,2.8750641000006,0.5749163999989833,5.875040700000682,3.574892999999065,2.999976600000082,0.97381,0.01215037626268215,-0.14732331218502107,,,,None,,-0.167,-0.1652892561983471,0.8821073794591733,0.8760330578512396,trial_list_0.5_green.csv,0.8832696000008582,0.9166610000011133,p10_bas1_01,001,2023-05-04_14h43.20.631,expectation_shapes_perceived_time,2022.2.4,119.99414428657029,
,-167,0.5,none,,red,green,,1252.5568454999343,,,,,0,3,3,416,trial,,,,,,red,1.2525568454999343,1.2396694214876034,2.2992121999996016,0.9977660000004107,5e-05,5e-05,,1.2501857000006567,1.2833566999997856,1.999685299999328,,2.2992121999996016,2.2992121999996016,2.4998381000004883,2.974498499999754,0.6752863000001526,6.9078724999999395,4.608660300000338,3.9333740000001853,0.69582,0.12072243139897698,-0.08531051818861039,,,,None,,-0.167,-0.1652892561983471,1.0522268454999344,1.0413223140495869,trial_list_0.5_green.csv,1.0502080999995087,1.083326300000408,p10_bas1_01,001,2023-05-04_14h43.20.631,expectation_shapes_perceived_time,2022.2.4,119.99414428657029,
,167,0.5,none,,green,red,,411.3095503922232,,,,,0,4,4,379,trial,,,,,,green,0.41130955039222317,0.4049586776859504,2.2999813000005815,0.9968544000003021,4e-05,4e-05,0.03336,0.40846290000081353,0.44176270000025397,2.000036800000089,2.033371299999999,2.2999813000005815,2.2999813000005815,2.5001231000005646,3.0416404999996303,0.7416591999990487,4.6417380000002595,2.341756699999678,1.6000975000006292,0.50663,0.1477914401692852,-0.003078988336860108,,,,None,,0.167,0.1652892561983471,0.6116395503922232,0.6033057851239669,trial_list_0.5_green.csv,0.6085517000010441,0.6418114000007336,p10_bas1_01,001,2023-05-04_14h43.20.631,expectation_shapes_perceived_time,2022.2.4,119.99414428657029,
,100,0.5,none,,green,red,,775.5676595160462,,,,,0,5,5,25,trial,,,,,,green,0.7755676595160462,0.768595041322314,2.2998324999989563,0.9965442000011535,4e-05,4e-05,,0.7749428999995871,0.808410300000105,1.9999070999983815,,2.2998324999989563,2.2998324999989563,2.499875899999097,2.924815200000012,0.6249827000010555,4.083244800000102,1.783412300001146,1.1584296000000904,0.93517,0.029897835813351738,-0.14476846814886105,,,,None,,0.1,0.09917355371900827,0.9088976595160463,0.9008264462809917,trial_list_0.5_green.csv,0.908303899999737,0.9415937999983726,p10_bas1_01,001,2023-05-04_14h43.20.631,expectation_shapes_perceived_time,2022.2.4,119.99414428657029,
,-167,0.5,none,,green,red,,934.07510840015,,,,,0,6,6,247,trial,,,,,,green,0.9340751084001501,0.9256198347107438,2.300103699999454,0.9952364000000671,8e-05,8e-05,0.03317,0.9335008999987622,0.9667410999991262,2.0001833999995142,2.033234900000025,2.300103699999454,2.300103699999454,2.5001320999999734,2.7164947999990545,0.41639109999960056,4.608509599998797,2.308405899999343,1.8920147999997425,0.87511,0.056520583858719185,-0.1365914109919047,,,,None,,-0.167,-0.1652892561983471,0.73374510840015,0.7272727272727273,trial_list_0.5_green.csv,0.7335997999998654,0.7666209999988496,p10_bas1_01,001,2023-05-04_14h43.20.631,expectation_shapes_perceived_time,2022.2.4,119.99414428657029,
,100,0.5,none,,red,green,,1273.4507679821947,,,,,0,7,7,66,trial,,,,,,red,1.2734507679821947,1.2644628099173554,2.300226700001076,0.9959440999991784,4e-05,4e-05,,1.27528490000077,1.3083106000012776,2.000195700000404,,2.300226700001076,2.300226700001076,2.500095200000942,2.583498800000598,0.28327209999952174,5.799933000000237,3.4997062999991613,3.2164341999996395,1.69743,-0.12028893749926794,0.08592066964233425,,,,None,,0.1,0.09917355371900827,1.4067807679821946,1.396694214876033,trial_list_0.5_green.csv,1.4085462000002735,1.441873100000521,p10_bas1_01,001,2023-05-04_14h43.20.631,expectation_shapes_perceived_time,2022.2.4,119.99414428657029,
,33,0.5,none,,green,red,,512.0808562432619,,,,,0,8,8,455,trial,,,,,,green,0.5120808562432619,0.5041322314049587,2.2999956000003294,0.9958743000006507,4e-05,4e-05,,0.5079444000002695,0.541679899999508,1.9998436999994738,2.0334564999993745,2.2999956000003294,2.2999956000003294,2.4998632999995607,2.766429400000561,0.4664338000002317,4.957988899999691,2.6579932999993616,2.19155949999913,0.41792,0.14293598494428983,0.037697402622669844,,,,None,,0.033,0.03305785123966942,0.5784108562432619,0.5702479338842975,trial_list_0.5_green.csv,0.5750084999999672,0.6082069999993109,p10_bas1_01,001,2023-05-04_14h43.20.631,expectation_shapes_perceived_time,2022.2.4,119.99414428657029,
,-233,0.5,none,,red,green,,1311.0962474371745,,,,,0,9,9,92,trial,,,,,,red,1.3110962474371746,1.297520661157025,2.300441099998352,0.9975095999998302,3e-05,3e-05,,1.3086805999992066,1.3420533999997133,2.000309799999741,,2.300441099998352,2.300441099998352,2.500281399999949,2.6834654999984195,0.38302440000006754,4.241610499999297,1.9411694000009447,1.5581450000008772,1.2451,-0.10290672060185728,-0.10612255562066533,,,,None,,-0.233,-0.23140495867768596,1.0447662474371746,1.0330578512396695,trial_list_0.5_green.csv,1.041844299999866,1.0751606999983778,p10_bas1_01,001,2023-05-04_14h43.20.631,expectation_shapes_perceived_time,2022.2.4,119.99414428657029,
,100,0.5,none,,green,red,,534.6447796355338,,,,,0,10,10,403,trial,,,,,,green,0.5346447796355338,0.5289256198347108,2.300610799999049,0.997158500000296,1e-05,1e-05,,0.5339179000002332,0.5671743000002607,2.0005120000005263,,2.300610799999049,2.300610799999049,2.5005051999996795,3.234005899999829,0.9333951000007801,5.284246400000484,2.983635600001435,2.0502405000006547,0.74753,0.10533412799349606,-0.1037136029474423,,,,None,,0.1,0.09917355371900827,0.6679747796355339,0.6611570247933884,trial_list_0.5_green.csv,0.6673529999989114,0.7005736999999499,p10_bas1_01,001,2023-05-04_14h43.20.631,expectation_shapes_perceived_time,2022.2.4,119.99414428657029,
,-233,0.5,none,,red,green,,822.2545046405539,,,,,0,11,11,140,trial,,,,,,red,0.8222545046405539,0.8181818181818182,2.300186099999337,0.9958406999994622,4e-05,4e-05,0.03325,0.8253070999999181,0.8584651999990456,2.0000548000007257,2.0333931999994093,2.300186099999337,2.300186099999337,2.500013400000171,2.6503947000001062,0.35020860000076937,4.508218700000725,2.2080326000013883,1.857824000000619,0.44633,0.14572754504219118,0.02480468851781978,,,,None,,-0.233,-0.23140495867768596,0.5559245046405539,0.5537190082644629,trial_list_0.5_green.csv,0.5586005999994086,0.5916606999999203,p10_bas1_01,001,2023-05-04_14h43.20.631,expectation_shapes_perceived_time,2022.2.4,119.99414428657029,
,33,0.5,none,,red,green,,447.78213318721953,,,,,0,12,12,272,trial,,,,,,red,0.44778213318721954,0.4462809917355372,2.299997899999653,0.9975983000003907,4e-05,4e-05,0.03336,0.45005610000043816,0.4833954999994603,2.000238399999944,2.0334545000005164,2.299997899999653,2.299997899999653,2.5000271999997494,3.099489000000176,0.7994911000005231,5.916602699999203,3.61660479999955,2.8171136999990267,0.69275,0.12153933524002503,-0.08414261670463272,,,,None,,0.033,0.03305785123966942,0.5141121331872196,0.5123966942148761,trial_list_0.5_green.csv,0.5166408999994019,0.5499536999996053,p10_bas1_01,001,2023-05-04_14h43.20.631,expectation_shapes_perceived_time,2022.2.4,119.99414428657029,
,-33,0.5,none,,green,red,,1390.6831104826028,,,,,0,13,13,429,trial,,,,,,green,1.3906831104826027,1.3801652892561984,2.299937499999942,0.9966304000008677,4e-05,4e-05,,1.391429600000265,1.4243954000012309,1.9997744000011153,,2.299937499999942,2.299937499999942,2.4997436000012385,2.7832908000000316,0.4833533000000898,6.066472300000896,3.7665348000009544,3.2831815000008646,1.70158,-0.11915764610176575,0.08748282878357486,,,,None,,-0.033,-0.03305785123966942,1.324353110482603,1.3140495867768596,trial_list_0.5_green.csv,1.324321800000689,1.357687600000645,p10_bas1_01,001,2023-05-04_14h43.20.631,expectation_shapes_perceived_time,2022.2.4,119.99414428657029,
,-167,0.5,none,,green,red,,1689.9147783477792,,,,,0,14,14,101,trial,,,,,,green,1.6899147783477793,1.677685950413223,2.2998814999991737,0.9977142999996431,3e-05,3e-05,0.03331,1.6916535000000295,1.724881500000265,1.999791300000652,2.0332044000006135,2.2998814999991737,2.2998814999991737,2.4999824999995326,2.850113799999235,0.5502323000000615,4.499355199999627,2.1994737000004534,1.6492414000003919,1.91466,-0.03915995390682907,0.1425422322208578,,,,None,,-0.167,-0.1652892561983471,1.4895847783477794,1.4793388429752066,trial_list_0.5_green.csv,1.4915390999994997,1.5249323999996705,p10_bas1_01,001,2023-05-04_14h43.20.631,expectation_shapes_perceived_time,2022.2.4,119.99414428657029,
,-233,0.5,none,,red,green,,1142.7095599533443,,,,,0,15,15,12,trial,,,,,,red,1.1427095599533443,1.1322314049586777,2.299776500000007,0.9984256999996433,4e-05,4e-05,0.03326,1.1413752000007662,1.174737900000764,1.9998878999995213,2.0331747000000178,2.299776500000007,2.299776500000007,2.499879900000451,3.349591700000019,1.0498152000000118,5.449591300000975,3.149814800000968,2.099999600000956,1.39441,-0.13976484683231913,-0.048141225020021036,,,,None,,-0.233,-0.23140495867768596,0.8763795599533443,0.8677685950413223,trial_list_0.5_green.csv,0.8747170000006008,0.9083121000003302,p10_bas1_01,001,2023-05-04_14h43.20.631,expectation_shapes_perceived_time,2022.2.4,119.99414428657029,
,-100,0.5,none,,green,red,,928.9518023943116,,,,,0,16,16,363,trial,,,,,,green,0.9289518023943116,0.9173553719008265,2.299274700000751,0.9968030999989423,4e-05,4e-05,0.03322,0.9250338000001648,0.9583891999991465,1.9997526000006474,2.0333597999997437,2.299274700000751,2.299274700000751,2.4992545999994036,2.6412380999991,0.3419633999983489,6.016412599999967,3.7171378999992157,3.375174500000867,0.39237,0.13945263097109403,0.04903828781401108,,,,None,,-0.1,-0.09917355371900827,0.7956218023943116,0.7851239669421488,trial_list_0.5_green.csv,0.7915455999991536,0.8247881999996025,p10_bas1_01,001,2023-05-04_14h43.20.631,expectation_shapes_perceived_time,2022.2.4,119.99414428657029,
,167,0.5,none,,red,green,,511.4995199538423,,,,,0,17,17,160,trial,,,,,,red,0.5114995199538424,0.5041322314049587,2.2997386999995797,0.9978880999988178,4e-05,4e-05,0.03332,0.5076129999997647,0.5409644000010303,1.9997636000007333,2.033216600000742,2.2997386999995797,2.2997386999995797,2.4998587999998563,2.9331541000010475,0.6334154000014678,5.024542400000428,2.724803700000848,2.0913882999993803,0.35999,0.13375347600709986,0.06294281223863522,,,,None,,0.167,0.1652892561983471,0.7118295199538424,0.7024793388429752,trial_list_0.5_green.csv,0.7079043000012462,0.741474600001311,p10_bas1_01,001,2023-05-04_14h43.20.631,expectation_shapes_perceived_time,2022.2.4,119.99414428657029,
,300,0.5,none,,green,red,,1532.2643521045532,,,,,0,18,18,229,trial,,,,,,green,1.5322643521045531,1.5206611570247934,2.299895500000275,0.9977102000011655,3e-05,3e-05,0.03321,1.5331647999992128,1.5666280000004917,1.999759999998787,2.033195699999851,2.299895500000275,2.299895500000275,2.5001609999999346,3.358009800000218,1.0581142999999429,5.216590799998812,2.916695299998537,1.858580999998594,1.71102,-0.11651272182948738,0.0909756869079559,,,,None,,0.3,0.2975206611570248,1.865594352104553,1.8512396694214877,trial_list_0.5_green.csv,1.8670437000000675,1.9003725000002305,p10_bas1_01,001,2023-05-04_14h43.20.631,expectation_shapes_perceived_time,2022.2.4,119.99414428657029,
,300,0.5,none,,green,red,,1326.4087629831088,,,,,0,19,19,351,trial,,,,,,green,1.3264087629831087,1.3140495867768596,2.2999274999983754,0.9965333999989525,3e-05,3e-05,0.03326,1.3251046999994287,1.3584682000000612,2.0000221999998757,2.0332074999987526,2.2999274999983754,2.2999274999983754,2.499933699999019,3.182713499998499,0.8827860000001237,4.474706799999694,2.174779300001319,1.2919933000011952,1.57471,-0.14377002501547942,0.034379788590658114,,,,None,,0.3,0.2975206611570248,1.6597387629831086,1.6446280991735538,trial_list_0.5_green.csv,1.6583394999997836,1.691864499998701,p10_bas1_01,001,2023-05-04_14h43.20.631,expectation_shapes_perceived_time,2022.2.4,119.99414428657029,
,233,0.5,none,,green,red,,1445.092356811824,,,,,0,20,20,275,trial,,,,,,green,1.445092356811824,1.4297520661157026,2.300227100000484,0.9973625000002357,3e-05,3e-05,,1.4417031000011775,1.4753264999999374,2.00025210000058,,2.300227100000484,2.300227100000484,2.499798400000145,3.058465400001296,0.7582383000008122,5.075540300000284,2.7753131999998004,2.0170748999989883,1.46,-0.1466581247581118,-0.018525236811550962,,,,None,,0.233,0.23140495867768596,1.7114223568118239,1.694214876033058,trial_list_0.5_green.csv,1.708753800001432,1.7420750000001135,p10_bas1_01,001,2023-05-04_14h43.20.631,expectation_shapes_perceived_time,2022.2.4,119.99414428657029,
,167,0.5,none,,green,red,,240.8348377812938,,,,,0,21,21,47,trial,,,,,,green,0.2408348377812938,0.2396694214876033,2.299985399999059,0.9962364999992133,4e-05,4e-05,0.03313,0.24136319999888656,0.274758199999269,1.9998230999990483,2.0331296999993356,2.299985399999059,2.299985399999059,2.4998969999996916,2.566470300000219,0.26648490000116,5.099518699998953,2.7995332999998936,2.5330483999987337,0.21371,0.0919573955272674,0.11573948057742278,,,,None,,0.167,0.1652892561983471,0.4411648377812938,0.4380165289256198,trial_list_0.5_green.csv,0.4417840000005526,0.4749596000001475,p10_bas1_01,001,2023-05-04_14h43.20.631,expectation_shapes_perceived_time,2022.2.4,119.99414428657029,
,100,0.5,none,,red,green,,955.8021080749032,,,,,0,22,22,188,trial,,,,,,red,0.9558021080749032,0.9504132231404959,2.300259300000107,0.9974805000001652,3e-05,3e-05,0.03332,0.9585919000001013,0.9916540000012901,2.0001757999998517,2.033550500000274,2.300259300000107,2.300259300000107,2.5003993999998784,3.1254215000008116,0.8251622000007046,5.491325200000574,3.191065900000467,2.3659036999997625,1.0,0.0,-0.14782350948509485,,,,None,,0.1,0.09917355371900827,1.089132108074903,1.0826446280991735,trial_list_0.5_green.csv,1.0917937000012898,1.1250347000004695,p10_bas1_01,001,2023-05-04_14h43.20.631,expectation_shapes_perceived_time,2022.2.4,119.99414428657029,
,233,0.5,none,,green,red,,906.0656965713644,,,,,0,23,23,475,trial,,,,,,green,0.9060656965713644,0.9008264462809917,2.299540199999683,0.9986172000008082,5e-05,5e-05,0.03308,0.9080587000007654,0.9413194999997359,1.999679999998989,2.0329681999992317,2.299540199999683,2.299540199999683,2.4995966000005865,2.7994887999993807,0.49994859999969776,6.041165799999362,3.7416255999996793,3.2416769999999815,1.17854,-0.07863459699828924,-0.12517344011972575,,,,None,,0.233,0.23140495867768596,1.1723956965713642,1.1652892561983472,trial_list_0.5_green.csv,1.1746299999995244,1.2080592999991495,p10_bas1_01,001,2023-05-04_14h43.20.631,expectation_shapes_perceived_time,2022.2.4,119.99414428657029,
,100,0.5,none,,green,red,,1050.420933161426,,,,,0,24,24,315,trial,,,,,,green,1.050420933161426,1.0413223140495869,2.2995164999992994,0.9970271000001958,7e-05,7e-05,0.03328,1.049772700000176,1.0832672999986244,1.9996744000000035,2.032869499998924,2.2995164999992994,2.2995164999992994,2.499765099999422,3.2994784000002255,0.9999619000009261,5.741546999999628,3.442030500000328,2.442068599999402,0.73044,0.11074993126211685,-0.09790935952158156,,,,None,,0.1,0.09917355371900827,1.183750933161426,1.1735537190082646,trial_list_0.5_green.csv,1.1830317999992985,1.2166643999989901,p10_bas1_01,001,2023-05-04_14h43.20.631,expectation_shapes_perceived_time,2022.2.4,119.99414428657029,
,33,0.5,none,,green,red,,285.4054765976165,0,0,0,0,0,25,25,231,fam,0.5565000000005966,0.5565000000005966,270.0,2.5562683999996807,2.5562683999996807,,,,,,,,,,,,,,,,,,,,,,,,,,,,,,,,,,,,p10_bas1_01,001,2023-05-04_14h43.20.631,expectation_shapes_perceived_time,2022.2.4,119.99414428657029,
,33,0.5,none,,green,red,,285.4054765976165,1,0,1,0,0,25,25,231,fam,0.498483599998508,0.498483599998508,270.0,2.498573499999111,2.498573499999111,,,,,,,,,,,,,,,,,,,,,,,,,,,,,,,,,,,,p10_bas1_01,001,2023-05-04_14h43.20.631,expectation_shapes_perceived_time,2022.2.4,119.99414428657029,
,33,0.5,none,,green,red,,285.4054765976165,2,0,2,0,0,25,25,231,fam,0.4988202000004094,0.4988202000004094,270.0,2.49865310000132,2.49865310000132,,,,,,,,,,,,,,,,,,,,,,,,,,,,,,,,,,,,p10_bas1_01,001,2023-05-04_14h43.20.631,expectation_shapes_perceived_time,2022.2.4,119.99414428657029,
,33,0.5,none,,green,red,,285.4054765976165,3,0,3,0,0,25,25,231,fam,0.49741890000041167,0.49741890000041167,270.0,2.4972783000011987,2.4972783000011987,,,,,,,,,,,,,,,,,,,,,,,,,,,,,,,,,,,,p10_bas1_01,001,2023-05-04_14h43.20.631,expectation_shapes_perceived_time,2022.2.4,119.99414428657029,
,33,0.5,none,,green,red,,285.4054765976165,,,,,0,25,25,231,trial,,,,,,green,0.2854054765976165,0.2809917355371901,2.2999753999993118,0.9980061000005662,4e-05,4e-05,0.03306,0.2830815999986953,0.3165912999993452,2.0000134999991133,2.033415599998989,2.2999753999993118,2.2999753999993118,2.4998087999993004,2.549958300000071,0.2499829000007594,5.65773789999912,3.357762499999808,3.1077795999990485,0.17815,0.07848192196752407,0.12526922160200957,,,,None,,0.033,0.03305785123966942,0.35173547659761645,0.34710743801652894,trial_list_0.5_green.csv,0.3498688999989099,0.3831336999992345,p10_bas1_01,001,2023-05-04_14h43.20.631,expectation_shapes_perceived_time,2022.2.4,119.99414428657029,
,-100,0.5,none,,red,green,,1225.046132263948,,,,,0,26,26,144,trial,,,,,,red,1.225046132263948,1.2148760330578512,2.299411100000725,0.9977584999996907,5e-05,5e-05,0.03298,1.2245049000011932,1.2579874000002746,1.9995785999999498,2.032860700001038,2.299411100000725,2.299411100000725,2.499671900000976,2.9244993000011164,0.6250882000003912,4.807711200000995,2.5083001000002696,1.8832118999998784,1.03958,-0.01833524976502908,-0.14668199812023264,,,,None,,-0.1,-0.09917355371900827,1.0917161322639481,1.0826446280991735,trial_list_0.5_green.csv,1.0910853000004863,1.1244868000012502,p10_bas1_01,001,2023-05-04_14h43.20.631,expectation_shapes_perceived_time,2022.2.4,119.99414428657029,
,-100,0.5,none,,green,red,,1217.2101743881813,,,,,0,27,27,49,trial,,,,,,green,1.2172101743881814,1.2066115702479339,2.2999409999993077,0.9968487000005553,4e-05,4e-05,,1.2166575000010198,1.2500942000006035,1.9998594999997295,,2.2999409999993077,2.2999409999993077,2.499931700000161,3.4410203999996156,1.141079400000308,5.791376400000445,3.491435400001137,2.3503560000008292,1.17317,-0.07651333268604153,-0.12648122341978293,,,,None,,-0.1,-0.09917355371900827,1.0838801743881814,1.0743801652892562,trial_list_0.5_green.csv,1.0832286000004387,1.1166448999993008,p10_bas1_01,001,2023-05-04_14h43.20.631,expectation_shapes_perceived_time,2022.2.4,119.99414428657029,
,-167,0.5,none,,green,red,,1432.0363267501416,,,,,0,28,28,7,trial,,,,,,green,1.4320363267501417,1.4214876033057853,2.3003750999996555,0.9965945999992982,4e-05,4e-05,,1.432981899999504,1.4664305999995122,2.000031300000046,2.033483100000012,2.3003750999996555,2.3003750999996555,2.5003839999990305,2.983426900000268,0.6830518000006123,5.224825100000089,2.9244500000004336,2.2413981999998214,1.70015,-0.11955020622893084,0.08694560453013153,,,,None,,-0.167,-0.1652892561983471,1.2317063267501416,1.2231404958677685,trial_list_0.5_green.csv,1.2334467000000586,1.266607199999271,p10_bas1_01,001,2023-05-04_14h43.20.631,expectation_shapes_perceived_time,2022.2.4,119.99414428657029,
,33,0.5,none,,red,green,,1707.4603680529945,,,,,0,29,29,404,trial,,,,,,red,1.7074603680529945,1.694214876033058,2.2998489000001427,0.9968723000001773,4e-05,4e-05,0.03334,1.7083301000002393,1.7417328999999881,2.000058000001445,2.0331528000006074,2.2998489000001427,2.2998489000001427,2.4998253000012483,3.0079515000015817,0.708102600001439,5.540897400000176,3.2410485000000335,2.5329458999985945,1.9141,-0.03940768616165046,0.1424739422767363,,,,None,,0.033,0.03305785123966942,1.7737903680529943,1.7603305785123968,trial_list_0.5_green.csv,1.7750129000014567,1.8080531000014162,p10_bas1_01,001,2023-05-04_14h43.20.631,expectation_shapes_perceived_time,2022.2.4,119.99414428657029,
,-300,0.5,none,,green,red,,1428.3933601702329,,,,,0,30,30,281,trial,,,,,,green,1.4283933601702328,1.4132231404958677,2.3001033999989886,0.998320300001069,3e-05,3e-05,0.03307,1.4253172999997332,1.4586101999993843,1.9998343999995996,,2.3001033999989886,2.3001033999989886,2.5000071999984357,3.0334977000002254,0.7333943000012368,6.566628900000069,4.26652550000108,3.5331311999998434,1.19664,-0.08562043099900397,-0.12050282881341301,,,,None,,-0.3,-0.2975206611570248,1.0950633601702329,1.0826446280991735,trial_list_0.5_green.csv,1.0918922999990173,1.1251327999998466,p10_bas1_01,001,2023-05-04_14h43.20.631,expectation_shapes_perceived_time,2022.2.4,119.99414428657029,
,33,0.5,none,,red,green,,1816.6014213071287,,,,,0,31,31,376,trial,,,,,,red,1.8166014213071286,1.8016528925619835,2.2998939999997674,0.9964789000005112,4e-05,4e-05,0.03353,1.816409000000931,1.8499523000009503,1.9999724999997852,2.033032400000593,2.2998939999997674,2.2998939999997674,2.499937599999612,3.408090299999458,1.1081962999996904,5.408141399999295,3.1082473999995273,2.000051099999837,1.92931,-0.03255973501771427,0.144193112221306,,,,None,,0.033,0.03305785123966942,1.8829314213071286,1.8677685950413223,trial_list_0.5_green.csv,1.8833494999998948,1.9165066999994451,p10_bas1_01,001,2023-05-04_14h43.20.631,expectation_shapes_perceived_time,2022.2.4,119.99414428657029,
,-33,0.5,none,,green,red,,1587.1614996487494,,,,,0,32,32,347,trial,,,,,,green,1.5871614996487495,1.5702479338842976,2.300661699999182,0.9969399000001431,4e-05,4e-05,0.03329,1.5838096999996196,1.6172905999992508,2.0004675000000134,2.0338667999985773,2.300661699999182,2.300661699999182,2.500513499999215,3.883869599998434,1.5832078999992518,6.642027699999744,4.341366000000562,2.7581581000013102,1.83727,-0.0723227960375511,0.12892324511041717,,,,None,,-0.033,-0.03305785123966942,1.5208314996487495,1.5041322314049588,trial_list_0.5_green.csv,1.5173569999988104,1.5507961999992403,p10_bas1_01,001,2023-05-04_14h43.20.631,expectation_shapes_perceived_time,2022.2.4,119.99414428657029,
,33,0.5,none,,red,green,,776.7355247420822,,,,,0,33,33,486,trial,,,,,,red,0.7767355247420823,0.768595041322314,2.2994624999992084,0.9967718999996578,4e-05,4e-05,0.03327,0.7749865000005229,0.8082407000001695,1.999991399999999,2.0332517999995616,2.2994624999992084,2.2994624999992084,2.4997179999991204,2.841474400000152,0.5420119000009436,4.649808599999233,2.3503461000000243,1.8083341999990807,0.21315,0.09175448758384883,0.1159004053690722,,,,None,,0.033,0.03305785123966942,0.8430655247420823,0.8347107438016529,trial_list_0.5_green.csv,0.8416293999998743,0.874763100000564,p10_bas1_01,001,2023-05-04_14h43.20.631,expectation_shapes_perceived_time,2022.2.4,119.99414428657029,
,-300,0.5,none,,green,red,,1510.1786484974289,,,,,0,34,34,397,trial,,,,,,green,1.5101786484974289,1.4958677685950414,2.2997472999995807,0.9976899999983289,4e-05,4e-05,0.03311,1.5077892000008433,1.5409146000001783,1.9996260000007169,2.033248100000492,2.2997472999995807,2.2997472999995807,2.4997803999995085,2.97466600000007,0.6749187000004895,6.8580997999997635,4.558352500000183,3.8834337999996933,1.11926,-0.054099836738075224,-0.13756815627681984,,,,None,,-0.3,-0.2975206611570248,1.176848648497429,1.1652892561983472,trial_list_0.5_green.csv,1.174688500001139,1.2081288999997923,p10_bas1_01,001,2023-05-04_14h43.20.631,expectation_shapes_perceived_time,2022.2.4,119.99414428657029,
,167,0.5,none,,red,green,,1571.706662699831,,,,,0,35,35,352,trial,,,,,,red,1.571706662699831,1.5619834710743803,2.2999159999999392,0.9964572000008047,4e-05,4e-05,0.03323,1.5748679999996966,1.6085105000001931,1.9999358000004577,2.0334516000002623,2.2999159999999392,2.2999159999999392,2.4998759999998583,3.874318399999538,1.5744023999995989,6.625082399999883,4.325166399999944,2.750764000000345,1.54807,-0.14614110607861547,0.022238863968484963,,,,None,,0.167,0.1652892561983471,1.772036662699831,1.7603305785123968,trial_list_0.5_green.csv,1.7749273000008543,1.8083086000006006,p10_bas1_01,001,2023-05-04_14h43.20.631,expectation_shapes_perceived_time,2022.2.4,119.99414428657029,
,33,0.5,none,,red,green,,413.2964490247975,,,,,0,36,36,68,trial,,,,,,red,0.4132964490247975,0.4132231404958678,2.3003011000000697,0.9961347999997088,3e-05,3e-05,,0.41669700000056764,0.4503543000009813,2.0003750000014406,,2.3003011000000697,2.3003011000000697,2.5002121000015904,2.9911959000000934,0.6908948000000237,6.882963400001245,4.582662300001175,3.8917675000011513,0.29859,0.11920561655370376,0.08741745213938275,,,,None,,0.033,0.03305785123966942,0.47962644902479745,0.4793388429752066,trial_list_0.5_green.csv,0.48358330000155547,0.516807100000733,p10_bas1_01,001,2023-05-04_14h43.20.631,expectation_shapes_perceived_time,2022.2.4,119.99414428657029,
,-100,0.5,none,,green,red,,963.3233824561,,,,,0,37,37,265,trial,,,,,,green,0.9633233824561,0.9586776859504132,2.3002493000003597,0.9979019999991579,5e-05,5e-05,0.03336,0.9668847000011738,0.9999649000001227,2.000199400001293,2.0335367000006954,2.3002493000003597,2.3002493000003597,2.5002598999999464,2.968065300001399,0.6678160000010394,6.283675599999697,3.983426299999337,3.3156102999982977,0.58534,0.1425422322208578,-0.03915995390682907,,,,None,,-0.1,-0.09917355371900827,0.8299933824561,0.8264462809917356,trial_list_0.5_green.csv,0.8332599000004848,0.8664434000002075,p10_bas1_01,001,2023-05-04_14h43.20.631,expectation_shapes_perceived_time,2022.2.4,119.99414428657029,
,-33,0.5,none,,red,green,,184.4845094326936,,,,,0,38,38,474,trial,,,,,,red,0.18448450943269362,0.18181818181818182,2.300081699999282,0.9965178000002197,4e-05,4e-05,0.03343,0.18344759999854432,0.21660939999856055,2.000144599998748,2.033476900000096,2.300081699999282,2.300081699999282,2.49998129999949,2.783196599999428,0.483114900000146,4.78317689999858,2.4830951999992976,1.9999802999991516,0.14161,0.06361451166344552,0.13343531714771498,,,,None,,-0.033,-0.03305785123966942,0.11815450943269362,0.11570247933884298,trial_list_0.5_green.csv,0.1165923999997176,0.15004189999854134,p10_bas1_01,001,2023-05-04_14h43.20.631,expectation_shapes_perceived_time,2022.2.4,119.99414428657029,
,100,0.5,none,,green,red,,985.5193414133902,,,,,0,39,39,285,trial,,,,,,green,0.9855193414133901,0.975206611570248,2.3003497999998217,0.9974569999994856,4e-05,4e-05,,0.9837432000003901,1.0169261999999435,2.000502900000356,,2.3003497999998217,2.3003497999998217,2.500338300000294,2.8749590999996144,0.5746092999997927,7.950142100000448,5.649792300000627,5.075183000000834,1.11219,-0.05102947274822113,-0.1387363790342262,,,,None,,0.1,0.09917355371900827,1.11884934141339,1.1074380165289257,trial_list_0.5_green.csv,1.1169718000001012,1.1501650999998674,p10_bas1_01,001,2023-05-04_14h43.20.631,expectation_shapes_perceived_time,2022.2.4,119.99414428657029,
,167,0.5,none,,green,red,,393.34261111828096,,,,,0,40,40,295,trial,,,,,,green,0.39334261111828095,0.38842975206611574,2.3001573999990796,0.9965179999999236,4e-05,4e-05,,0.39166259999910835,0.4251260999990336,2.00019919999977,2.033215299999938,2.3001573999990796,2.3001573999990796,2.50015379999968,2.758270700000139,0.45811330000105954,4.133276799999294,1.8331194000002142,1.3750060999991547,0.10874,0.04952230478416862,0.13928148220547426,,,,None,,0.167,0.1652892561983471,0.593672611118281,0.5867768595041323,trial_list_0.5_green.csv,0.5917303999995056,0.6249972999994498,p10_bas1_01,001,2023-05-04_14h43.20.631,expectation_shapes_perceived_time,2022.2.4,119.99414428657029,
,233,0.5,none,,red,green,,1516.5922561357152,,,,,0,41,41,210,trial,,,,,,red,1.5165922561357152,1.5041322314049588,2.299615799998719,0.9959745000014664,4e-05,4e-05,0.03315,1.5165973999992275,1.5496839999996155,1.9996510999990278,2.033239799999137,2.299615799998719,2.299615799998719,2.4995883999999933,3.0744761999994807,0.7748604000007617,5.82440619999943,3.524790400000711,2.7499299999999494,1.75964,-0.10131301508411346,0.10764507852687052,,,,None,,0.233,0.23140495867768596,1.782922256135715,1.7685950413223142,trial_list_0.5_green.csv,1.7830288000004657,1.8165169000003516,p10_bas1_01,001,2023-05-04_14h43.20.631,expectation_shapes_perceived_time,2022.2.4,119.99414428657029,
,233,0.5,none,,green,red,,1521.5622348894444,,,,,0,42,42,375,trial,,,,,,green,1.5215622348894444,1.512396694214876,2.3002129000014975,0.9977039000004879,4e-05,4e-05,0.03327,1.525118499999735,1.5584101000004011,2.0001650000012887,2.0333802000004653,2.3002129000014975,2.3002129000014975,2.5001162999997177,3.149862400001439,0.8496494999999413,8.075015500000518,5.7748025999990205,4.925153099999079,1.15215,-0.06799953518410289,-0.13125491675071024,,,,None,,0.233,0.23140495867768596,1.7878922348894444,1.7768595041322315,trial_list_0.5_green.csv,1.7916430000004766,1.8249759000009362,p10_bas1_01,001,2023-05-04_14h43.20.631,expectation_shapes_perceived_time,2022.2.4,119.99414428657029,
,-33,0.5,none,,red,green,,814.6585984470663,,,,,0,43,43,204,trial,,,,,,red,0.8146585984470663,0.8099173553719008,2.3000237999985984,0.997476700000334,3e-05,3e-05,0.03343,0.8170439999994414,0.8501677999993262,1.9997853999993822,2.03307759999916,2.3000237999985984,2.3000237999985984,2.4999885999986873,2.916553799999747,0.6165300000011484,6.175098199999411,3.8750744000008126,3.258544399999664,0.17493,0.07721000457777874,0.12605715033106735,,,,None,,-0.033,-0.03305785123966942,0.7483285984470662,0.743801652892562,trial_list_0.5_green.csv,0.750126499999169,0.7834968999995908,p10_bas1_01,001,2023-05-04_14h43.20.631,expectation_shapes_perceived_time,2022.2.4,119.99414428657029,
,-300,0.5,none,,green,red,,660.5375159085012,,,,,0,44,44,113,trial,,,,,,green,0.6605375159085012,0.6528925619834711,2.2999436000009155,0.9962107000010292,4e-05,4e-05,0.03351,0.6583508000003349,0.6917592000008881,2.0000362999999197,2.0332985000004555,2.2999436000009155,2.2999436000009155,2.500237800000832,2.8081584999999905,0.508214899999075,5.7001613000011275,3.400217700000212,2.892002800001137,0.50663,0.1477914401692852,-0.003078988336860108,,,,None,,-0.3,-0.2975206611570248,0.32720751590850117,0.3223140495867769,trial_list_0.5_green.csv,0.32530770000084885,0.3583995999997569,p10_bas1_01,001,2023-05-04_14h43.20.631,expectation_shapes_perceived_time,2022.2.4,119.99414428657029,
,-167,0.5,none,,green,red,,896.5398744401234,,,,,0,45,45,13,trial,,,,,,green,0.8965398744401234,0.8925619834710744,2.2999784000003274,0.9965380999983608,5e-05,5e-05,0.03326,0.8997574000004533,0.9331803000004584,1.9997818000010739,2.033291100000497,2.2999784000003274,2.2999784000003274,2.4998183000006975,3.099634000000151,0.7996555999998236,6.041387700000996,3.7414093000006687,2.941753700000845,0.39758,0.1402376945077212,0.046745898169240394,,,,None,,-0.167,-0.1652892561983471,0.6962098744401234,0.6942148760330579,trial_list_0.5_green.csv,0.6997955000006186,0.7330283999999665,p10_bas1_01,001,2023-05-04_14h43.20.631,expectation_shapes_perceived_time,2022.2.4,119.99414428657029,
,300,0.5,none,,red,green,,509.6472819001077,,,,,0,46,46,354,trial,,,,,,red,0.5096472819001077,0.5041322314049587,2.3001867000002676,0.9974927000002936,3e-05,3e-05,,0.5083016999997199,0.5417956000001141,2.0001921000002767,,2.3001867000002676,2.3001867000002676,2.5002243999988423,2.7836219999990135,0.4834352999987459,4.616704799998843,2.316518099998575,1.8330827999998291,0.27667,0.11290673656597998,0.09541414357688448,,,,None,,0.3,0.2975206611570248,0.8429772819001078,0.8347107438016529,trial_list_0.5_green.csv,0.8416717000000062,0.8750548999996681,p10_bas1_01,001,2023-05-04_14h43.20.631,expectation_shapes_perceived_time,2022.2.4,119.99414428657029,
,300,0.5,none,,green,red,,1256.696040594115,,,,,0,47,47,155,trial,,,,,,green,1.256696040594115,1.2479338842975207,2.3000305999994453,0.9977254000004905,3e-05,3e-05,0.03331,1.2588063000002876,1.2916050000003452,2.000081500000306,2.0335020999991684,2.3000305999994453,2.3000305999994453,2.500007699998605,2.616630399999849,0.3165998000004038,4.799924699998883,2.4998940999994375,2.1832942999990337,1.01368,-0.006352127643370625,-0.14768696770836706,,,,None,,0.3,0.2975206611570248,1.590026040594115,1.578512396694215,trial_list_0.5_green.csv,1.592023799999879,1.6254055999997945,p10_bas1_01,001,2023-05-04_14h43.20.631,expectation_shapes_perceived_time,2022.2.4,119.99414428657029,
,-233,0.5,none,,green,red,,449.3964330027617,,,,,0,48,48,483,trial,,,,,,green,0.44939643300276166,0.4462809917355372,2.3001042000014422,0.9964753000003839,4e-05,4e-05,0.03349,0.44992960000126914,0.4832222000004549,1.999985000000379,2.0333908000011434,2.3001042000014422,2.3001042000014422,2.500175600000148,2.8661146000013105,0.5660103999998682,5.349767900001098,3.0496636999996554,2.483653299999787,0.15655,0.06980542645203792,0.13030346271047077,,,,None,,-0.233,-0.23140495867768596,0.1830664330027617,0.18181818181818182,trial_list_0.5_green.csv,0.18354620000172872,0.21669950000068638,p10_bas1_01,001,2023-05-04_14h43.20.631,expectation_shapes_perceived_time,2022.2.4,119.99414428657029,
,-100,0.5,none,,red,green,,830.9287844270194,,,,,0,49,49,398,trial,,,,,,red,0.8309287844270195,0.8264462809917356,2.299528800000189,0.9970069999999396,4e-05,4e-05,0.03305,0.8332883000002766,0.8664429000000382,1.9997120999996696,2.0329280999994808,2.299528800000189,2.299528800000189,2.4996899999987363,2.6744810000000143,0.3749521999998251,5.132660600000236,2.8331318000000465,2.4581796000002214,0.33859,0.1292209963982168,0.07178944244345378,,,,None,,-0.1,-0.09917355371900827,0.6975987844270194,0.6942148760330579,trial_list_0.5_green.csv,0.6996308999987377,0.7331881999998586,p10_bas1_01,001,2023-05-04_14h43.20.631,expectation_shapes_perceived_time,2022.2.4,119.99414428657029,
,-300,0.5,none,,red,green,,1500.7233529740745,0,0,0,0,0,50,50,152,fam,0.5564187999989372,0.5564187999989372,270.0,2.556225500000437,2.556225500000437,,,,,,,,,,,,,,,,,,,,,,,,,,,,,,,,,,,,p10_bas1_01,001,2023-05-04_14h43.20.631,expectation_shapes_perceived_time,2022.2.4,119.99414428657029,
,-300,0.5,none,,red,green,,1500.7233529740745,1,0,1,0,0,50,50,152,fam,0.4972628000014083,0.4972628000014083,270.0,2.4974154999999882,2.4974154999999882,,,,,,,,,,,,,,,,,,,,,,,,,,,,,,,,,,,,p10_bas1_01,001,2023-05-04_14h43.20.631,expectation_shapes_perceived_time,2022.2.4,119.99414428657029,
,-300,0.5,none,,red,green,,1500.7233529740745,2,0,2,0,0,50,50,152,fam,0.49749309999970137,0.49749309999970137,270.0,2.4970837000000756,2.4970837000000756,,,,,,,,,,,,,,,,,,,,,,,,,,,,,,,,,,,,p10_bas1_01,001,2023-05-04_14h43.20.631,expectation_shapes_perceived_time,2022.2.4,119.99414428657029,
,-300,0.5,none,,red,green,,1500.7233529740745,3,0,3,0,0,50,50,152,fam,0.49756080000042857,0.49756080000042857,270.0,2.4975728999997955,2.4975728999997955,,,,,,,,,,,,,,,,,,,,,,,,,,,,,,,,,,,,p10_bas1_01,001,2023-05-04_14h43.20.631,expectation_shapes_perceived_time,2022.2.4,119.99414428657029,
,-300,0.5,none,,red,green,,1500.7233529740745,,,,,0,50,50,152,trial,,,,,,red,1.5007233529740744,1.487603305785124,2.3000131999997393,0.998483600000327,4e-05,4e-05,0.03353,1.5000035000011849,1.5336559999996098,2.0000027000005502,2.0334892999999283,2.3000131999997393,2.3000131999997393,2.5002509000005375,2.916135999999824,0.6161228000000847,6.349934800000483,4.049921600000744,3.433798800000659,1.1644,-0.072998937940284,-0.12854160811223922,,,,None,,-0.3,-0.2975206611570248,1.1673933529740745,1.15702479338843,trial_list_0.5_green.csv,1.1666586999999708,1.2000828000000183,p10_bas1_01,001,2023-05-04_14h43.20.631,expectation_shapes_perceived_time,2022.2.4,119.99414428657029,
,-300,0.5,none,,red,green,,1678.3482816309345,,,,,0,51,51,408,trial,,,,,,red,1.6783482816309345,1.6611570247933884,2.2998759999991307,0.9976154000014503,4e-05,4e-05,0.03329,1.6748174000003928,1.7083335999996052,1.9999064999992697,2.033430999999837,2.2998759999991307,2.2998759999991307,2.5000992999994196,2.858185200000662,0.5583092000015313,5.883174499998859,3.583298499999728,3.0249892999981967,1.83796,-0.07204417606669641,0.12907914878616442,,,,None,,-0.3,-0.2975206611570248,1.3450182816309346,1.3305785123966942,trial_list_0.5_green.csv,1.341488500000196,1.3746480999998312,p10_bas1_01,001,2023-05-04_14h43.20.631,expectation_shapes_perceived_time,2022.2.4,119.99414428657029,
,33,0.5,none,,green,red,,823.3332566219631,,,,,0,52,52,441,trial,,,,,,green,0.8233332566219631,0.8181818181818182,2.299714299999323,0.9968671000005997,4e-05,4e-05,,0.8248688999992737,0.858020799998485,1.9998105999984546,,2.299714299999323,2.299714299999323,2.499762899999041,3.033011199999237,0.7332968999999139,5.541110899999694,3.241396600000371,2.5080997000004572,0.81093,0.08273056338896173,-0.12250487271057794,,,,None,,0.033,0.03305785123966942,0.8896632566219631,0.8842975206611571,trial_list_0.5_green.csv,0.8913038999999117,0.924915300000066,p10_bas1_01,001,2023-05-04_14h43.20.631,expectation_shapes_perceived_time,2022.2.4,119.99414428657029,
,167,0.5,none,,red,green,,1357.195851898509,,,,,0,53,53,298,trial,,,,,,red,1.357195851898509,1.3471074380165289,2.2998819000004005,0.9967957999997452,4e-05,4e-05,,1.3581921000004513,1.3916417000000365,1.999397300000055,,2.2998819000004005,2.2998819000004005,2.4999281000000337,2.791452700001173,0.4915708000007726,7.9997826000017085,5.699900700001308,5.208329900000535,1.50346,-0.14781477777360813,0.0016066823671044364,,,,None,,0.167,0.1652892561983471,1.5575258518985091,1.5454545454545454,trial_list_0.5_green.csv,1.5587083000009443,1.5915043000004516,p10_bas1_01,001,2023-05-04_14h43.20.631,expectation_shapes_perceived_time,2022.2.4,119.99414428657029,
,33,0.5,none,,red,green,,692.1415492223977,,,,,0,54,54,276,trial,,,,,,red,0.6921415492223977,0.6859504132231405,2.299617300001046,0.9980821000008291,5e-05,5e-05,,0.691094100000555,0.7245213000005606,1.9997346000000107,,2.299617300001046,2.299617300001046,2.4997831000000588,2.4495502000008855,0.14993289999983972,4.424740300000849,2.125122999999803,1.9751900999999634,0.18998,0.08307975977713303,0.12226832570974296,,,,None,,0.033,0.03305785123966942,0.7584715492223977,0.7520661157024794,trial_list_0.5_green.csv,0.757973600000696,0.7910881000007066,p10_bas1_01,001,2023-05-04_14h43.20.631,expectation_shapes_perceived_time,2022.2.4,119.99414428657029,
,233,0.5,none,,green,red,,736.0407985418567,,,,,0,55,55,399,trial,,,,,,green,0.7360407985418567,0.7272727272727273,2.29985360000137,0.9958639000014955,3e-05,3e-05,0.03318,0.7331084000015835,0.7666149000015139,1.9997841000003973,2.033406600001399,2.29985360000137,2.29985360000137,2.4994550999999774,2.7326701000001776,0.43281649999880756,4.9331226000012975,2.6332689999999275,2.20045250000112,0.85388,0.06549869108319002,-0.1325206075404077,,,,None,,0.233,0.23140495867768596,1.0023707985418568,0.9917355371900827,trial_list_0.5_green.csv,1.0000402000005124,1.033311400000457,p10_bas1_01,001,2023-05-04_14h43.20.631,expectation_shapes_perceived_time,2022.2.4,119.99414428657029,
,-233,0.5,none,,green,red,,1436.9709440340184,,,,,0,56,56,287,trial,,,,,,green,1.4369709440340184,1.4214876033057853,2.300267399999939,0.9972130999994988,5e-05,5e-05,,1.433439600001293,1.4669955000008486,2.0001810000012483,,2.300267399999939,2.300267399999939,2.500335600001563,3.0419127000004664,0.7416453000005276,5.0588181000002805,2.7585507000003417,2.016905399999814,1.07798,-0.035852467268031776,-0.1434098690721271,,,,None,,-0.233,-0.23140495867768596,1.1706409440340184,1.15702479338843,trial_list_0.5_green.csv,1.1669482000015705,1.2004639000006136,p10_bas1_01,001,2023-05-04_14h43.20.631,expectation_shapes_perceived_time,2022.2.4,119.99414428657029,
,233,0.5,none,,red,green,,1082.6655444746757,,,,,0,57,57,46,trial,,,,,,red,1.0826655444746758,1.0743801652892562,2.3000370999998268,0.9961027999997896,4e-05,4e-05,0.03357,1.083516900000177,1.1165971999998874,2.0002991999990627,2.0334356000003027,2.3000370999998268,2.3000370999998268,2.5000705999991624,2.7165678000001208,0.416530700000294,5.183254399998987,2.88321729999916,2.466686599998866,1.4933,-0.14779076169792182,-0.0031113844567983544,,,,None,,0.233,0.23140495867768596,1.3489955444746757,1.3388429752066116,trial_list_0.5_green.csv,1.3502972999995109,1.383377099999052,p10_bas1_01,001,2023-05-04_14h43.20.631,expectation_shapes_perceived_time,2022.2.4,119.99414428657029,
,300,0.5,none,,green,red,,944.8804001849516,,,,,0,58,58,163,trial,,,,,,green,0.9448804001849516,0.9338842975206612,2.299858700000186,0.9977326000007452,4e-05,4e-05,,0.9415733000005275,0.9748042999999598,1.9998150000010355,,2.299858700000186,2.299858700000186,2.49984349999977,2.8915925000001153,0.591733799999929,6.108077599999888,3.8082188999997015,3.2164850999997725,1.03484,-0.016147139167266657,-0.1469389664221266,,,,None,,0.3,0.2975206611570248,1.2782104001849517,1.2644628099173554,trial_list_0.5_green.csv,1.2748518000007607,1.3083524000012403,p10_bas1_01,001,2023-05-04_14h43.20.631,expectation_shapes_perceived_time,2022.2.4,119.99414428657029,
,-300,0.5,none,,red,green,,1832.676134119209,,,,,0,59,59,222,trial,,,,,,red,1.832676134119209,1.8181818181818183,2.299591599999985,0.9978733999996621,4e-05,4e-05,,1.8334644999995362,1.8669786999998905,1.9999480999995285,,2.299591599999985,2.299591599999985,2.499667899999622,2.8166904999998224,0.5170988999998372,4.683021200000439,2.3834296000004542,1.866330700000617,1.78783,-0.09139694877026074,0.11618256199609414,,,,None,,-0.3,-0.2975206611570248,1.4993461341192091,1.487603305785124,trial_list_0.5_green.csv,1.5000915000000532,1.5334050000001298,p10_bas1_01,001,2023-05-04_14h43.20.631,expectation_shapes_perceived_time,2022.2.4,119.99414428657029,
