id,delay,expectation,congruency,trial_num,stim_color,distractor_color,block,targetTimeMs,famLoop.thisRepN,famLoop.thisTrialN,famLoop.thisN,famLoop.thisIndex,trialss.thisRepN,trialss.thisTrialN,trialss.thisN,trialss.thisIndex,isTrial,handMove.started,audioCue2Start.started,handOri,handMove.ended,audioCue2End.started,target_color,expected_target_onset,expected_target_onset_in_frames,fixationPoint.started,fixationPoint.stopped,audCueStart.started,placeholder.started,audCueStart.stopped,target.started,target.stopped,audCueEnd.started,audCueEnd.stopped,responsePointer.started,cueForRep.started,space2pass.started,responseStarted,rtUntillMotionTreshold,responsePointer.stopped,rTAfterMotionTreshold,rtDurationBtwRespMotion,perceivedTime,resp_x_coord,resp_y_coord,feedbackPointer.stopped,actualTime_x_coord,actualTime_y_coord,space2pass.keys,space2pass.rt,expected_delay,expected_delays_frame,expected_distractor,expected_distractor_frame,expBlockFiles,distractor.started,distractor.stopped,participant,session,date,expName,psychopyVersion,frameRate,
,,,,,,,,,0,0,0,0,,,,,fam,0.6733808999997564,0.6733808999997564,270.0000000000009,2.66518690000521,2.66518690000521,,,,,,,,,,,,,,,,,,,,,,,,,,,,,,,,,,,,p11_high1_01,001,2023-05-05_14h39.07.119,expectation_shapes_perceived_time,2022.2.4,119.7332343437205,
,,,,,,,,,1,0,1,0,,,,,fam,0.49880230000417214,0.49880230000417214,270.0000000000009,2.491829600010533,2.491829600010533,,,,,,,,,,,,,,,,,,,,,,,,,,,,,,,,,,,,p11_high1_01,001,2023-05-05_14h39.07.119,expectation_shapes_perceived_time,2022.2.4,119.7332343437205,
,,,,,,,,,2,0,2,0,,,,,fam,0.49801100000331644,0.49801100000331644,270.0000000000009,2.489975599994068,2.489975599994068,,,,,,,,,,,,,,,,,,,,,,,,,,,,,,,,,,,,p11_high1_01,001,2023-05-05_14h39.07.119,expectation_shapes_perceived_time,2022.2.4,119.7332343437205,
,,,,,,,,,3,0,3,0,,,,,fam,0.49842449999414384,0.49842449999414384,270.0000000000009,2.4902826999896206,2.4902826999896206,,,,,,,,,,,,,,,,,,,,,,,,,,,,,,,,,,,,p11_high1_01,001,2023-05-05_14h39.07.119,expectation_shapes_perceived_time,2022.2.4,119.7332343437205,
,,,,,,,,,4,0,4,0,,,,,fam,0.4987235000007786,0.4987235000007786,270.0000000000009,2.490124100004323,2.490124100004323,,,,,,,,,,,,,,,,,,,,,,,,,,,,,,,,,,,,p11_high1_01,001,2023-05-05_14h39.07.119,expectation_shapes_perceived_time,2022.2.4,119.7332343437205,
,,,,,,,,,5,0,5,0,,,,,fam,0.4983894000033615,0.4983894000033615,270.0000000000009,2.490015500006848,2.490015500006848,,,,,,,,,,,,,,,,,,,,,,,,,,,,,,,,,,,,p11_high1_01,001,2023-05-05_14h39.07.119,expectation_shapes_perceived_time,2022.2.4,119.7332343437205,
,,,,,,,,,6,0,6,0,,,,,fam,0.4988171000004513,0.4988171000004513,270.0000000000009,2.490069699997548,2.490069699997548,,,,,,,,,,,,,,,,,,,,,,,,,,,,,,,,,,,,p11_high1_01,001,2023-05-05_14h39.07.119,expectation_shapes_perceived_time,2022.2.4,119.7332343437205,
,,,,,,,,,7,0,7,0,,,,,fam,0.49831859998812433,0.49831859998812433,270.0000000000009,2.490031799999997,2.490031799999997,,,,,,,,,,,,,,,,,,,,,,,,,,,,,,,,,,,,p11_high1_01,001,2023-05-05_14h39.07.119,expectation_shapes_perceived_time,2022.2.4,119.7332343437205,
,,,,,,,,,8,0,8,0,,,,,fam,0.49843519998830743,0.49843519998830743,270.0000000000009,2.4901887999876635,2.4901887999876635,,,,,,,,,,,,,,,,,,,,,,,,,,,,,,,,,,,,p11_high1_01,001,2023-05-05_14h39.07.119,expectation_shapes_perceived_time,2022.2.4,119.7332343437205,
,,,,,,,,,9,0,9,0,,,,,fam,0.4987492999935057,0.4987492999935057,270.0000000000009,2.4900613999925554,2.4900613999925554,,,,,,,,,,,,,,,,,,,,,,,,,,,,,,,,,,,,p11_high1_01,001,2023-05-05_14h39.07.119,expectation_shapes_perceived_time,2022.2.4,119.7332343437205,
,,,,,,,,,10,0,10,0,,,,,fam,0.49851370000396855,0.49851370000396855,270.0000000000009,2.4902967999951215,2.4902967999951215,,,,,,,,,,,,,,,,,,,,,,,,,,,,,,,,,,,,p11_high1_01,001,2023-05-05_14h39.07.119,expectation_shapes_perceived_time,2022.2.4,119.7332343437205,
,,,,,,,,,11,0,11,0,,,,,fam,0.49895310000283644,0.49895310000283644,270.0000000000009,2.4905842000007397,2.4905842000007397,,,,,,,,,,,,,,,,,,,,,,,,,,,,,,,,,,,,p11_high1_01,001,2023-05-05_14h39.07.119,expectation_shapes_perceived_time,2022.2.4,119.7332343437205,
,,,,,,,,,12,0,12,0,,,,,fam,0.4990823999978602,0.4990823999978602,270.0000000000009,2.490742900001351,2.490742900001351,,,,,,,,,,,,,,,,,,,,,,,,,,,,,,,,,,,,p11_high1_01,001,2023-05-05_14h39.07.119,expectation_shapes_perceived_time,2022.2.4,119.7332343437205,
,,,,,,,,,13,0,13,0,,,,,fam,0.49859339999966323,0.49859339999966323,270.0000000000009,2.4903026999963913,2.4903026999963913,,,,,,,,,,,,,,,,,,,,,,,,,,,,,,,,,,,,p11_high1_01,001,2023-05-05_14h39.07.119,expectation_shapes_perceived_time,2022.2.4,119.7332343437205,
,,,,,,,,,14,0,14,0,,,,,fam,0.4983382999926107,0.4983382999926107,270.0000000000009,2.4901211999967927,2.4901211999967927,,,,,,,,,,,,,,,,,,,,,,,,,,,,,,,,,,,,p11_high1_01,001,2023-05-05_14h39.07.119,expectation_shapes_perceived_time,2022.2.4,119.7332343437205,
,,,,,,,,,15,0,15,0,,,,,fam,0.49899120000191033,0.49899120000191033,270.0000000000009,2.490270499998587,2.490270499998587,,,,,,,,,,,,,,,,,,,,,,,,,,,,,,,,,,,,p11_high1_01,001,2023-05-05_14h39.07.119,expectation_shapes_perceived_time,2022.2.4,119.7332343437205,
,,,,,,,,,16,0,16,0,,,,,fam,0.4984219999896595,0.4984219999896595,270.0000000000009,2.490341199998511,2.490341199998511,,,,,,,,,,,,,,,,,,,,,,,,,,,,,,,,,,,,p11_high1_01,001,2023-05-05_14h39.07.119,expectation_shapes_perceived_time,2022.2.4,119.7332343437205,
,,,,,,,,,17,0,17,0,,,,,fam,0.49907059999532066,0.49907059999532066,270.0000000000009,2.490771800003131,2.490771800003131,,,,,,,,,,,,,,,,,,,,,,,,,,,,,,,,,,,,p11_high1_01,001,2023-05-05_14h39.07.119,expectation_shapes_perceived_time,2022.2.4,119.7332343437205,
,,,,,,,,,18,0,18,0,,,,,fam,0.4982348999910755,0.4982348999910755,270.0000000000009,2.490017199990689,2.490017199990689,,,,,,,,,,,,,,,,,,,,,,,,,,,,,,,,,,,,p11_high1_01,001,2023-05-05_14h39.07.119,expectation_shapes_perceived_time,2022.2.4,119.7332343437205,
,,,,,,,,,19,0,19,0,,,,,fam,0.4988037000002805,0.4988037000002805,270.0000000000009,2.49072879999585,2.49072879999585,,,,,,,,,,,,,,,,,,,,,,,,,,,,,,,,,,,,p11_high1_01,001,2023-05-05_14h39.07.119,expectation_shapes_perceived_time,2022.2.4,119.7332343437205,
,,,,,,,,,,,,,0,0,0,0,test,,,,,,green,0.7669088622845889,0.7666666666666666,2.291529800000717,0.9908162000065204,2.379999205004424e-05,2e-05,0.033315199994831346,0.7665841999987606,0.8000069999980042,2.0000941999896895,2.033235399998375,2.291529800000717,2.291529800000717,2.5915142000012565,35.62494650000008,33.33341669999936,43.991856599997845,41.70032679999713,8.366910099997767,0.02593,0.012027217776383787,0.14733341776070139,43.991856599997845,0.09882961999280457,-0.109929505450392,space,41.399356100009754,,,,,,,,p11_high1_01,001,2023-05-05_14h39.07.119,expectation_shapes_perceived_time,2022.2.4,119.7332343437205,
,,,,,,,,,,,,,1,0,1,0,test,,,,,,red,1.845356352446942,1.8416666666666666,2.2916531000082614,0.9980787999957101,2.6400011847727e-05,3e-05,0.0334761999984039,1.8416761000116821,1.8749058000103105,1.9999109000054887,2.0332840000046417,2.2916531000082614,2.2916531000082614,2.591646100001526,4.208105400000932,1.9164522999926703,11.900302699999884,9.608649599991622,7.692197299998952,1.77252,-0.09687662730386479,0.11165441790953907,11.900302699999884,-0.06902472918509656,0.13071869306803063,space,9.30450360001123,,,,,,,,p11_high1_01,001,2023-05-05_14h39.07.119,expectation_shapes_perceived_time,2022.2.4,119.7332343437205,
,,,,,,,,,,,,,2,0,2,0,test,,,,,,red,1.6397750154927173,1.6333333333333333,2.291946800003643,0.9979332999937469,1.3700002455152571e-05,1e-05,0.033365600000252016,1.6334215000097174,1.6669376000063494,2.0001800000027288,2.0335136000066996,2.291946800003643,2.291946800003643,2.5918912000051932,2.950286800012691,0.6583400000090478,7.041938400012441,4.749991600008798,4.09165159999975,0.99678,0.0014930905940994741,-0.14781596881584796,7.041938400012441,-0.13379916369294473,0.06284563430786982,space,4.443432100000791,,,,,,,,p11_high1_01,001,2023-05-05_14h39.07.119,expectation_shapes_perceived_time,2022.2.4,119.7332343437205,
,,,,,,,,,,,,,3,0,3,0,test,,,,,,red,0.4858060368258933,0.48333333333333334,2.291637600006652,0.9981830000033369,1.650000922381878e-05,2e-05,0.03354750000289641,0.48368970000592526,0.5170940000098199,2.0001747000060277,2.0335032000002684,2.291637600006652,2.291637600006652,2.613671600003727,2.291637600006652,0.0,5.2334123000036925,2.9417746999970404,2.9417746999970404,0.81383,0.08161296686018876,-0.1232522356664075,5.2334123000036925,0.14767656657302486,0.00658950997365383,space,2.6197597999998834,,,,,,,,p11_high1_01,001,2023-05-05_14h39.07.119,expectation_shapes_perceived_time,2022.2.4,119.7332343437205,
,,,,,,,,,,,,,4,0,4,0,test,,,,,,red,0.5351016370697255,0.5333333333333333,2.291908200000762,0.9986319000017829,1.4200006262399256e-05,1e-05,,0.5331368000042858,0.5664427000010619,1.9995315999985905,,2.291908200000762,2.291908200000762,2.591553999998723,3.4746899000019766,1.1827817000012146,8.166342000011355,5.874433800010593,4.691652100009378,0.39661,0.14009408561228237,0.04717453903270732,8.166342000011355,0.1469256097351011,-0.016268225485857143,space,5.56860620000225,,,,,,,,p11_high1_01,001,2023-05-05_14h39.07.119,expectation_shapes_perceived_time,2022.2.4,119.7332343437205,
,,,,,,,,,,,,,5,0,5,0,test,,,,,,red,1.3033460776171328,1.3,2.291633600005298,0.9984868000028655,1.720000000204891e-05,2e-05,0.03327729999728035,1.2998470000020461,1.3333893999952124,1.999866900005145,2.0331476999999722,2.291633600005298,2.291633600005298,2.591890499999863,2.291633600005298,0.0,5.700067400000989,3.4084337999956915,3.4084337999956915,1.28415,-0.11511813586592737,-0.09273405389199704,5.700067400000989,-0.12049847980009372,-0.08562655150335281,space,3.105506799998693,,,,,,,,p11_high1_01,001,2023-05-05_14h39.07.119,expectation_shapes_perceived_time,2022.2.4,119.7332343437205,
,,,,,,,,,,,,,6,0,6,0,test,,,,,,red,1.3923580233551227,1.3916666666666666,2.291904199999408,0.9984354000043822,1.7099999240599573e-05,2e-05,0.033435400007874705,1.392241900000954,1.4255677000037394,1.9999188000074355,2.03335940001125,2.291904199999408,2.291904199999408,2.591524900009972,2.291904199999408,0.0,4.991601500005345,2.699697300005937,2.699697300005937,1.72817,-0.1114455485306548,0.09711683514814203,4.991601500005345,-0.13945141897954894,-0.049041734278879444,space,2.39877470000647,,,,,,,,p11_high1_01,001,2023-05-05_14h39.07.119,expectation_shapes_perceived_time,2022.2.4,119.7332343437205,
,,,,,,,,,,,,,7,0,7,0,test,,,,,,red,0.5601274702152987,0.5583333333333333,2.291782800006331,0.9983150999905774,1.9400002202019095e-05,2e-05,0.03361290000611916,0.5585569000104442,0.5918329999985872,2.0001315000117756,2.0332764000049792,2.291782800006331,2.291782800006331,2.5919627000112087,2.3085506000061287,0.016767799999797717,5.0836077999992995,2.7918249999929685,2.775057199993171,0.49363,0.14779395364965298,0.0029558790729930593,5.0836077999992995,0.14519404460931348,-0.027757510091479892,space,2.4864112000068417,,,,,,,,p11_high1_01,001,2023-05-05_14h39.07.119,expectation_shapes_perceived_time,2022.2.4,119.7332343437205,
,,,,,,,,,,,,,8,0,8,0,test,,,,,,red,0.29931363650253706,0.3,2.2917473999987124,0.998429400002351,1.9899991457350552e-05,2e-05,,0.29990869999164715,0.33325219999824185,2.0000063000043156,,2.2917473999987124,2.2917473999987124,2.591551999998046,2.308033900000737,0.016286500002024695,4.875163799995789,2.583416399997077,2.5671298999950523,0.42049,0.14323626735730427,0.03653986412176129,4.875163799995789,0.11940409805174854,0.08714614922610374,space,2.275233600012143,,,,,,,,p11_high1_01,001,2023-05-05_14h39.07.119,expectation_shapes_perceived_time,2022.2.4,119.7332343437205,
,,,,,,,,,,,,,9,0,9,0,test,,,,,,green,1.760970501827776,1.7583333333333333,2.2915845999959856,0.9981114999973215,1.4399993233382702e-05,1e-05,0.03362180000112858,1.7582108999922639,1.7919270999991568,2.000735199995688,2.0333145999902626,2.2915845999959856,2.2915845999959856,2.5918021999968914,2.2915845999959856,0.0,5.083610000001499,2.792025400005514,2.792025400005514,1.78834,-0.0912117422586453,0.11632801911247517,5.083610000001499,-0.10086313796817628,0.10806672640411834,space,2.488730500001111,,,,,,,,p11_high1_01,001,2023-05-05_14h39.07.119,expectation_shapes_perceived_time,2022.2.4,119.7332343437205,
,,,,,,,,,,,,,10,0,10,0,test,,,,,,green,0.18299163709358096,0.18333333333333332,2.2914788000052795,0.9984694000013405,1.920000067912042e-05,2e-05,,0.18322999999509193,0.21655769999779295,1.9997713000047952,,2.2914788000052795,2.2914788000052795,2.59138250000251,2.2914788000052795,0.0,5.18348920000426,2.8920103999989806,2.8920103999989806,0.15578,0.0694903858878041,0.13047174493220362,5.18348920000426,0.08037732346068321,0.12406158079674237,space,2.589218200009782,,,,,,,,p11_high1_01,001,2023-05-05_14h39.07.119,expectation_shapes_perceived_time,2022.2.4,119.7332343437205,
,,,,,,,,,,,,,11,0,11,0,test,,,,,,red,0.34225028911888605,0.3416666666666667,2.291535800002748,0.9981373999908101,1.4399993233382702e-05,1e-05,0.0331787000031909,0.34231710000312887,0.37545049999607727,2.0002171999949496,2.033375500002876,2.291535800002748,2.291535800002748,2.591661099999328,2.291535800002748,0.0,4.516625200005365,2.2250894000026165,2.2250894000026165,0.15215,0.06799953518410289,0.13125491675071024,4.516625200005365,0.13003893807875022,0.07029697390244397,space,1.9248207999917213,,,,,,,,p11_high1_01,001,2023-05-05_14h39.07.119,expectation_shapes_perceived_time,2022.2.4,119.7332343437205,
,,,,,,,,,,,,,12,0,12,0,test,,,,,,green,1.2123750764335066,1.2083333333333333,2.2910155000136,0.9989992000046186,8.92000098247081e-05,9e-05,,1.2076832000020659,1.2411049000074854,1.9996542000008048,,2.2910155000136,2.2910155000136,2.591622300009476,2.2910155000136,0.0,6.399412500002654,4.108396999989054,4.108396999989054,0.50684,0.14778933853931117,-0.0031782653449314233,6.399412500002654,-0.0914710733460376,-0.11612421236509521,space,3.80797920000623,,,,,,,,p11_high1_01,001,2023-05-05_14h39.07.119,expectation_shapes_perceived_time,2022.2.4,119.7332343437205,
,,,,,,,,,,,,,13,0,13,0,test,,,,,,green,1.3197702367413229,1.3166666666666667,2.291222200001357,0.99853979999898,1.3900003978051245e-05,1e-05,,1.316435900007491,1.350065499995253,2.0000354000076186,,2.291222200001357,2.291222200001357,2.5911470999999437,2.3079356999951415,0.016713499993784353,4.133215299996664,1.8419930999953067,1.8252796000015223,1.6142,-0.1384114650615487,0.051904299398080764,4.133215299996664,-0.12475431061834392,-0.0792978684368734,space,1.5362403999897651,,,,,,,,p11_high1_01,001,2023-05-05_14h39.07.119,expectation_shapes_perceived_time,2022.2.4,119.7332343437205,
,,,,,,,,,,,,,14,0,14,0,test,,,,,,red,0.36247910930077215,0.35833333333333334,2.2924668000050588,0.998257500003092,1.3900003978051245e-05,1e-05,0.0335583999985829,0.3583859000063967,0.3916581999947084,1.9998331999959191,2.033167899993714,2.2924668000050588,2.2924668000050588,2.5936320000037085,2.3116365000023507,0.0191696999972919,4.341886099995463,2.0494192999904044,2.0302495999931125,0.32917,0.127040514955087,0.07558106585935555,4.341886099995463,0.13424084908333883,0.06189656205213804,space,1.745662800007267,,,,,,,,p11_high1_01,001,2023-05-05_14h39.07.119,expectation_shapes_perceived_time,2022.2.4,119.7332343437205,
,,,,,,,,,,,,,15,0,15,0,test,,,,,,red,1.8456730534584163,1.8416666666666666,2.291857100004563,0.9982562999939546,1.7099999240599573e-05,2e-05,0.03313189999607857,1.8415042999986326,1.8747738000092795,2.000383000005968,2.0338397000014083,2.291857100004563,2.291857100004563,2.5915707999956794,2.3169485999969766,0.025091499992413446,4.108163199998671,1.816306099994108,1.7912146000016946,1.68208,-0.12429060506562661,0.080022718329924,4.108163199998671,-0.06889463705747235,0.13078730420499185,space,1.5089176000037696,,,,,,,,p11_high1_01,001,2023-05-05_14h39.07.119,expectation_shapes_perceived_time,2022.2.4,119.7332343437205,
,,,,,,,,,,,,,16,0,16,0,test,,,,,,green,0.611908004652766,0.6083333333333333,2.3011466000025393,0.9984164999914356,1.5300000086426735e-05,2e-05,0.03320689999964088,0.6085763000010047,0.6418682000075933,2.0006224999960978,2.0335422000061953,2.3011466000025393,2.3011466000025393,2.599834499997087,2.3011466000025393,0.0,4.408694099998684,2.1075474999961443,2.1075474999961443,0.11157,0.05075731340225388,0.13883618077675325,4.408694099998684,0.13878165161017403,-0.05090621899966844,space,1.8009965000092052,,,,,,,,p11_high1_01,001,2023-05-05_14h39.07.119,expectation_shapes_perceived_time,2022.2.4,119.7332343437205,
,,,,,,,,,,,,,17,0,17,0,test,,,,,,red,1.790852583661112,1.7833333333333332,2.291474700003164,0.9981648999964818,1.3800003216601908e-05,1e-05,,1.7834463000035612,1.8167918999970425,2.0001695999962976,2.0331193000019994,2.291474700003164,2.291474700003164,2.616445499996189,2.3850235999998404,0.09354889999667648,4.658166900000651,2.3666921999974875,2.273143300000811,1.91664,-0.03827180149077451,0.14278325940788952,4.658166900000651,-0.0902888923326449,0.11704574267282845,space,2.0403284000058193,,,,,,,,p11_high1_01,001,2023-05-05_14h39.07.119,expectation_shapes_perceived_time,2022.2.4,119.7332343437205,
,,,,,,,,,,,,,18,0,18,0,test,,,,,,red,0.793635269346038,0.7916666666666666,2.291834800009383,0.9986810000118567,1.2600008631125093e-05,1e-05,,0.7913887000031536,0.8247816000075545,2.0001052000006894,,2.291834800009383,2.291834800009383,2.591818400003831,2.291834800009383,0.0,4.09985769999912,1.8080228999897372,1.8080228999897372,0.78173,0.09360743249441497,-0.11440908415984052,4.09985769999912,0.08926223380277143,-0.11783057147035012,space,1.502112300004228,,,,,,,,p11_high1_01,001,2023-05-05_14h39.07.119,expectation_shapes_perceived_time,2022.2.4,119.7332343437205,
,,,,,,,,,,,,,19,0,19,0,test,,,,,,green,1.1431636796634956,1.1416666666666666,2.291394500003662,0.9987595000129659,1.440000778529793e-05,1e-05,,1.1414262000034796,1.1749651999998605,2.000415900009102,,2.291394500003662,2.291394500003662,2.5914459000050556,2.291394500003662,0.0,4.024737500003539,1.733342999999877,1.733342999999877,1.19171,-0.0837462788236257,-0.12181276919800102,4.024737500003539,-0.06426644565736639,-0.13312255225565164,space,1.4264073000085773,,,,,,,,p11_high1_01,001,2023-05-05_14h39.07.119,expectation_shapes_perceived_time,2022.2.4,119.7332343437205,
,,,,,,,,,0,0,0,0,,,,,fam,0.5406776000017999,0.5406776000017999,270.0000000000009,2.5318608000088716,2.5318608000088716,,,,,,,,,,,,,,,,,,,,,,,,,,,,,,,,,,,,p11_high1_01,001,2023-05-05_14h39.07.119,expectation_shapes_perceived_time,2022.2.4,119.7332343437205,
,,,,,,,,,1,0,1,0,,,,,fam,0.49896140000782907,0.49896140000782907,270.0000000000009,2.4907296000019414,2.4907296000019414,,,,,,,,,,,,,,,,,,,,,,,,,,,,,,,,,,,,p11_high1_01,001,2023-05-05_14h39.07.119,expectation_shapes_perceived_time,2022.2.4,119.7332343437205,
,,,,,,,,,2,0,2,0,,,,,fam,0.4987747999985004,0.4987747999985004,270.0000000000009,2.4904118000122253,2.4904118000122253,,,,,,,,,,,,,,,,,,,,,,,,,,,,,,,,,,,,p11_high1_01,001,2023-05-05_14h39.07.119,expectation_shapes_perceived_time,2022.2.4,119.7332343437205,
,,,,,,,,,3,0,3,0,,,,,fam,0.4983585000009043,0.4983585000009043,270.0000000000009,2.4900708999921335,2.4900708999921335,,,,,,,,,,,,,,,,,,,,,,,,,,,,,,,,,,,,p11_high1_01,001,2023-05-05_14h39.07.119,expectation_shapes_perceived_time,2022.2.4,119.7332343437205,
,,,,,,,,,4,0,4,0,,,,,fam,0.4986868999985745,0.4986868999985745,270.0000000000009,2.49065919998975,2.49065919998975,,,,,,,,,,,,,,,,,,,,,,,,,,,,,,,,,,,,p11_high1_01,001,2023-05-05_14h39.07.119,expectation_shapes_perceived_time,2022.2.4,119.7332343437205,
,,,,,,,,,,,,,0,0,0,0,testSingleStim,,,,,,green,0.2284044953252046,0.225,0.03825399999914225,0.9985147999977926,1.580000389367342e-05,2e-05,0.03322969999862835,0.2249805000028573,0.2585154000116745,1.9999785000109114,2.0332608000026084,2.2919594000122743,2.2919594000122743,2.5998079999990296,2.308157500010566,0.016198099998291582,4.524753600009717,2.2327941999974428,2.216596099999151,0.13917,0.06259209030843804,0.13391796065991396,,,,None,,,,,,,,,p11_high1_01,001,2023-05-05_14h39.07.119,expectation_shapes_perceived_time,2022.2.4,119.7332343437205,
,,,,,,,,,,,,,1,0,1,0,testSingleStim,,,,,,green,1.2091053693040157,1.2083333333333333,0.002343999993172474,0.9973970999999437,1.4500008546747267e-05,1e-05,,1.2081453000137117,1.2426549000083469,2.000363600003766,,2.2919535000110045,2.2919535000110045,2.5918025999999372,2.309186900005443,0.017233399994438514,3.9250176000059582,1.6330640999949537,1.6158307000005152,0.90819,0.042047954862672134,-0.1417171812038209,,,,None,,,,,,,,,p11_high1_01,001,2023-05-05_14h39.07.119,expectation_shapes_perceived_time,2022.2.4,119.7332343437205,
,,,,,,,,,,,,,2,0,2,0,testSingleStim,,,,,,red,1.6167724754064168,1.6166666666666667,0.0023527999874204397,0.9973398000001907,1.4199991710484028e-05,1e-05,0.033586399993509986,1.6165174999914598,1.6498562999913702,1.9999851000029594,2.0338821000041207,2.2921334999991814,2.2921334999991814,2.5923905999952694,2.308792199997697,0.016658699998515658,3.6581841000006534,1.366050600001472,1.3493919000029564,1.66109,-0.1292944081416841,0.07165714186165627,,,,None,,,,,,,,,p11_high1_01,001,2023-05-05_14h39.07.119,expectation_shapes_perceived_time,2022.2.4,119.7332343437205,
,,,,,,,,,,,,,3,0,3,0,testSingleStim,,,,,,green,1.5817217580947203,1.575,0.002597099999547936,0.9984982000023592,1.9500002963468432e-05,2e-05,0.03357050000340678,1.5750793000042904,1.6086154999939026,2.000005699999747,2.033300800001598,2.292241000002832,2.292241000002832,2.5918963000003714,2.292241000002832,0.0,3.2249768000037875,0.9327358000009554,0.9327358000009554,1.71102,-0.11651272182948738,0.0909756869079559,,,,None,,,,,,,,,p11_high1_01,001,2023-05-05_14h39.07.119,expectation_shapes_perceived_time,2022.2.4,119.7332343437205,
,,,,,,,,,,,,,4,0,4,0,testSingleStim,,,,,,red,0.5308114111509206,0.5333333333333333,0.0031215000053634867,0.9986711999954423,2.9699993319809437e-05,3e-05,,0.5330611999961548,0.5666520999948261,1.999755599987111,,2.2921517999930074,2.2921517999930074,2.592282099998556,2.399881799996365,0.10773000000335742,3.558135499988566,1.2659836999955587,1.1582536999922013,0.37228,0.1360836297648425,0.05773244899114531,,,,None,,,,,,,,,p11_high1_01,001,2023-05-05_14h39.07.119,expectation_shapes_perceived_time,2022.2.4,119.7332343437205,
,,,,,,,,,,,,,5,0,5,0,testSingleStim,,,,,,red,1.219842947223365,1.2166666666666666,0.0025831000093603507,0.9986819000041578,1.3600001693703234e-05,1e-05,0.033390199998393655,1.2163852999947267,1.2500472999963677,1.999863599994569,2.033296800000244,2.291473400007817,2.291473400007817,2.603113699995447,2.291473400007817,0.0,3.0833088000072166,0.7918353999993997,0.7918353999993997,1.60781,-0.1394253659616055,0.04911575391829284,,,,None,,,,,,,,,p11_high1_01,001,2023-05-05_14h39.07.119,expectation_shapes_perceived_time,2022.2.4,119.7332343437205,
,,,,,,,,,,,,,6,0,6,0,testSingleStim,,,,,,red,0.3447144083785777,0.3416666666666667,0.0033050999918486923,0.997098099993309,3.160000778734684e-05,3e-05,,0.34140560000378173,0.37483050000446383,1.9999118000123417,,2.291515700009768,2.291515700009768,2.591503500007093,2.291515700009768,0.0,3.2747396000049775,0.9832238999952096,0.9832238999952096,0.37301,0.13621422496427543,0.05742364385748866,,,,None,,,,,,,,,p11_high1_01,001,2023-05-05_14h39.07.119,expectation_shapes_perceived_time,2022.2.4,119.7332343437205,
,,,,,,,,,,,,,7,0,7,0,testSingleStim,,,,,,green,0.772757899291807,0.775,0.002424799997243099,0.9976616000058129,1.5700003132224083e-05,2e-05,0.033317399997031316,0.7751212000002852,0.8084316000022227,2.000002000000677,2.033428399998229,2.2921796000009635,2.2921796000009635,2.5918270999973174,2.2921796000009635,0.0,3.983344300009776,1.6911647000088124,1.6911647000088124,0.90953,0.041451799924083904,-0.14189269974013335,,,,None,,,,,,,,,p11_high1_01,001,2023-05-05_14h39.07.119,expectation_shapes_perceived_time,2022.2.4,119.7332343437205,
,,,,,,,,,,,,,8,0,8,0,testSingleStim,,,,,,red,0.9249868247559822,0.9249999999999999,0.00269280000065919,0.9983314999990398,1.5900004655122757e-05,2e-05,,0.9250334000098519,0.9584809000079986,2.0001660999987507,2.033404400004656,2.2918285000050673,2.2918285000050673,2.591576899998472,2.542072399999597,0.2502438999945298,3.3586078000080306,1.0667793000029633,0.8165354000084335,0.82328,0.07791704215195985,-0.12562135367356791,,,,None,,,,,,,,,p11_high1_01,001,2023-05-05_14h39.07.119,expectation_shapes_perceived_time,2022.2.4,119.7332343437205,
,,,,,,,,,,,,,9,0,9,0,testSingleStim,,,,,,green,0.4684246806777715,0.4666666666666667,0.002434699999867007,0.9974453000031644,1.960000372491777e-05,2e-05,0.03315800000564195,0.4667008000105852,0.4998909999994794,2.000102500009234,2.033563900011359,2.2914738000108628,2.2914738000108628,2.5917149000015343,2.3503275999973994,0.058853799986536615,3.4164561000070535,1.1249822999961907,1.066128500009654,0.36586,0.13489033078767337,0.0604680793186122,,,,None,,,,,,,,,p11_high1_01,001,2023-05-05_14h39.07.119,expectation_shapes_perceived_time,2022.2.4,119.7332343437205,
,,,,,,,,,,,,,10,0,10,0,testSingleStim,,,,,,red,1.6697015227323464,1.6666666666666667,0.002401400008238852,0.9978206000087084,1.4200006262399256e-05,1e-05,0.03356490000442136,1.6667370000068331,1.6998131000000285,1.9998907999979565,2.033501600002637,2.2915636000107042,2.2915636000107042,2.5915906000009272,2.2915636000107042,0.0,3.7498806000076,1.458316999996896,1.458316999996896,1.72199,-0.11330974762025536,0.09493519395210584,,,,None,,,,,,,,,p11_high1_01,001,2023-05-05_14h39.07.119,expectation_shapes_perceived_time,2022.2.4,119.7332343437205,
,,,,,,,,,,,,,11,0,11,0,testSingleStim,,,,,,green,1.3530943152305779,1.35,0.0024910000065574422,0.9974565000011353,1.4599994756281376e-05,1e-05,0.033443499996792525,1.3499624999967637,1.3832358999934513,1.9998743000032846,2.033536200004164,2.2916388000012375,2.2916388000012375,2.5918264999927487,2.2916388000012375,0.0,3.574961099991924,1.2833222999906866,1.2833222999906866,1.02073,-0.009620226476688625,-0.14751013930922557,,,,None,,,,,,,,,p11_high1_01,001,2023-05-05_14h39.07.119,expectation_shapes_perceived_time,2022.2.4,119.7332343437205,
,,,,,,,,,,,,,12,0,12,0,testSingleStim,,,,,,red,0.1669544686885827,0.16666666666666666,0.0022252000053413212,0.9968485999997938,1.4399993233382702e-05,1e-05,,0.16672989999642596,0.20014770000125282,1.9999718999897595,,2.29236549999041,2.29236549999041,2.5918021999968914,2.308739100000821,0.016373600010410883,3.534040999991703,1.2416755000012927,1.2253018999908818,0.06814,0.03140209554368536,0.14444963950095263,,,,None,,,,,,,,,p11_high1_01,001,2023-05-05_14h39.07.119,expectation_shapes_perceived_time,2022.2.4,119.7332343437205,
,,,,,,,,,,,,,13,0,13,0,testSingleStim,,,,,,red,1.011885021256241,1.0083333333333333,0.0022902999917278066,0.9963428999908501,1.309999788645655e-05,1e-05,,1.0083925999933854,1.0417170000000624,1.999973099998897,,2.2915953999909107,2.2915953999909107,2.591724099998828,2.2915953999909107,0.0,4.033536099988851,1.74194069999794,1.74194069999794,0.78468,0.09254247260725676,-0.11527220272131984,,,,None,,,,,,,,,p11_high1_01,001,2023-05-05_14h39.07.119,expectation_shapes_perceived_time,2022.2.4,119.7332343437205,
,,,,,,,,,,,,,14,0,14,0,testSingleStim,,,,,,green,1.076567988415773,1.075,0.002314400000614114,0.9975916999974288,1.410000550094992e-05,1e-05,0.03275270000449382,1.0750183000054676,1.1077380000060657,1.9995514000038384,2.0328882000030717,2.2910813000053167,2.2910813000053167,2.623828100011451,2.2910813000053167,0.0,3.8828928000002634,1.5918114999949466,1.5918114999949466,0.76145,0.10070191223685443,-0.10821698031423162,,,,None,,,,,,,,,p11_high1_01,001,2023-05-05_14h39.07.119,expectation_shapes_perceived_time,2022.2.4,119.7332343437205,
,,,,,,,,,,,,,15,0,15,0,testSingleStim,,,,,,green,0.669143297395296,0.6666666666666666,0.002493399995728396,0.9976624999981141,1.4499993994832039e-05,1e-05,,0.6665321000036784,0.6999976999941282,1.9998563999979524,,2.2915457999915816,2.2915457999915816,2.5913074999989476,2.649746099996264,0.3582003000046825,3.4166843999992125,1.1251386000076309,0.7669383000029484,0.72522,0.11234025033657355,-0.09608047726154317,,,,None,,,,,,,,,p11_high1_01,001,2023-05-05_14h39.07.119,expectation_shapes_perceived_time,2022.2.4,119.7332343437205,
,,,,,,,,,,,,,16,0,16,0,testSingleStim,,,,,,green,1.7476467791284511,1.7416666666666667,0.0022404000046662986,0.9973770000069635,1.2500007869675756e-05,1e-05,0.03323290000844281,1.7414225999964401,1.774837100005243,1.9998909999994794,2.0331634000031045,2.2914728000032483,2.2914728000032483,2.5915742000070168,2.2914728000032483,0.0,3.524846100001014,1.2333732999977656,1.2333732999977656,1.5979,-0.140886584618181,0.0447522092316575,,,,None,,,,,,,,,p11_high1_01,001,2023-05-05_14h39.07.119,expectation_shapes_perceived_time,2022.2.4,119.7332343437205,
,,,,,,,,,,,,,17,0,17,0,testSingleStim,,,,,,green,0.5417850347256594,0.5416666666666666,0.0022105000098235905,0.9977177000109805,1.3199998647905886e-05,1e-05,,0.5415421000070637,0.5749183000007179,1.9999455000070157,,2.291478700004518,2.291478700004518,2.5914690000063274,2.3083867999957874,0.01690809999126941,3.4916234999982407,1.2001447999937227,1.1832367000024533,0.33229,0.12777585940791994,0.07433114898249188,,,,None,,,,,,,,,p11_high1_01,001,2023-05-05_14h39.07.119,expectation_shapes_perceived_time,2022.2.4,119.7332343437205,
,,,,,,,,,,,,,18,0,18,0,testSingleStim,,,,,,green,1.6937547570614453,1.6916666666666667,0.0033859999966807663,0.9978427000023657,1.2499993317760527e-05,1e-05,,1.6915444000042044,1.7250228000048082,2.000084400002379,,2.291821599996183,2.291821599996183,2.5917225000011967,2.424995299996226,0.13317370000004303,3.541758999999729,1.249937400003546,1.116763700003503,1.79303,-0.08948754410304625,0.11765954872807934,,,,None,,,,,,,,,p11_high1_01,001,2023-05-05_14h39.07.119,expectation_shapes_perceived_time,2022.2.4,119.7332343437205,
,,,,,,,,,,,,,19,0,19,0,testSingleStim,,,,,,green,1.4220639204724723,1.4166666666666667,0.0048417999933008105,0.9978321999951731,7.559999357908964e-05,8e-05,0.03335990000050515,1.4166090999933658,1.4498731999919983,2.0000395999959437,2.0332823999924585,2.291715399987879,2.291715399987879,2.5919094999990193,2.358528299999307,0.0668129000114277,3.4583353999914834,1.1666200000036042,1.0998070999921765,1.5896,-0.14200600017994916,0.04106197595564794,,,,None,,,,,,,,,p11_high1_01,001,2023-05-05_14h39.07.119,expectation_shapes_perceived_time,2022.2.4,119.7332343437205,
,,,,,,,,,,,,,20,0,20,0,testSingleStim,,,,,,green,1.638493417754097,1.6333333333333333,0.0024354999914066866,0.9973401999886846,3.050001396331936e-05,3e-05,,1.633337000006577,1.6668530000024475,2.0000471000093967,,2.2917166000115685,2.2917166000115685,2.5916817000106676,2.2917166000115685,0.0,3.3585238000086974,1.066807199997129,1.066807199997129,1.72373,-0.11278699950889463,0.09555565236170241,,,,None,,,,,,,,,p11_high1_01,001,2023-05-05_14h39.07.119,expectation_shapes_perceived_time,2022.2.4,119.7332343437205,
,,,,,,,,,,,,,21,0,21,0,testSingleStim,,,,,,red,1.0572089049894466,1.0583333333333333,0.0032823999936226755,0.9971231999952579,3.0199997127056122e-05,3e-05,,1.058798800004297,1.092136000006576,2.000219299996388,,2.29146550000587,2.29146550000587,2.591848600000958,2.341870599993854,0.050405099987983704,3.766587999998592,1.4751224999927217,1.424717400004738,0.90756,0.04232739359689839,-0.14163397088192922,,,,None,,,,,,,,,p11_high1_01,001,2023-05-05_14h39.07.119,expectation_shapes_perceived_time,2022.2.4,119.7332343437205,
,,,,,,,,,,,,,22,0,22,0,testSingleStim,,,,,,green,0.6392415187993572,0.6416666666666666,0.002414399990811944,0.9984468999900855,1.85999961104244e-05,2e-05,0.03330269998696167,0.6419015999999829,0.6751183999876957,1.999937599990517,2.0333202999900095,2.292062199994689,2.292062199994689,2.591943099992932,2.292062199994689,0.0,3.258686699991813,0.9666244999971241,0.9666244999971241,0.70853,0.1172215818388485,-0.09006048360789579,,,,None,,,,,,,,,p11_high1_01,001,2023-05-05_14h39.07.119,expectation_shapes_perceived_time,2022.2.4,119.7332343437205,
,,,,,,,,,,,,,23,0,23,0,testSingleStim,,,,,,green,0.2528610781142799,0.25,0.0023423999955412,0.9977319999889005,1.3999990187585354e-05,1e-05,0.03320559998974204,0.24995659998967312,0.2829743000038434,1.99987329999567,2.0334616000036476,2.2916005000006407,2.2916005000006407,2.591291299992008,2.308023499994306,0.016422999993665144,4.466199000002234,2.1745985000015935,2.1581755000079283,0.90078,0.045336549042163075,-0.14069963495843713,,,,None,,,,,,,,,p11_high1_01,001,2023-05-05_14h39.07.119,expectation_shapes_perceived_time,2022.2.4,119.7332343437205,
,,,,,,,,,,,,,24,0,24,0,testSingleStim,,,,,,green,1.631749121637258,1.625,0.0023732999979984015,0.9970724000013433,1.4200006262399256e-05,1e-05,0.03322530000878032,1.6250570999982301,1.6587509000091814,1.9998322000028566,2.0331940000032773,2.2917129999987083,2.2917129999987083,2.5915494000073522,2.2917129999987083,0.0,3.316797100007534,1.0250841000088258,1.0250841000088258,0.949,0.02358464080243742,-0.14592996496508154,,,,None,,,,,,,,,p11_high1_01,001,2023-05-05_14h39.07.119,expectation_shapes_perceived_time,2022.2.4,119.7332343437205,
,,,,,,,,,,,,,25,0,25,0,testSingleStim,,,,,,green,0.5357990469592231,0.5333333333333333,0.002389799992670305,0.9968498999951407,1.4199991710484028e-05,1e-05,,0.5332440999918617,0.566424199991161,1.99957089999225,,2.291918999995687,2.291918999995687,2.591272099991329,2.291918999995687,0.0,3.4250342000013916,1.1331152000057045,1.1331152000057045,0.40475,0.14125407702679466,0.04357838546571324,,,,None,,,,,,,,,p11_high1_01,001,2023-05-05_14h39.07.119,expectation_shapes_perceived_time,2022.2.4,119.7332343437205,
,,,,,,,,,,,,,26,0,26,0,testSingleStim,,,,,,red,0.5710520601263789,0.5666666666666667,0.0024076000117929652,0.9974533000058727,1.4399993233382702e-05,1e-05,0.03294659999664873,0.5662421000015456,0.5995770000008633,1.9997944999922765,2.0332805999933043,2.2912071000027936,2.2912071000027936,2.5911704000027385,2.2912071000027936,0.0,3.5913115000003017,1.3001043999975082,1.3001043999975082,0.24116,0.10158429411760687,0.10738911092432728,,,,None,,,,,,,,,p11_high1_01,001,2023-05-05_14h39.07.119,expectation_shapes_perceived_time,2022.2.4,119.7332343437205,
,,,,,,,,,,,,,27,0,27,0,testSingleStim,,,,,,green,1.2023075321522576,1.2,0.002474900000379421,0.9972870999918086,1.9400002202019095e-05,2e-05,0.033590799997909926,1.2003097999986494,1.2334588000085205,1.9999978999985615,2.0333163000032073,2.292269400000805,2.292269400000805,2.5918295000010403,2.3583786000090186,0.06610920000821352,3.5917538000066997,1.2994844000058947,1.2333751999976812,0.39989,0.14057274221297786,0.045728482406631354,,,,None,,,,,,,,,p11_high1_01,001,2023-05-05_14h39.07.119,expectation_shapes_perceived_time,2022.2.4,119.7332343437205,
,,,,,,,,,,,,,28,0,28,0,testSingleStim,,,,,,green,1.4402330756745552,1.4333333333333333,0.003137200008495711,0.9971310999972047,1.4600009308196604e-05,1e-05,0.033058200002415106,1.4333220999978948,1.4663228999997955,1.9997908000077587,2.033296399997198,2.2912976000079652,2.2912976000079652,2.600150099999155,2.2912976000079652,0.0,3.382997599997907,1.0916999999899417,1.0916999999899417,1.108,-0.049198637830850475,-0.139396140520743,,,,None,,,,,,,,,p11_high1_01,001,2023-05-05_14h39.07.119,expectation_shapes_perceived_time,2022.2.4,119.7332343437205,
,,,,,,,,,,,,,29,0,29,0,testSingleStim,,,,,,red,0.7613671506772297,0.7583333333333333,0.0028347999905236065,0.9983662000013283,2.2899999748915434e-05,2e-05,,0.7583307000022614,0.7915837000036845,1.9997894000116503,,2.291446500006714,2.291446500006714,2.591725700011011,2.3082332000049064,0.01678669999819249,3.091501700007939,0.8000552000012249,0.7832685000030324,0.58027,0.14314785089587528,-0.0368847223167286,,,,None,,,,,,,,,p11_high1_01,001,2023-05-05_14h39.07.119,expectation_shapes_perceived_time,2022.2.4,119.7332343437205,
,,,,,,,,,,,,,30,0,30,0,testSingleStim,,,,,,red,0.249073675993198,0.25,0.002854200007277541,0.997926500000176,1.6399993910454214e-05,2e-05,0.03392009998788126,0.2507331999950111,0.2837548999959836,2.000014799996279,,2.2918747999938205,2.2918747999938205,2.591774100001203,2.2918747999938205,0.0,3.925133699987782,1.6332588999939617,1.6332588999939617,0.2341,0.09917676210942664,0.10961642127883997,,,,None,,,,,,,,,p11_high1_01,001,2023-05-05_14h39.07.119,expectation_shapes_perceived_time,2022.2.4,119.7332343437205,
,,,,,,,,,,,,,31,0,31,0,testSingleStim,,,,,,red,1.6687180074283865,1.6666666666666667,0.0023381999926641583,0.9982095000013942,2.1200001356191933e-05,2e-05,0.03332060000684578,1.6667452000110643,1.7004117000033148,2.0001901000068756,2.033354400002281,2.2917840000009164,2.2917840000009164,2.5918210000090767,2.2917840000009164,0.0,3.3834702000021935,1.091686200001277,1.091686200001277,1.61312,-0.13858681282667124,0.05143428104907386,,,,None,,,,,,,,,p11_high1_01,001,2023-05-05_14h39.07.119,expectation_shapes_perceived_time,2022.2.4,119.7332343437205,
,,,,,,,,,,,,,32,0,32,0,testSingleStim,,,,,,green,0.41992740184562677,0.4166666666666667,0.0022976000036578625,0.9969207000103779,2.02999945031479e-05,2e-05,,0.4165339000028325,0.44989499999792315,1.999889799990342,,2.2916993999970146,2.2916993999970146,2.5918292999995174,2.2916993999970146,0.0,3.358361699996749,1.0666622999997344,1.0666622999997344,0.25253,0.1053532674363177,0.10369416086251744,,,,None,,,,,,,,,p11_high1_01,001,2023-05-05_14h39.07.119,expectation_shapes_perceived_time,2022.2.4,119.7332343437205,
,,,,,,,,,,,,,33,0,33,0,testSingleStim,,,,,,green,0.4854214335417499,0.48333333333333334,0.002353700008825399,0.9976163999963319,1.4099990949034691e-05,1e-05,,0.4836769999965327,0.516450299997814,1.9997175999887986,,2.291333899993333,2.291333899993333,2.591599099992891,2.291333899993333,0.0,4.13298819999909,1.8416543000057572,1.8416543000057572,0.13845,0.06228993399534664,0.13405877098998514,,,,None,,,,,,,,,p11_high1_01,001,2023-05-05_14h39.07.119,expectation_shapes_perceived_time,2022.2.4,119.7332343437205,
,,,,,,,,,,,,,34,0,34,0,testSingleStim,,,,,,green,1.163064669828493,1.1583333333333332,0.0029073000041535124,0.9970353000098839,1.2599994079209864e-05,1e-05,,1.158136199999717,1.1915239999943879,2.000045599997975,2.0332016999891493,2.2917564999952447,2.2917564999952447,2.5915743999939878,2.3333166999946116,0.04156019999936689,3.4668136999971466,1.175057200001902,1.133497000002535,0.13007,0.05873647775717178,0.13565329386775388,,,,None,,,,,,,,,p11_high1_01,001,2023-05-05_14h39.07.119,expectation_shapes_perceived_time,2022.2.4,119.7332343437205,
,,,,,,,,,,,,,35,0,35,0,testSingleStim,,,,,,red,0.8670651088779366,0.8666666666666667,0.002411599998595193,0.9975826000008965,1.4199991710484028e-05,1e-05,,0.8670727999997325,0.9003272999980254,1.9997590999992099,,2.2914573999878485,2.2914573999878485,2.591624499997124,2.3749141999869607,0.08345679999911226,3.899864599996363,1.6084072000085143,1.524950400009402,0.81107,0.08267788247004704,-0.1225404329466769,,,,None,,,,,,,,,p11_high1_01,001,2023-05-05_14h39.07.119,expectation_shapes_perceived_time,2022.2.4,119.7332343437205,
,,,,,,,,,,,,,36,0,36,0,testSingleStim,,,,,,green,1.1398036360765262,1.1333333333333333,0.0028344999882392585,0.9985459999879822,1.6599995433352888e-05,2e-05,0.03317389999574516,1.1333003000036115,1.1667540000053123,1.9999183000036282,,2.291541300000972,2.291541300000972,2.591675599993323,2.291541300000972,0.0,3.3669434000039473,1.0754021000029752,1.0754021000029752,0.79925,0.08717080348810219,-0.11938610042935734,,,,None,,,,,,,,,p11_high1_01,001,2023-05-05_14h39.07.119,expectation_shapes_perceived_time,2022.2.4,119.7332343437205,
,,,,,,,,,,,,,37,0,37,0,testSingleStim,,,,,,red,0.5204155151218771,0.5166666666666666,0.0023415000032400712,0.996512800003984,1.4199991710484028e-05,1e-05,0.03301339999597985,0.5163838000007672,0.5501299000025028,2.000868499992066,2.0333577999990666,2.291367999991053,2.291367999991053,2.6043956999928923,2.291367999991053,0.0,3.4164278999960516,1.1250599000049988,1.1250599000049988,0.58859,0.14213584439422905,-0.04061024125549402,,,,None,,,,,,,,,p11_high1_01,001,2023-05-05_14h39.07.119,expectation_shapes_perceived_time,2022.2.4,119.7332343437205,
,,,,,,,,,,,,,38,0,38,0,testSingleStim,,,,,,red,0.9496486530607444,0.95,0.003190599993104115,0.996624299994437,1.6999998479150236e-05,2e-05,0.03341829999408219,0.949997199990321,0.9833553999924334,1.9998402999917744,2.0330665999936173,2.291485099995043,2.291485099995043,2.5915626999922097,2.291485099995043,0.0,3.5501725999929477,1.2586874999979045,1.2586874999979045,0.80186,0.0861877655832976,-0.12009770614066059,,,,None,,,,,,,,,p11_high1_01,001,2023-05-05_14h39.07.119,expectation_shapes_perceived_time,2022.2.4,119.7332343437205,
,,,,,,,,,,,,,39,0,39,0,testSingleStim,,,,,,green,1.6416050455130629,1.6416666666666666,0.0022984000097494572,0.9969169000105467,1.4300007023848593e-05,1e-05,0.03356700000585988,1.6417957000085153,1.6750324000022374,1.9998415000009118,2.033237099996768,2.2915691999951378,2.2915691999951378,2.5915492000058293,2.2915691999951378,0.0,3.4998561999964295,1.2082870000012917,1.2082870000012917,1.50974,-0.14775429471734514,0.004523090654612606,,,,None,,,,,,,,,p11_high1_01,001,2023-05-05_14h39.07.119,expectation_shapes_perceived_time,2022.2.4,119.7332343437205,
,,,,,,,,,0,0,0,0,0,-1,-1,0,fam,0.5406662000023061,0.5406662000023061,270.0000000000009,2.531881400005659,2.531881400005659,,,,,,,,,,,,,,,,,,,,,,,,,,,,,,,,,,,,p11_high1_01,001,2023-05-05_14h39.07.119,expectation_shapes_perceived_time,2022.2.4,119.7332343437205,
,,,,,,,,,1,0,1,0,0,-1,-1,0,fam,0.4982859000010649,0.4982859000010649,270.0000000000009,2.489807699996163,2.489807699996163,,,,,,,,,,,,,,,,,,,,,,,,,,,,,,,,,,,,p11_high1_01,001,2023-05-05_14h39.07.119,expectation_shapes_perceived_time,2022.2.4,119.7332343437205,
,,,,,,,,,2,0,2,0,0,-1,-1,0,fam,0.49888909999572206,0.49888909999572206,270.0000000000009,2.490597700001672,2.490597700001672,,,,,,,,,,,,,,,,,,,,,,,,,,,,,,,,,,,,p11_high1_01,001,2023-05-05_14h39.07.119,expectation_shapes_perceived_time,2022.2.4,119.7332343437205,
,,,,,,,,,3,0,3,0,0,-1,-1,0,fam,0.4991310000041267,0.4991310000041267,270.0000000000009,2.4901922999997623,2.4901922999997623,,,,,,,,,,,,,,,,,,,,,,,,,,,,,,,,,,,,p11_high1_01,001,2023-05-05_14h39.07.119,expectation_shapes_perceived_time,2022.2.4,119.7332343437205,
1,500,0.5,none,25,green,red,no_Expectation,,,,,,0,0,0,6,train_doubleStim,,,,,,green,1.2281046780977172,1.225,2.291548299996066,0.9910082999995211,1e-05,1e-05,0.03307,1.2246545999951195,1.2579515999968862,1.9996135999972466,2.0329257999983383,2.291548299996066,2.291548299996066,2.491522199998144,2.4665114999952493,0.17496319999918342,3.8499471999966772,1.5583989000006113,1.383435700001428,0.48984,0.14774828335795553,0.004715370745466666,,,,None,,0.5,0.5,1.761434678097717,1.7583333333333333,training_double_stim.csv,1.7581053000030806,1.791380599999684,p11_high1_01,001,2023-05-05_14h39.07.119,expectation_shapes_perceived_time,2022.2.4,119.7332343437205,
1,500,0.5,none,60,red,green,no_Expectation,,,,,,0,1,1,8,train_doubleStim,,,,,,red,0.4899529543769457,0.49166666666666664,2.291228999994928,0.9971176999970339,1e-05,1e-05,0.03339,0.49133699999947567,0.5247937999956775,1.999793499999214,2.0331575000018347,2.291228999994928,2.291228999994928,2.49154930000077,2.291228999994928,0.0,3.6915061000036076,1.4002771000086796,1.4002771000086796,0.26475,0.10925529539903853,0.09957444643963007,,,,None,,0.5,0.5,1.0232829543769457,1.025,training_double_stim.csv,1.024551499998779,1.05848629999673,p11_high1_01,001,2023-05-05_14h39.07.119,expectation_shapes_perceived_time,2022.2.4,119.7332343437205,
1,-500,0.5,none,46,red,green,no_Expectation,,,,,,0,2,2,4,train_doubleStim,,,,,,red,1.3384251153104454,1.3333333333333333,2.2916339000075823,0.9971594999951776,2e-05,2e-05,0.0332,1.3333244000095874,1.3665421000041533,1.9999207000073511,2.033780300000217,2.2916339000075823,2.2916339000075823,2.4913981999998214,2.2916339000075823,0.0,3.5085419000097318,1.2169080000021495,1.2169080000021495,1.32571,-0.1262111470908274,-0.07695801651879719,,,,None,,-0.5,-0.5,0.8050951153104453,0.8,training_double_stim.csv,0.7999593000131426,0.8330579000030411,p11_high1_01,001,2023-05-05_14h39.07.119,expectation_shapes_perceived_time,2022.2.4,119.7332343437205,
1,-500,0.5,none,77,green,red,no_Expectation,,,,,,0,3,3,1,train_doubleStim,,,,,,green,1.4874895867971887,1.4833333333333334,2.2921569000027375,0.9967174000048544,2e-05,2e-05,,1.4837884000007762,1.5170068000006722,2.0000756999943405,2.0334255999914603,2.2921569000027375,2.2921569000027375,2.491561399991042,2.3416368999896804,0.04947999998694286,3.0333727999968687,0.7412158999941312,0.6917359000071883,0.39981,0.14056115207148284,0.045764096023273484,,,,None,,-0.5,-0.5,0.9541595867971886,0.95,training_double_stim.csv,0.9504638999933377,0.9838293999928283,p11_high1_01,001,2023-05-05_14h39.07.119,expectation_shapes_perceived_time,2022.2.4,119.7332343437205,
1,500,0.5,none,88,red,green,no_Expectation,,,,,,0,4,4,9,train_doubleStim,,,,,,red,0.18128688184695219,0.18333333333333332,2.291631600004621,0.9982006000063848,2e-05,2e-05,0.0334,0.1831938999966951,0.21643220000260044,1.999774099997012,2.033374000006006,2.291631600004621,2.291631600004621,2.491551900006016,2.291631600004621,0.0,4.09152489999542,1.7998932999907993,1.7998932999907993,0.36721,0.13514608490757488,0.059894287629493406,,,,None,,0.5,0.5,0.7146168818469522,0.7166666666666667,training_double_stim.csv,0.7167233000072883,0.7498003000073368,p11_high1_01,001,2023-05-05_14h39.07.119,expectation_shapes_perceived_time,2022.2.4,119.7332343437205,
1,-500,0.5,none,68,red,green,no_Expectation,,,,,,0,5,5,3,train_doubleStim,,,,,,red,1.6938984287764005,1.6916666666666667,2.2916622000047937,0.9982089999975869,2e-05,2e-05,0.03315,1.6918325000006007,1.7250237999978708,2.000202499999432,2.033434099997976,2.2916622000047937,2.2916622000047937,2.491585399999167,2.849927100003697,0.5582648999989033,3.8416694000043208,1.550007199999527,0.9917423000006238,0.78002,0.09421871403138016,-0.11390620651554917,,,,None,,-0.5,-0.5,1.1605684287764007,1.1583333333333332,training_double_stim.csv,1.158127400005469,1.1915244000119856,p11_high1_01,001,2023-05-05_14h39.07.119,expectation_shapes_perceived_time,2022.2.4,119.7332343437205,
1,-500,0.5,none,59,green,red,no_Expectation,,,,,,0,6,6,0,train_doubleStim,,,,,,green,1.3358865119706762,1.3333333333333333,2.2916134999977658,0.9971600999997463,2e-05,2e-05,,1.333419499991578,1.3664898999995785,2.000278499996057,,2.2916134999977658,2.2916134999977658,2.491677099998924,2.2916134999977658,0.0,4.199750400002813,1.9081369000050472,1.9081369000050472,0.88365,0.05283704706642543,-0.13805809072195036,,,,None,,-0.5,-0.5,0.8025565119706761,0.8,training_double_stim.csv,0.7999908999918262,0.8333266999979969,p11_high1_01,001,2023-05-05_14h39.07.119,expectation_shapes_perceived_time,2022.2.4,119.7332343437205,
1,500,0.5,none,33,green,red,no_Expectation,,,,,,0,7,7,7,train_doubleStim,,,,,,green,0.7574602786410911,0.7583333333333333,2.291527599998517,0.9983989000029396,1e-05,1e-05,,0.7580285999865737,0.7914489999966463,1.9998343999905046,,2.291527599998517,2.291527599998517,2.4909205999865662,2.849426199987647,0.5578985999891302,3.70762059999106,1.416092999992543,0.8581944000034127,0.45716,0.14648650023498191,0.01983671357348713,,,,None,,0.5,0.5,1.290790278641091,1.2916666666666667,training_double_stim.csv,1.2914679999958025,1.3246640999859665,p11_high1_01,001,2023-05-05_14h39.07.119,expectation_shapes_perceived_time,2022.2.4,119.7332343437205,
1,-500,0.5,none,23,green,red,no_Expectation,,,,,,0,8,8,2,train_doubleStim,,,,,,green,1.7083436144366912,1.7083333333333333,2.2920266000000993,0.9973757000116166,2e-05,2e-05,0.03341,1.7081637000082992,1.7419400000071619,2.000051299997722,2.0333609000081196,2.2920266000000993,2.2920266000000993,2.4919430000009015,2.2920266000000993,0.0,3.6832619000051636,1.3912353000050643,1.3912353000050643,1.40655,-0.14149835250251713,-0.04277857168680751,,,,None,,-0.5,-0.5,1.1750136144366914,1.175,training_double_stim.csv,1.1750923000072362,1.2084725000022445,p11_high1_01,001,2023-05-05_14h39.07.119,expectation_shapes_perceived_time,2022.2.4,119.7332343437205,
1,500,0.5,none,98,red,green,no_Expectation,,,,,,0,9,9,5,train_doubleStim,,,,,,red,0.9670876824588407,0.9666666666666667,2.2919617000006838,0.9970077000034507,3e-05,3e-05,,0.966842199995881,1.000195699991309,2.000270799995633,,2.2919617000006838,2.2919617000006838,2.491828099999111,2.458749800003716,0.166788100003032,3.683327199993073,1.3913654999923892,1.2245773999893572,0.70303,0.11875988902549177,-0.0880220353953645,,,,None,,0.5,0.5,1.5004176824588407,1.5,training_double_stim.csv,1.499993599994923,1.533300600000075,p11_high1_01,001,2023-05-05_14h39.07.119,expectation_shapes_perceived_time,2022.2.4,119.7332343437205,
1,-500,0.5,none,46,red,green,no_Expectation,,,,,,1,0,10,4,train_doubleStim,,,,,,red,0.6760843031956337,0.675,2.291752399993129,0.9981684999947902,2e-05,2e-05,0.03377,0.6751206999906572,0.70856559999811,2.000302999993437,2.0334480999881634,2.291752399993129,2.291752399993129,2.4918274999945424,2.691743299990776,0.3999908999976469,3.5251238999917405,1.2333714999986114,0.8333806000009645,0.37832,0.13715295276450745,0.055143970699131864,,,,None,,-0.5,-0.5,0.14275430319563379,0.14166666666666666,training_double_stim.csv,0.14180459998897277,0.175751599992509,p11_high1_01,001,2023-05-05_14h39.07.119,expectation_shapes_perceived_time,2022.2.4,119.7332343437205,
1,500,0.5,none,98,red,green,no_Expectation,,,,,,1,1,11,5,train_doubleStim,,,,,,red,0.37237789649038777,0.375,2.2916208999959053,0.9984507000044687,4e-05,4e-05,,0.3746086000028299,0.40795320000324864,1.9997597000037786,,2.2916208999959053,2.2916208999959053,2.49161230000027,2.9332561000046553,0.64163520000875,3.766338600005838,1.4747177000099327,0.8330825000011828,0.42781,0.14403792615895655,0.033239521421297664,,,,None,,0.5,0.5,0.9057078964903879,0.9,training_double_stim.csv,0.8997715000004973,0.9331401000090409,p11_high1_01,001,2023-05-05_14h39.07.119,expectation_shapes_perceived_time,2022.2.4,119.7332343437205,
1,500,0.5,none,88,red,green,no_Expectation,,,,,,1,2,12,9,train_doubleStim,,,,,,red,0.2586495100267168,0.2583333333333333,2.2915151999914087,0.9986489000002621,3e-05,3e-05,0.03354,0.2582358999934513,0.29210419999435544,1.9999756000033813,2.0331490999960806,2.2915151999914087,2.2915151999914087,2.4917233000014676,2.775024399990798,0.48350919999938924,3.6585665000020526,1.367051300010644,0.8835421000112547,0.42202,0.1434098690721271,0.035852467268031776,,,,None,,0.5,0.5,0.7919795100267168,0.7916666666666666,training_double_stim.csv,0.7920283999992535,0.8254107999964617,p11_high1_01,001,2023-05-05_14h39.07.119,expectation_shapes_perceived_time,2022.2.4,119.7332343437205,
1,500,0.5,none,33,green,red,no_Expectation,,,,,,1,3,13,7,train_doubleStim,,,,,,green,0.9819318930927327,0.9833333333333333,2.291916599991964,0.9982548999978462,1e-05,1e-05,0.0334,0.9833643000019947,1.016690299991751,2.000055099997553,2.0335251999931643,2.291916599991964,2.291916599991964,2.491819000002579,2.7333857999910833,0.44146919999911916,4.158907099990756,1.866990499998792,1.425521299999673,0.85831,0.0636493005612539,-0.13341872617647452,,,,None,,0.5,0.5,1.5152618930927326,1.5083333333333333,training_double_stim.csv,1.5084250999934739,1.5417700999969384,p11_high1_01,001,2023-05-05_14h39.07.119,expectation_shapes_perceived_time,2022.2.4,119.7332343437205,
1,500,0.5,none,25,green,red,no_Expectation,,,,,,1,4,14,6,train_doubleStim,,,,,,green,0.17775388477468146,0.175,2.291030500011402,0.9988077000016347,0.00012,0.00012,0.03271,0.17459700000472367,0.2078856000007363,1.9995699999999488,2.0326851999998325,2.291030500011402,2.291030500011402,2.4912186000001384,2.7576989000081085,0.4666683999967063,3.4411537000123644,1.1501232000009622,0.683454800004256,0.26097,0.10806715537922829,0.1008626783539464,,,,None,,0.5,0.5,0.7110838847746814,0.7083333333333334,training_double_stim.csv,0.7075753000099212,0.7408572999993339,p11_high1_01,001,2023-05-05_14h39.07.119,expectation_shapes_perceived_time,2022.2.4,119.7332343437205,
1,-500,0.5,none,68,red,green,no_Expectation,,,,,,1,5,15,3,train_doubleStim,,,,,,red,1.0265248604177426,1.025,2.2916414000064833,0.9972742999962065,1e-05,1e-05,0.03374,1.0252553000027547,1.0584153000090737,2.000060200007283,2.0333251999982167,2.2916414000064833,2.2916414000064833,2.4918465000082506,2.6917525000026217,0.40011109999613836,3.9419404000072973,1.650299000000814,1.2501879000046756,0.91141,0.04061024125549402,-0.14213584439422905,,,,None,,-0.5,-0.5,0.4931948604177425,0.49166666666666664,training_double_stim.csv,0.49148960001184605,0.5248586000088835,p11_high1_01,001,2023-05-05_14h39.07.119,expectation_shapes_perceived_time,2022.2.4,119.7332343437205,
1,-500,0.5,none,77,green,red,no_Expectation,,,,,,1,6,16,1,train_doubleStim,,,,,,green,1.0363722833593654,1.0333333333333332,2.2915969000023324,0.9972967999929097,1e-05,1e-05,0.03361,1.0333176999993157,1.066630500004976,2.000012100004824,2.03334249999898,2.2915969000023324,2.2915969000023324,2.491745899998932,2.933479700004682,0.6418828000023495,3.6081841999985045,1.316587299996172,0.6747044999938225,0.9978,0.00101944823578034,-0.14781999418814928,,,,None,,-0.5,-0.5,0.5030422833593654,0.5,training_double_stim.csv,0.4998229999910109,0.5331273000047076,p11_high1_01,001,2023-05-05_14h39.07.119,expectation_shapes_perceived_time,2022.2.4,119.7332343437205,
1,-500,0.5,none,23,green,red,no_Expectation,,,,,,1,7,17,2,train_doubleStim,,,,,,green,1.3206271586925777,1.3166666666666667,2.291927800004487,0.9971182000008412,2e-05,2e-05,0.03343,1.3167086000030395,1.3503691999940202,2.0001010999985738,2.034098600008292,2.291927800004487,2.291927800004487,2.4916956999950344,2.9753362000046764,0.6834084000001894,4.500116600000183,2.208188799995696,1.5247803999955067,0.82245,0.07824284923916094,-0.12541868480983148,,,,None,,-0.5,-0.5,0.7872971586925777,0.7833333333333333,training_double_stim.csv,0.7833017999946605,0.8167313000012655,p11_high1_01,001,2023-05-05_14h39.07.119,expectation_shapes_perceived_time,2022.2.4,119.7332343437205,
1,-500,0.5,none,59,green,red,no_Expectation,,,,,,1,8,18,0,train_doubleStim,,,,,,green,1.392806536696556,1.3916666666666666,2.2915222000010544,0.9975606999942102,2e-05,2e-05,0.0333,1.3912962000031257,1.4246484999894165,1.999925500000245,2.0333485000010114,2.2915222000010544,2.2915222000010544,2.4915883999929065,2.6998817999992752,0.4083595999982208,3.4083246999944095,1.116802499993355,0.7084428999951342,1.32513,-0.12607147283749331,-0.0771866160229551,,,,None,,-0.5,-0.5,0.8594765366965561,0.8583333333333333,training_double_stim.csv,0.8582854999986012,0.8913747999904444,p11_high1_01,001,2023-05-05_14h39.07.119,expectation_shapes_perceived_time,2022.2.4,119.7332343437205,
1,500,0.5,none,60,red,green,no_Expectation,,,,,,1,9,19,8,train_doubleStim,,,,,,red,1.029728682473754,1.025,2.2916015999944648,0.9967693999933545,1e-05,1e-05,0.03313,1.024576799987699,1.0579046999919228,1.999577299997327,2.0329032999870833,2.2916015999944648,2.2916015999944648,2.4914872999943327,2.8913298999977997,0.5997283000033349,3.799657899988233,1.5080562999937683,0.9083279999904335,1.32185,-0.12526922160200957,-0.07848192196752407,,,,None,,0.5,0.5,1.5630586824737538,1.5583333333333333,training_double_stim.csv,1.5581407999998191,1.5915264999930514,p11_high1_01,001,2023-05-05_14h39.07.119,expectation_shapes_perceived_time,2022.2.4,119.7332343437205,
,,,,,,,,,0,0,0,0,0,-1,-1,0,fam,0.5320857000042452,0.5320857000042452,270.0000000000009,2.5239236000052188,2.5239236000052188,,,,,,,,,,,,,,,,,,,,,,,,,,,,,,,,,,,,p11_high1_01,001,2023-05-05_14h39.07.119,expectation_shapes_perceived_time,2022.2.4,119.7332343437205,
,,,,,,,,,1,0,1,0,0,-1,-1,0,fam,0.498090900000534,0.498090900000534,270.0000000000009,2.4900568000011845,2.4900568000011845,,,,,,,,,,,,,,,,,,,,,,,,,,,,,,,,,,,,p11_high1_01,001,2023-05-05_14h39.07.119,expectation_shapes_perceived_time,2022.2.4,119.7332343437205,
,,,,,,,,,2,0,2,0,0,-1,-1,0,fam,0.4988168999989284,0.4988168999989284,270.0000000000009,2.490656099995249,2.490656099995249,,,,,,,,,,,,,,,,,,,,,,,,,,,,,,,,,,,,p11_high1_01,001,2023-05-05_14h39.07.119,expectation_shapes_perceived_time,2022.2.4,119.7332343437205,
,,,,,,,,,3,0,3,0,0,-1,-1,0,fam,0.4988160999928368,0.4988160999928368,270.0000000000009,2.4902603999944404,2.4902603999944404,,,,,,,,,,,,,,,,,,,,,,,,,,,,,,,,,,,,p11_high1_01,001,2023-05-05_14h39.07.119,expectation_shapes_perceived_time,2022.2.4,119.7332343437205,
,-300,0.8,met,,green,red,,977.4110519594682,,,,,0,0,0,29,trial,,,,,,green,0.9774110519594682,0.975,2.2919020999979693,0.9911332000046968,1e-05,1e-05,0.0332,0.9749328000034438,1.0084151000046404,1.9994955000001937,2.032780699999421,2.2919020999979693,2.2919020999979693,2.4911531999969156,2.67446480000217,0.38256270000420045,4.033053999999538,1.7411519000015687,1.3585891999973683,0.23485,0.09943685314367914,0.10938053845804704,,,,None,,-0.3,-0.3,0.6440810519594682,0.6416666666666666,trial_list_0.8_green.csv,0.6413188000005903,0.6750700999982655,p11_high1_01,001,2023-05-05_14h39.07.119,expectation_shapes_perceived_time,2022.2.4,119.7332343437205,
,-33,0.8,met,,green,red,,1330.3664206856995,,,,,0,1,1,381,trial,,,,,,green,1.3303664206856995,1.325,2.2917204999976093,0.9970022999914363,4e-05,4e-05,,1.3251921999908518,1.3585469999961788,1.999915599997621,,2.2917204999976093,2.2917204999976093,2.491847500001313,2.758434599993052,0.46671409999544267,3.7000971999950707,1.4083766999974614,0.9416626000020187,0.81485,0.08121516198545017,-0.12351472551953882,,,,None,,-0.033,-0.03333333333333333,1.2640364206856995,1.2583333333333333,trial_list_0.8_green.csv,1.2583326999883866,1.2916219999897294,p11_high1_01,001,2023-05-05_14h39.07.119,expectation_shapes_perceived_time,2022.2.4,119.7332343437205,
,-33,0.8,met,,green,red,,649.3362313288164,,,,,0,2,2,146,trial,,,,,,green,0.6493362313288165,0.65,2.291310500004329,0.9975013999937801,1e-05,1e-05,,0.6500439000083134,0.6829318000091007,2.000125400008983,,2.291310500004329,2.291310500004329,2.4916101999988314,2.8832031000056304,0.5918926000013016,3.7995965000009164,1.5082859999965876,0.916393399995286,0.49711,0.14781740145420635,0.0013437945586746033,,,,None,,-0.033,-0.03333333333333333,0.5830062313288163,0.5833333333333334,trial_list_0.8_green.csv,0.5831695000088075,0.6167484000034165,p11_high1_01,001,2023-05-05_14h39.07.119,expectation_shapes_perceived_time,2022.2.4,119.7332343437205,
,33,0.8,met,,green,red,,396.1865849394592,,,,,0,3,3,142,trial,,,,,,green,0.3961865849394592,0.39166666666666666,2.291988600001787,0.9974338999891188,1e-05,1e-05,,0.39184350000869017,0.4252882000000682,2.0003424000024097,,2.291988600001787,2.291988600001787,2.491527500009397,2.9507579000055557,0.6587693000037689,3.783658700005617,1.4916701000038302,0.8329008000000613,0.43335,0.14459487417658534,0.030726410762524387,,,,None,,0.033,0.03333333333333333,0.4625165849394592,0.4583333333333333,trial_list_0.8_green.csv,0.4587733000080334,0.4920806000009179,p11_high1_01,001,2023-05-05_14h39.07.119,expectation_shapes_perceived_time,2022.2.4,119.7332343437205,
,-100,0.8,met,,green,red,,831.2719314052513,,,,,0,4,4,297,trial,,,,,,green,0.8312719314052512,0.8333333333333334,2.291570999994292,0.9963197999895783,1e-05,1e-05,0.03369,0.8337084999948274,0.8666824999963865,1.9997867999918526,2.0334760999976425,2.291570999994292,2.291570999994292,2.491619599997648,2.291570999994292,0.0,4.125014799996279,1.8334438000019873,1.8334438000019873,0.75468,0.10297870948401318,-0.10605270081189415,,,,None,,-0.1,-0.1,0.6979419314052513,0.7,trial_list_0.8_green.csv,0.7000097999989521,0.7335642999969423,p11_high1_01,001,2023-05-05_14h39.07.119,expectation_shapes_perceived_time,2022.2.4,119.7332343437205,
,233,0.8,met,,green,red,,964.6779152021916,,,,,0,5,5,174,trial,,,,,,green,0.9646779152021916,0.9666666666666667,2.2918858000048203,0.997153200005414,1e-05,1e-05,0.03358,0.9668138999986695,0.9999364000104833,2.0000140000047395,2.03362560000096,2.2918858000048203,2.2918858000048203,2.491563600007794,2.358270299999276,0.06638449999445584,3.4585069000022486,1.1666210999974282,1.1002366000029724,0.52915,0.14720405440637035,-0.013518739690380952,,,,None,,0.233,0.23333333333333334,1.2310079152021915,1.225,trial_list_0.8_green.csv,1.2253792000119574,1.2583916000003228,p11_high1_01,001,2023-05-05_14h39.07.119,expectation_shapes_perceived_time,2022.2.4,119.7332343437205,
,-233,0.8,met,,green,red,,591.5751678233376,,,,,0,6,6,313,trial,,,,,,green,0.5915751678233375,0.5916666666666667,2.2920506999944337,0.9975881999998819,2e-05,2e-05,0.03342,0.5917054000019561,0.6249610999948345,1.9998655999952462,2.033638599998085,2.2920506999944337,2.2920506999944337,2.492076900001848,2.9420905000006314,0.6500398000061978,3.733457800000906,1.4414071000064723,0.7913673000002746,0.51061,0.14774145368666275,-0.00492471512288876,,,,None,,-0.233,-0.23333333333333334,0.32524516782333757,0.325,trial_list_0.8_green.csv,0.32507130000158213,0.35831659998802934,p11_high1_01,001,2023-05-05_14h39.07.119,expectation_shapes_perceived_time,2022.2.4,119.7332343437205,
,33,0.8,met,,green,red,,1415.3291261922552,,,,,0,7,7,20,trial,,,,,,green,1.4153291261922551,1.4083333333333332,2.29164789999777,0.997076300001936,2e-05,2e-05,,1.408369099997799,1.441541000007419,1.999835599999642,,2.29164789999777,2.29164789999777,2.491545800003223,2.4334178999997675,0.1417700000019977,3.824944100007997,1.533296200010227,1.3915262000082294,1.35885,-0.13352565073258915,-0.06342468409797984,,,,None,,0.033,0.03333333333333333,1.4816591261922551,1.475,trial_list_0.8_green.csv,1.4748885000008158,1.5082899999979418,p11_high1_01,001,2023-05-05_14h39.07.119,expectation_shapes_perceived_time,2022.2.4,119.7332343437205,
,-100,0.1999999999999999,unmet,,red,green,,1677.1215883851607,,,,,0,8,8,337,trial,,,,,,red,1.6771215883851607,1.675,2.291681400005473,0.9974214999965625,2e-05,2e-05,0.03317,1.675151100003859,1.7081574000039836,1.9998526999988826,2.033418500010157,2.291681400005473,2.291681400005473,2.4918894000002183,2.9251001000084216,0.6334187000029488,3.666495400000713,1.37481399999524,0.7413952999922913,1.03728,-0.017271883268029455,-0.14681100777825035,,,,None,,-0.1,-0.1,1.5437915883851607,1.5416666666666667,trial_list_0.8_green.csv,1.5415104999992764,1.5750133000110509,p11_high1_01,001,2023-05-05_14h39.07.119,expectation_shapes_perceived_time,2022.2.4,119.7332343437205,
,233,0.8,met,,green,red,,733.1711154564517,,,,,0,9,9,193,trial,,,,,,green,0.7331711154564517,0.7333333333333333,2.291962799994508,0.998014199998579,2e-05,2e-05,,0.7334886000026017,0.7669905999937328,2.0002552999940235,,2.291962799994508,2.291962799994508,2.491941300002509,2.9750424999947427,0.6830797000002349,4.658322999996017,2.366360200001509,1.683280500001274,0.46148,0.1467422014049059,0.01784702449519126,,,,None,,0.233,0.23333333333333334,0.9995011154564518,1.0,trial_list_0.8_green.csv,1.0002873000048567,1.0334613000013633,p11_high1_01,001,2023-05-05_14h39.07.119,expectation_shapes_perceived_time,2022.2.4,119.7332343437205,
,-233,0.1999999999999999,unmet,,red,green,,1670.6769489705166,,,,,0,10,10,78,trial,,,,,,red,1.6706769489705167,1.6666666666666667,2.2920564000087325,0.9972003000002587,2e-05,2e-05,,1.6669336000049952,1.7000060999998823,2.000071000002208,,2.2920564000087325,2.2920564000087325,2.4921255000081146,2.8417222000134643,0.5496658000047319,4.074894300007145,1.7828378999984125,1.2331720999936806,1.25267,-0.10540166269557702,-0.10364496831731743,,,,None,,-0.233,-0.23333333333333334,1.4043469489705167,1.4,trial_list_0.8_green.csv,1.3999915000022156,1.4338093000114895,p11_high1_01,001,2023-05-05_14h39.07.119,expectation_shapes_perceived_time,2022.2.4,119.7332343437205,
,167,0.8,met,,green,red,,1166.3445794990016,,,,,0,11,11,116,trial,,,,,,green,1.1663445794990017,1.1666666666666667,2.291576999996323,0.9975375000067288,2e-05,2e-05,0.03331,1.1669496999966213,1.2002581999986432,1.9998653000075137,2.033570500003407,2.291576999996323,2.291576999996323,2.491781799995806,3.1830818000016734,0.8915048000053503,6.058130499994149,3.7665534999978263,2.875048699992476,1.02575,-0.011946485343085083,-0.14733998589804934,,,,None,,0.167,0.16666666666666666,1.3666745794990016,1.3666666666666667,trial_list_0.8_green.csv,1.366953899996588,1.4000916000077268,p11_high1_01,001,2023-05-05_14h39.07.119,expectation_shapes_perceived_time,2022.2.4,119.7332343437205,
,100,0.8,met,,green,red,,1593.2261966569522,,,,,0,12,12,202,trial,,,,,,green,1.593226196656952,1.5916666666666666,2.2920075000001816,0.9985787000041455,2e-05,2e-05,0.03336,1.5918150000070455,1.6250105000071926,2.0001548000000184,2.0332785000064177,2.2920075000001816,2.2920075000001816,2.4918169000011403,3.666660100003355,1.3746526000031736,4.516931999998633,2.224924499998451,0.8502718999952776,1.31107,-0.1225404329466769,-0.08267788247004704,,,,None,,0.1,0.1,1.726556196656952,1.7249999999999999,trial_list_0.8_green.csv,1.7250757000001613,1.7584815000009257,p11_high1_01,001,2023-05-05_14h39.07.119,expectation_shapes_perceived_time,2022.2.4,119.7332343437205,
,-300,0.8,met,,green,red,,1421.4110086722235,,,,,0,13,13,65,trial,,,,,,green,1.4214110086722236,1.4166666666666667,2.291787400012254,0.9974259000009624,1e-05,1e-05,,1.4162499000085518,1.4494713000021875,2.000146300008055,,2.291787400012254,2.291787400012254,2.491799200011883,2.907913600007305,0.6161261999950511,3.6578776000096695,1.3660901999974158,0.7499640000023646,1.17519,-0.07731409313623783,-0.12599333696275794,,,,None,,-0.3,-0.3,1.0880810086722235,1.0833333333333333,trial_list_0.8_green.csv,1.0829943000135245,1.1163235999993049,p11_high1_01,001,2023-05-05_14h39.07.119,expectation_shapes_perceived_time,2022.2.4,119.7332343437205,
,-33,0.8,met,,green,red,,1789.9073894881467,,,,,0,14,14,353,trial,,,,,,green,1.7899073894881468,1.7833333333333332,2.2919421999977203,0.9968940999970073,1e-05,1e-05,0.0334,1.7836471000046004,1.8167593000107445,1.9999747999972897,2.033338300010655,2.2919421999977203,2.2919421999977203,2.4918284000013955,2.908533499998157,0.6165913000004366,3.700400500005344,1.4084583000076236,0.791867000007187,1.71719,-0.11472789525770169,0.09321641489688261,,,,None,,-0.033,-0.03333333333333333,1.7235773894881468,1.7166666666666666,trial_list_0.8_green.csv,1.7167448000109289,1.7503020000003744,p11_high1_01,001,2023-05-05_14h39.07.119,expectation_shapes_perceived_time,2022.2.4,119.7332343437205,
,300,0.8,met,,green,red,,1263.2951185217064,,,,,0,15,15,85,trial,,,,,,green,1.2632951185217065,1.2583333333333333,2.2913828999880934,0.9967839000019012,2e-05,2e-05,0.03332,1.2580792999942787,1.2914031999971485,1.9999199000012595,2.0334733999916352,2.2913828999880934,2.2913828999880934,2.492057299998123,3.07532179998816,0.7839389000000665,4.275165799990646,1.9837829000025522,1.1998440000024857,0.95015,0.023054934959107428,-0.14601458807434703,,,,None,,0.3,0.3,1.5966251185217064,1.5916666666666666,trial_list_0.8_green.csv,1.5916754999925615,1.6249092999933055,p11_high1_01,001,2023-05-05_14h39.07.119,expectation_shapes_perceived_time,2022.2.4,119.7332343437205,
,300,0.8,met,,green,red,,1101.1549631964924,,,,,0,16,16,335,trial,,,,,,green,1.1011549631964923,1.1,2.2916543999890564,0.9968339999904856,1e-05,1e-05,0.03334,1.0998427999875275,1.132966999997734,1.9995752999966498,2.0329401999915717,2.2916543999890564,2.2916543999890564,2.4914459999999963,2.924959099997068,0.6333047000080114,3.9166859999968437,1.6250316000077873,0.9917268999997759,0.51446,0.14767103547908858,-0.006712319794504026,,,,None,,0.3,0.3,1.4344849631964924,1.4333333333333333,trial_list_0.8_green.csv,1.433424399991054,1.4666433999955188,p11_high1_01,001,2023-05-05_14h39.07.119,expectation_shapes_perceived_time,2022.2.4,119.7332343437205,
,167,0.8,met,,green,red,,860.9241319043391,,,,,0,17,17,139,trial,,,,,,green,0.8609241319043391,0.8583333333333333,2.2921945999987656,0.9967235000076471,1e-05,1e-05,,0.8584677000035299,0.8916696999949636,1.9999911999912001,,2.2921945999987656,2.2921945999987656,2.4917664999957196,2.849990599992452,0.5577959999936866,3.391654799997923,1.0994601999991573,0.5416642000054708,0.5,0.14782350948509485,0.0,,,,None,,0.167,0.16666666666666666,1.061254131904339,1.0583333333333333,trial_list_0.8_green.csv,1.058287099993322,1.0914857000025222,p11_high1_01,001,2023-05-05_14h39.07.119,expectation_shapes_perceived_time,2022.2.4,119.7332343437205,
,233,0.8,met,,green,red,,873.9779898863427,,,,,0,18,18,234,trial,,,,,,green,0.8739779898863427,0.875,2.2917053000128362,0.998655500006862,2e-05,2e-05,,0.8751855000009527,0.9081738000095356,2.000284900001134,,2.2917053000128362,2.2917053000128362,2.4915899000043282,2.8580267000070307,0.5663213999941945,3.674993300010101,1.3832879999972647,0.8169666000030702,0.9262,0.033968760966804144,-0.1438676935064646,,,,None,,0.233,0.23333333333333334,1.1403079898863424,1.1416666666666666,trial_list_0.8_green.csv,1.1414883000106784,1.175262400007341,p11_high1_01,001,2023-05-05_14h39.07.119,expectation_shapes_perceived_time,2022.2.4,119.7332343437205,
,-100,0.1999999999999999,unmet,,red,green,,1564.6122858810436,,,,,0,19,19,69,trial,,,,,,red,1.5646122858810436,1.5583333333333333,2.2918929000006756,0.9972808999882545,1e-05,1e-05,0.03339,1.5584405999979936,1.5913397000113036,1.9995730000082403,2.0329785000067204,2.2918929000006756,2.2918929000006756,2.491399899998214,2.982965000002878,0.6910721000022022,3.608353800009354,1.3164609000086784,0.6253888000064762,1.62817,-0.13600117338468093,0.05792642570088262,,,,None,,-0.1,-0.1,1.4312822858810437,1.425,trial_list_0.8_green.csv,1.4245851000014227,1.458289500005776,p11_high1_01,001,2023-05-05_14h39.07.119,expectation_shapes_perceived_time,2022.2.4,119.7332343437205,
,33,0.8,met,,green,red,,1382.5828374437033,,,,,0,20,20,52,trial,,,,,,green,1.3825828374437032,1.3833333333333333,2.291792899995926,0.9969531999959145,2e-05,2e-05,0.03316,1.3833742999995593,1.4167062000051374,2.0001383000053465,2.03310309999506,2.291792899995926,2.291792899995926,2.4913498999958392,2.774801199993817,0.4830082999978913,3.36654930000077,1.0747564000048442,0.5917481000069529,1.03602,-0.016690706341573644,-0.14687821580584806,,,,None,,0.033,0.03333333333333333,1.4489128374437032,1.4416666666666667,trial_list_0.8_green.csv,1.4416162999987137,1.4747544999991078,p11_high1_01,001,2023-05-05_14h39.07.119,expectation_shapes_perceived_time,2022.2.4,119.7332343437205,
,167,0.8,met,,green,red,,1456.2376887584508,,,,,0,21,21,343,trial,,,,,,green,1.4562376887584507,1.45,2.2915618999977596,0.9978711000003386,2e-05,2e-05,,1.4500821999972686,1.4833318000019062,2.000105600003735,,2.2915618999977596,2.2915618999977596,2.4918421000038506,2.924886199994944,0.6333242999971844,3.624877000009292,1.3333151000115322,0.6999908000143478,0.50383,0.14781278170036535,-0.0017808768879562092,,,,None,,0.167,0.16666666666666666,1.6565676887584506,1.65,trial_list_0.8_green.csv,1.6499929999990854,1.6831997999979649,p11_high1_01,001,2023-05-05_14h39.07.119,expectation_shapes_perceived_time,2022.2.4,119.7332343437205,
,100,0.8,met,,green,red,,1402.6899112097096,,,,,0,22,22,487,trial,,,,,,green,1.4026899112097095,1.4,2.2914982000074815,0.997129399998812,2e-05,2e-05,0.03341,1.399935599998571,1.4331576999975368,2.000102699996205,2.033284500008449,2.2914982000074815,2.2914982000074815,2.491701599996304,2.6250551999983145,0.333556999990833,4.041551200003596,1.7500529999961145,1.4164960000052815,0.91249,0.040128194278926374,-0.1422726888071026,,,,None,,0.1,0.1,1.5360199112097095,1.5333333333333332,trial_list_0.8_green.csv,1.5333790000004228,1.5666735999984667,p11_high1_01,001,2023-05-05_14h39.07.119,expectation_shapes_perceived_time,2022.2.4,119.7332343437205,
,-33,0.8,met,,green,red,,338.104641155359,,,,,0,23,23,485,trial,,,,,,green,0.338104641155359,0.3333333333333333,2.291813199990429,0.9983408999978565,2e-05,2e-05,0.03316,0.33330679999198765,0.3667012999940198,2.0000698999938322,2.0332783999911044,2.291813199990429,2.291813199990429,2.491588499993668,2.291813199990429,0.0,4.083325899991905,1.7915127000014763,1.7915127000014763,0.0461,0.021331951376753235,0.1462762380120222,,,,None,,-0.033,-0.03333333333333333,0.271774641155359,0.275,trial_list_0.8_green.csv,0.27479509999102447,0.3083243000000948,p11_high1_01,001,2023-05-05_14h39.07.119,expectation_shapes_perceived_time,2022.2.4,119.7332343437205,
,167,0.8,met,,green,red,,1628.579120767722,,,,,0,24,24,94,trial,,,,,,green,1.628579120767722,1.625,2.291753500001505,0.9959134999953676,2e-05,2e-05,,1.6251076000044122,1.6583660000032978,1.9999248000094667,,2.291753500001505,2.291753500001505,2.4919026999996277,2.291753500001505,0.0,3.5249007000093115,1.2331472000078065,1.2331472000078065,1.41809,-0.1429563520318385,-0.03762009263995751,,,,None,,0.167,0.16666666666666666,1.828909120767722,1.825,trial_list_0.8_green.csv,1.825007599996752,1.8582997000048636,p11_high1_01,001,2023-05-05_14h39.07.119,expectation_shapes_perceived_time,2022.2.4,119.7332343437205,
,100,0.8,met,,green,red,,1289.4438738667277,0,0,0,0,0,25,25,194,fam,0.5409098000091035,0.5409098000091035,270.0000000000009,2.5327619000017876,2.5327619000017876,,,,,,,,,,,,,,,,,,,,,,,,,,,,,,,,,,,,p11_high1_01,001,2023-05-05_14h39.07.119,expectation_shapes_perceived_time,2022.2.4,119.7332343437205,
,100,0.8,met,,green,red,,1289.4438738667277,1,0,1,0,0,25,25,194,fam,0.4979429000086384,0.4979429000086384,270.0000000000009,2.4897481000080006,2.4897481000080006,,,,,,,,,,,,,,,,,,,,,,,,,,,,,,,,,,,,p11_high1_01,001,2023-05-05_14h39.07.119,expectation_shapes_perceived_time,2022.2.4,119.7332343437205,
,100,0.8,met,,green,red,,1289.4438738667277,2,0,2,0,0,25,25,194,fam,0.49844719999236986,0.49844719999236986,270.0000000000009,2.4899944000062533,2.4899944000062533,,,,,,,,,,,,,,,,,,,,,,,,,,,,,,,,,,,,p11_high1_01,001,2023-05-05_14h39.07.119,expectation_shapes_perceived_time,2022.2.4,119.7332343437205,
,100,0.8,met,,green,red,,1289.4438738667277,3,0,3,0,0,25,25,194,fam,0.49859280000964645,0.49859280000964645,270.0000000000009,2.490044799997122,2.490044799997122,,,,,,,,,,,,,,,,,,,,,,,,,,,,,,,,,,,,p11_high1_01,001,2023-05-05_14h39.07.119,expectation_shapes_perceived_time,2022.2.4,119.7332343437205,
,100,0.8,met,,green,red,,1289.4438738667277,,,,,0,25,25,194,trial,,,,,,green,1.2894438738667278,1.2833333333333332,2.291681400005473,0.9909125999984099,2e-05,2e-05,0.03373,1.2836718000035034,1.316745100004482,2.000465899996925,2.0336447000008775,2.291681400005473,2.291681400005473,2.4916249999951106,2.4088759000005666,0.11719449999509379,3.675015799992252,1.3833343999867793,1.2661398999916855,1.33475,-0.12834674835520357,-0.07334099906011632,,,,None,,0.1,0.1,1.4227738738667277,1.4166666666666667,trial_list_0.8_green.csv,1.4167522999923676,1.4503374000050826,p11_high1_01,001,2023-05-05_14h39.07.119,expectation_shapes_perceived_time,2022.2.4,119.7332343437205,
,100,0.8,met,,green,red,,287.942065156928,,,,,0,26,26,285,trial,,,,,,green,0.287942065156928,0.2833333333333333,2.291646199999377,0.9988981000060448,2e-05,2e-05,0.03346,0.28333700000075623,0.31709179999597836,2.0000157000031322,2.033366499992553,2.291646199999377,2.291646199999377,2.491740999990725,2.291646199999377,0.0,5.141752299998188,2.8501060999988113,2.8501060999988113,0.40226,0.14090989821342814,0.044678748214013804,,,,None,,0.1,0.1,0.42127206515692794,0.4166666666666667,trial_list_0.8_green.csv,0.41673709999304265,0.4500475999957416,p11_high1_01,001,2023-05-05_14h39.07.119,expectation_shapes_perceived_time,2022.2.4,119.7332343437205,
,33,0.8,met,,green,red,,918.8849315896052,,,,,0,27,27,334,trial,,,,,,green,0.9188849315896053,0.9166666666666666,2.2911874999990687,0.9972399999969639,1e-05,1e-05,0.03307,0.9165921000094386,0.9496399000054225,2.0000696000061,2.033347500007949,2.2911874999990687,2.2911874999990687,2.4914457999984734,2.2911874999990687,0.0,3.5245764999999665,1.2333890000008978,1.2333890000008978,0.47269,0.14727960143136856,0.012669213026354284,,,,None,,0.033,0.03333333333333333,0.9852149315896053,0.9833333333333333,trial_list_0.8_green.csv,0.9833691000094404,1.0167299000022467,p11_high1_01,001,2023-05-05_14h39.07.119,expectation_shapes_perceived_time,2022.2.4,119.7332343437205,
,-167,0.8,met,,green,red,,1721.273691218886,,,,,0,28,28,215,trial,,,,,,green,1.721273691218886,1.7166666666666666,2.2916549000074156,0.9965562999859685,2e-05,2e-05,,1.7167416000011144,1.749910099999397,2.000011000011,,2.2916549000074156,2.2916549000074156,2.4917103000043426,2.976256599999033,0.6846016999916174,3.916926700010663,1.6252718000032473,0.94067010001163,1.00692,-0.0032127954765231856,-0.14778859192006655,,,,None,,-0.167,-0.16666666666666666,1.520943691218886,1.5166666666666666,trial_list_0.8_green.csv,1.5163949000125285,1.5500024000066333,p11_high1_01,001,2023-05-05_14h39.07.119,expectation_shapes_perceived_time,2022.2.4,119.7332343437205,
,-233,0.1999999999999999,unmet,,red,green,,1754.4258983679606,,,,,0,29,29,351,trial,,,,,,red,1.7544258983679606,1.75,2.291741799999727,0.9969370000035269,4e-05,4e-05,0.03326,1.7500531999976374,1.7833845999994082,1.9999944000010146,2.0331666999991285,2.291741799999727,2.291741799999727,2.4916304999933345,2.908105800001067,0.6163640000013402,4.441557600002852,2.1498158000031253,1.5334518000017852,1.26326,-0.10878790489755026,-0.10008487250574624,,,,None,,-0.233,-0.23333333333333334,1.4880958983679606,1.4833333333333334,trial_list_0.8_green.csv,1.4834121000021696,1.5167925999994623,p11_high1_01,001,2023-05-05_14h39.07.119,expectation_shapes_perceived_time,2022.2.4,119.7332343437205,
,-300,0.8,met,,green,red,,458.9808236344039,,,,,0,30,30,151,trial,,,,,,green,0.4589808236344039,0.4583333333333333,2.29165009999997,0.9984541000012541,2e-05,2e-05,0.03352,0.4582850000006147,0.4918445000075735,2.0003677000058815,2.033506899999338,2.29165009999997,2.29165009999997,2.4914622000069357,2.29165009999997,0.0,4.3415271999983815,2.0498770999984117,2.0498770999984117,0.03281,0.015210913636496399,0.14703883181946517,,,,None,,-0.3,-0.3,0.1256508236344039,0.125,trial_list_0.8_green.csv,0.12481989999650978,0.15827569999964908,p11_high1_01,001,2023-05-05_14h39.07.119,expectation_shapes_perceived_time,2022.2.4,119.7332343437205,
,300,0.1999999999999999,unmet,,red,green,,1542.4966474335135,,,,,0,31,31,184,trial,,,,,,red,1.5424966474335136,1.5416666666666667,2.291416499996558,0.9971802000072785,1e-05,1e-05,,1.5415559999964898,1.5747353000042494,1.999621399998432,,2.291416499996558,2.291416499996558,2.491346099996008,2.799767599994084,0.508351099997526,3.9581222999986494,1.6667058000020916,1.1583547000045655,0.9957,0.0019974326207409863,-0.147810013934833,,,,None,,0.3,0.3,1.8758266474335135,1.875,trial_list_0.8_green.csv,1.8748743000032846,1.9080002999980934,p11_high1_01,001,2023-05-05_14h39.07.119,expectation_shapes_perceived_time,2022.2.4,119.7332343437205,
,100,0.8,met,,green,red,,1239.2328036274114,,,,,0,32,32,75,trial,,,,,,green,1.2392328036274114,1.2333333333333334,2.291374899999937,0.9976174999901559,2e-05,2e-05,0.03336,1.2333675000118092,1.2668090000079246,1.999668100004783,2.033144600005471,2.291374899999937,2.291374899999937,2.491685700006201,2.8330348000017693,0.5416599000018323,5.48310080000374,3.191725900003803,2.6500660000019707,1.59736,-0.14096193614427882,0.0445142956245091,,,,None,,0.1,0.1,1.3725628036274113,1.3666666666666667,trial_list_0.8_green.csv,1.3663670000096317,1.400186600003508,p11_high1_01,001,2023-05-05_14h39.07.119,expectation_shapes_perceived_time,2022.2.4,119.7332343437205,
,167,0.8,met,,green,red,,561.5893430885083,,,,,0,33,33,133,trial,,,,,,green,0.5615893430885083,0.5583333333333333,2.2918631000065943,0.997238899988588,2e-05,2e-05,,0.5584014000050956,0.5916350000043167,2.000158700000611,,2.2918631000065943,2.2918631000065943,2.4919000000081724,3.0167286000069,0.7248655000003055,5.2088849000138,2.9170218000072055,2.1921563000069,1.02778,-0.012885324501636871,-0.14726085144727855,,,,None,,0.167,0.16666666666666666,0.7619193430885083,0.7583333333333333,trial_list_0.8_green.csv,0.7582489000051282,0.7916362000105437,p11_high1_01,001,2023-05-05_14h39.07.119,expectation_shapes_perceived_time,2022.2.4,119.7332343437205,
,-300,0.8,met,,green,red,,1645.0720496247852,,,,,0,34,34,299,trial,,,,,,green,1.6450720496247853,1.6416666666666666,2.2914594000030775,0.9965221999882488,2e-05,2e-05,,1.641793200004031,1.6750229000026593,2.0000768000027165,,2.2914594000030775,2.2914594000030775,2.4918313000089256,3.150274800005718,0.8588154000026407,4.1168273000075715,1.825367900004494,0.9665525000018533,1.46827,-0.14708988952502844,-0.014708988952502843,,,,None,,-0.3,-0.3,1.3117420496247854,1.3083333333333333,trial_list_0.8_green.csv,1.3082906000054209,1.341569399999571,p11_high1_01,001,2023-05-05_14h39.07.119,expectation_shapes_perceived_time,2022.2.4,119.7332343437205,
,-33,0.8,met,,green,red,,1798.1273988620312,,,,,0,35,35,291,trial,,,,,,green,1.7981273988620312,1.7916666666666667,2.291525000007823,0.997420300001977,3e-05,3e-05,0.03332,1.792152599999099,1.8253200000035577,2.000188899997738,2.033387400006177,2.291525000007823,2.291525000007823,2.4919172000081744,3.650301700006821,1.358776699998998,4.142191000006278,1.850665999998455,0.49188929999945685,1.2918,-0.11731367747586714,-0.08994048606483149,,,,None,,-0.033,-0.03333333333333333,1.7317973988620312,1.7249999999999999,trial_list_0.8_green.csv,1.72549589999835,1.7587280000007013,p11_high1_01,001,2023-05-05_14h39.07.119,expectation_shapes_perceived_time,2022.2.4,119.7332343437205,
,167,0.8,met,,green,red,,257.98029441345375,,,,,0,36,36,206,trial,,,,,,green,0.25798029441345377,0.2583333333333333,2.291524500004016,0.9962463999981992,1e-05,1e-05,0.03333,0.25820199999725446,0.2915268000069773,2.000205999996979,2.033353699996951,2.291524500004016,2.291524500004016,2.4914639000053285,2.36689240000851,0.075367900004494,4.283182900006068,1.991658400002052,1.916290499997558,1.26902,-0.11058301840139659,-0.0980978389044647,,,,None,,0.167,0.16666666666666666,0.4583102944134537,0.4583333333333333,trial_list_0.8_green.csv,0.4584750000067288,0.49185590000706725,p11_high1_01,001,2023-05-05_14h39.07.119,expectation_shapes_perceived_time,2022.2.4,119.7332343437205,
,-233,0.8,met,,green,red,,1381.0324776298664,,,,,0,37,37,384,trial,,,,,,green,1.3810324776298664,1.375,2.29194739999366,0.9978639000037219,2e-05,2e-05,,1.3752577999985078,1.408762499995646,2.0003823000006378,,2.29194739999366,2.29194739999366,2.4916859999939334,2.7506387000030372,0.4586913000093773,3.5508921000000555,1.2589447000063956,0.8002533999970183,0.57798,0.1434098690721271,-0.035852467268031776,,,,None,,-0.233,-0.23333333333333334,1.1147024776298664,1.1083333333333334,trial_list_0.8_green.csv,1.1084455999953207,1.1418587999942247,p11_high1_01,001,2023-05-05_14h39.07.119,expectation_shapes_perceived_time,2022.2.4,119.7332343437205,
,100,0.8,met,,green,red,,855.6047385014143,,,,,0,38,38,111,trial,,,,,,green,0.8556047385014143,0.85,2.291781499996432,0.996014299991657,2e-05,2e-05,,0.8501951999933226,0.8833162999944761,1.9999432999902638,,2.291781499996432,2.291781499996432,2.49184659999446,2.691662400000496,0.39988090000406373,3.70038479998766,1.4086032999912277,1.008722399987164,0.41877,0.14303658104409644,0.03731389070715559,,,,None,,0.1,0.1,0.9889347385014143,0.9833333333333333,trial_list_0.8_green.csv,0.9833851000003051,1.0168778999941424,p11_high1_01,001,2023-05-05_14h39.07.119,expectation_shapes_perceived_time,2022.2.4,119.7332343437205,
,-33,0.1999999999999999,unmet,,red,green,,710.692054529364,,,,,0,39,39,180,trial,,,,,,red,0.710692054529364,0.7083333333333334,2.2995136999961687,0.9977731999970274,0.00014,0.00014,0.03314,0.7158034999883967,0.7491673999902559,1.9992289999936474,,2.2995136999961687,2.2995136999961687,2.499555899994448,2.5824606999958633,0.2829469999996945,3.6658691999909934,1.3663554999948246,1.0834084999951301,0.61102,0.13892356205107273,-0.050517658927662815,,,,None,,-0.033,-0.03333333333333333,0.6443620545293639,0.6416666666666666,trial_list_0.8_green.csv,0.6491899999964517,0.6825054999935674,p11_high1_01,001,2023-05-05_14h39.07.119,expectation_shapes_perceived_time,2022.2.4,119.7332343437205,
,-33,0.8,met,,green,red,,1141.688495453873,,,,,0,40,40,323,trial,,,,,,green,1.141688495453873,1.1416666666666666,2.2919954000099096,0.9970786000048975,3e-05,3e-05,0.03331,1.142424999998184,1.175124200002756,2.000162900003488,2.0334689000010258,2.2919954000099096,2.2919954000099096,2.4918079000053694,3.3002640000049723,1.0082685999950627,4.225378300005104,1.9333828999951947,0.9251143000001321,0.46272,0.14681100777825037,0.017271883268029455,,,,None,,-0.033,-0.03333333333333333,1.075358495453873,1.075,trial_list_0.8_green.csv,1.075000299999374,1.1083434000029229,p11_high1_01,001,2023-05-05_14h39.07.119,expectation_shapes_perceived_time,2022.2.4,119.7332343437205,
,-300,0.8,met,,green,red,,660.2700632299208,,,,,0,41,41,100,trial,,,,,,green,0.6602700632299208,0.6583333333333333,2.29128980000678,0.9989819999900647,0.00016,0.00016,0.03283,0.6577256000018679,0.6910445000103209,1.9996905000007246,2.0328313000063645,2.29128980000678,2.29128980000678,2.4910844000114594,2.8246180999994976,0.5333282999927178,3.891228400010732,1.5999386000039522,1.0666103000112344,0.48554,0.14767103547908855,0.006712319794504025,,,,None,,-0.3,-0.3,0.3269400632299208,0.325,trial_list_0.8_green.csv,0.3246878000063589,0.35788880000473,p11_high1_01,001,2023-05-05_14h39.07.119,expectation_shapes_perceived_time,2022.2.4,119.7332343437205,
,33,0.8,met,,green,red,,270.61609034979045,,,,,0,42,42,474,trial,,,,,,green,0.27061609034979045,0.26666666666666666,2.2916018000105396,0.9976705000008224,2e-05,2e-05,0.03325,0.26681300000927877,0.30011880000529345,1.9998892000003252,2.0333391000021948,2.2916018000105396,2.2916018000105396,2.4920776000071783,2.2916018000105396,0.0,4.841832500009332,2.5502306999987923,2.5502306999987923,0.52829,0.14724009286572376,-0.013120404314767464,,,,None,,0.033,0.03333333333333333,0.33694609034979045,0.3333333333333333,trial_list_0.8_green.csv,0.33353730000089854,0.3667901000007987,p11_high1_01,001,2023-05-05_14h39.07.119,expectation_shapes_perceived_time,2022.2.4,119.7332343437205,
,300,0.8,met,,green,red,,1126.8730798159652,,,,,0,43,43,254,trial,,,,,,green,1.1268730798159652,1.125,2.29200739999942,0.996727199992165,4e-05,4e-05,0.03336,1.1251061000075424,1.1585163999989163,2.000192999999854,2.0333876000077,2.29200739999942,2.29200739999942,2.4917041000007885,3.3001856000046246,1.0081782000052044,3.9669755000068108,1.6749681000073906,0.6667899000021862,0.49233,0.1477806123543352,0.003560978610947837,,,,None,,0.3,0.3,1.460203079815965,1.4583333333333333,trial_list_0.8_green.csv,1.4586276000045473,1.4919865000119898,p11_high1_01,001,2023-05-05_14h39.07.119,expectation_shapes_perceived_time,2022.2.4,119.7332343437205,
,33,0.8,met,,green,red,,495.6610204936885,,,,,0,44,44,486,trial,,,,,,green,0.4956610204936885,0.49166666666666664,2.2922695000015665,0.996715299988864,2e-05,2e-05,0.03336,0.4918969999998808,0.5253126000025077,2.0002580000000307,2.033454799995525,2.2922695000015665,2.2922695000015665,2.4917611999990186,2.866731999994954,0.5744624999933876,5.600153399995179,3.3078838999936124,2.733421400000225,0.37275,0.1361670664414853,0.057535380186543084,,,,None,,0.033,0.03333333333333333,0.5619910204936885,0.5583333333333333,trial_list_0.8_green.csv,0.5587094999937108,0.5919453999958932,p11_high1_01,001,2023-05-05_14h39.07.119,expectation_shapes_perceived_time,2022.2.4,119.7332343437205,
,300,0.8,met,,green,red,,1462.3772270449986,,,,,0,45,45,46,trial,,,,,,green,1.4623772270449986,1.4583333333333333,2.2918384000076912,0.9984523999883095,2e-05,2e-05,0.03353,1.458678199996939,1.491682200008654,2.0001393999991706,2.033500000005006,2.2918384000076912,2.2918384000076912,2.4916493000055198,3.0001724000030663,0.708333999995375,4.258391900002607,1.966553499994916,1.2582194999995409,0.47425,0.14733998589804934,0.011946485343085083,,,,None,,0.3,0.3,1.7957072270449985,1.7916666666666667,trial_list_0.8_green.csv,1.7916617000009865,1.825122399997781,p11_high1_01,001,2023-05-05_14h39.07.119,expectation_shapes_perceived_time,2022.2.4,119.7332343437205,
,-233,0.8,met,,green,red,,1773.02925481793,,,,,0,46,46,25,trial,,,,,,green,1.77302925481793,1.7666666666666666,2.2913784999982454,0.997498100012308,2e-05,2e-05,,1.7665409999899566,1.799776199986809,1.9999544999882346,,2.2913784999982454,2.2913784999982454,2.491641599990544,3.016729499999201,0.7253510000009555,5.3581475999963,3.066769099998055,2.3414180999970995,1.22479,-0.09592956477959344,-0.1124691449140061,,,,None,,-0.233,-0.23333333333333334,1.50669925481793,1.5,trial_list_0.8_green.csv,1.4998047999979462,1.5332839999900898,p11_high1_01,001,2023-05-05_14h39.07.119,expectation_shapes_perceived_time,2022.2.4,119.7332343437205,
,-233,0.8,met,,green,red,,1430.396286244168,,,,,0,47,47,423,trial,,,,,,green,1.4303962862441681,1.425,2.2915674000105355,0.9973851999966428,1e-05,1e-05,,1.4249949000077322,1.4581907999963732,1.9996930000052089,,2.2915674000105355,2.2915674000105355,2.49161009999807,3.391414800003986,1.0998473999934504,3.908058200002415,1.6164907999918796,0.5166433999984292,1.14758,-0.0661086831762514,-0.1322173663525028,,,,None,,-0.233,-0.23333333333333334,1.1640662862441682,1.1583333333333332,trial_list_0.8_green.csv,1.158155600001919,1.1920815000048606,p11_high1_01,001,2023-05-05_14h39.07.119,expectation_shapes_perceived_time,2022.2.4,119.7332343437205,
,100,0.1999999999999999,unmet,,red,green,,286.2704643312135,,,,,0,48,48,200,trial,,,,,,red,0.28627046433121345,0.2833333333333333,2.291988900004071,0.9965360999922268,2e-05,2e-05,0.03295,0.282944899998256,0.3165219999937108,1.9995672999939416,2.0329765000060434,2.291988900004071,2.291988900004071,2.491262600000482,2.9915350999945076,0.6995461999904364,3.8662871999986237,1.5742982999945525,0.8747521000041161,0.43826,0.1450516443275371,0.02849228727862336,,,,None,,0.1,0.1,0.41960046433121345,0.4166666666666667,trial_list_0.8_green.csv,0.4166408000019146,0.44973409999511205,p11_high1_01,001,2023-05-05_14h39.07.119,expectation_shapes_perceived_time,2022.2.4,119.7332343437205,
,-100,0.8,met,,green,red,,1471.4013106172763,,,,,0,49,49,361,trial,,,,,,green,1.4714013106172763,1.4666666666666666,2.291122099995846,0.9975817999948049,1e-05,1e-05,0.03298,1.4667844000068726,1.5001298999995925,1.9995040000067092,2.0329911000007996,2.291122099995846,2.291122099995846,2.4913793000014266,2.7413087000022642,0.4501866000064183,4.9580289000005,2.6669068000046536,2.2167201999982353,1.24277,-0.10212502034502782,-0.10687502129130819,,,,None,,-0.1,-0.1,1.3380713106172764,1.3333333333333333,trial_list_0.8_green.csv,1.3328023000067333,1.3660967000032542,p11_high1_01,001,2023-05-05_14h39.07.119,expectation_shapes_perceived_time,2022.2.4,119.7332343437205,
,167,0.8,met,,green,red,,983.104962303236,0,0,0,0,0,50,50,389,fam,0.5401284000108717,0.5401284000108717,270.0000000000009,2.5316305000014836,2.5316305000014836,,,,,,,,,,,,,,,,,,,,,,,,,,,,,,,,,,,,p11_high1_01,001,2023-05-05_14h39.07.119,expectation_shapes_perceived_time,2022.2.4,119.7332343437205,
,167,0.8,met,,green,red,,983.104962303236,1,0,1,0,0,50,50,389,fam,0.4987881999986712,0.4987881999986712,270.0000000000009,2.490044999998645,2.490044999998645,,,,,,,,,,,,,,,,,,,,,,,,,,,,,,,,,,,,p11_high1_01,001,2023-05-05_14h39.07.119,expectation_shapes_perceived_time,2022.2.4,119.7332343437205,
,167,0.8,met,,green,red,,983.104962303236,2,0,2,0,0,50,50,389,fam,0.4983665000036126,0.4983665000036126,270.0000000000009,2.4899857999989763,2.4899857999989763,,,,,,,,,,,,,,,,,,,,,,,,,,,,,,,,,,,,p11_high1_01,001,2023-05-05_14h39.07.119,expectation_shapes_perceived_time,2022.2.4,119.7332343437205,
,167,0.8,met,,green,red,,983.104962303236,3,0,3,0,0,50,50,389,fam,0.49809470000036526,0.49809470000036526,270.0000000000009,2.490342499993858,2.490342499993858,,,,,,,,,,,,,,,,,,,,,,,,,,,,,,,,,,,,p11_high1_01,001,2023-05-05_14h39.07.119,expectation_shapes_perceived_time,2022.2.4,119.7332343437205,
,167,0.8,met,,green,red,,983.104962303236,,,,,0,50,50,389,trial,,,,,,green,0.983104962303236,0.9833333333333333,2.2918611000059173,0.9986691000085557,3e-05,3e-05,,0.9833299000019906,1.0166752000077395,2.0002450000029057,,2.2918611000059173,2.2918611000059173,2.4918029000109527,2.358570200012764,0.06670910000684671,3.675102799999877,1.3832416999939596,1.316532599987113,0.98509,0.0069216268533352065,-0.14766137287115105,,,,None,,0.167,0.16666666666666666,1.1834349623032359,1.1833333333333333,trial_list_0.8_green.csv,1.1839098000054946,1.2173906000098214,p11_high1_01,001,2023-05-05_14h39.07.119,expectation_shapes_perceived_time,2022.2.4,119.7332343437205,
,-300,0.1999999999999999,unmet,,red,green,,470.7552089788835,,,,,0,51,51,282,trial,,,,,,red,0.4707552089788835,0.4666666666666667,2.2916048000042792,0.9961661999986973,2e-05,2e-05,0.03292,0.46639699999650475,0.5002422999968985,1.999735999997938,2.0341608000017004,2.2916048000042792,2.2916048000042792,2.4913571999932174,2.2916048000042792,0.0,3.3748591000039596,1.0832542999996804,1.0832542999996804,0.07606,0.03498530374000087,0.14362387851158248,,,,None,,-0.3,-0.3,0.13742520897888352,0.13333333333333333,trial_list_0.8_green.csv,0.13306560000637546,0.16627960000187159,p11_high1_01,001,2023-05-05_14h39.07.119,expectation_shapes_perceived_time,2022.2.4,119.7332343437205,
,300,0.8,met,,green,red,,889.601634499655,,,,,0,52,52,330,trial,,,,,,green,0.889601634499655,0.8916666666666666,2.29168340000615,0.9973133000021335,2e-05,2e-05,,0.8914401999936672,0.9247678999963682,1.9998431999993045,,2.29168340000615,2.29168340000615,2.4923309000005247,2.29168340000615,0.0,4.1169452000031015,1.8252617999969516,1.8252617999969516,1.22654,-0.09654750282272202,-0.11193913370750377,,,,None,,0.3,0.3,1.222931634499655,1.2166666666666666,trial_list_0.8_green.csv,1.2167404999927385,1.250014100005501,p11_high1_01,001,2023-05-05_14h39.07.119,expectation_shapes_perceived_time,2022.2.4,119.7332343437205,
,167,0.8,met,,green,red,,1063.5056971268068,,,,,0,53,53,340,trial,,,,,,green,1.0635056971268069,1.0583333333333333,2.2915005999966525,0.9968427999992855,2e-05,2e-05,0.03348,1.0581756999890786,1.091823700000532,2.0006239999929676,2.0333760999928927,2.2915005999966525,2.2915005999966525,2.49178949999623,2.9331897999945795,0.6416891999979271,4.291745299997274,2.0002447000006214,1.3585555000026943,1.12283,-0.05563737597066311,-0.13695354085086303,,,,None,,0.167,0.16666666666666666,1.2638356971268068,1.2583333333333333,trial_list_0.8_green.csv,1.2583575999888126,1.2915853000013158,p11_high1_01,001,2023-05-05_14h39.07.119,expectation_shapes_perceived_time,2022.2.4,119.7332343437205,
,-167,0.8,met,,green,red,,1197.523080502047,,,,,0,54,54,320,trial,,,,,,green,1.197523080502047,1.1916666666666667,2.2917214000044623,0.9984485000022687,1e-05,1e-05,,1.1916895000031218,1.2248193000123138,1.9999450000032084,,2.2917214000044623,2.2917214000044623,2.491594000006444,3.180425300000934,0.8887038999964716,3.883054500009166,1.5913331000047037,0.7026292000082321,1.08295,-0.038088597269059964,-0.14283223975897488,,,,None,,-0.167,-0.16666666666666666,0.9971930805020469,0.9916666666666667,trial_list_0.8_green.csv,0.9916253000119468,1.0251484000036726,p11_high1_01,001,2023-05-05_14h39.07.119,expectation_shapes_perceived_time,2022.2.4,119.7332343437205,
,-33,0.8,met,,green,red,,1177.5751868369828,,,,,0,55,55,229,trial,,,,,,green,1.1775751868369828,1.175,2.291412799997488,0.9981027000030736,1e-05,1e-05,0.0333,1.1748209999932442,1.2079811999865342,1.999853899993468,2.033256299997447,2.291412799997488,2.291412799997488,2.491551299986895,3.174855599994771,0.8834427999972831,4.499653999999282,2.208241200001794,1.3247984000045108,1.08969,-0.04110352071497421,-0.14199398065172908,,,,None,,-0.033,-0.03333333333333333,1.1112451868369828,1.1083333333333334,trial_list_0.8_green.csv,1.1082055999868317,1.1415809999889461,p11_high1_01,001,2023-05-05_14h39.07.119,expectation_shapes_perceived_time,2022.2.4,119.7332343437205,
,-167,0.8,met,,green,red,,844.4739800907305,,,,,0,56,56,422,trial,,,,,,green,0.8444739800907305,0.8416666666666667,2.291806200009887,0.9963970000098925,2e-05,2e-05,0.03351,0.8417040000058478,0.8753207000117982,1.9999756000033813,2.033464600011939,2.291806200009887,2.291806200009887,2.491601800007629,2.291806200009887,0.0,3.5918628000072204,1.3000565999973333,1.3000565999973333,0.3858,0.1384114650615487,0.05190429939808076,,,,None,,-0.167,-0.16666666666666666,0.6441439800907305,0.6416666666666666,trial_list_0.8_green.csv,0.64178860001266,0.67531860001327,p11_high1_01,001,2023-05-05_14h39.07.119,expectation_shapes_perceived_time,2022.2.4,119.7332343437205,
,-33,0.8,met,,green,red,,1221.495684856336,,,,,0,57,57,134,trial,,,,,,green,1.221495684856336,1.2166666666666666,2.29131210000196,0.996972500011907,1e-05,1e-05,0.03298,1.2164553999900818,1.2497532999987016,1.9999219000019366,2.0331243999971775,2.29131210000196,2.29131210000196,2.491359999999986,2.983037799989688,0.6917256999877281,3.8832565999910003,1.5919444999890402,0.900218800001312,0.94743,0.02430203525927347,-0.1458122115556408,,,,None,,-0.033,-0.03333333333333333,1.155165684856336,1.15,trial_list_0.8_green.csv,1.1496215999941342,1.1830353999976069,p11_high1_01,001,2023-05-05_14h39.07.119,expectation_shapes_perceived_time,2022.2.4,119.7332343437205,
,233,0.8,met,,green,red,,748.143110409754,,,,,0,58,58,382,trial,,,,,,green,0.7481431104097539,0.75,2.2915515000058804,0.9985410999943269,1e-05,1e-05,0.03371,0.7498591000039596,0.7831962000054773,2.0000142000062624,,2.2915515000058804,2.2915515000058804,2.4917532999970717,2.875321100000292,0.5837695999944117,3.7503719000087585,1.4588204000028782,0.8750508000084665,0.42202,0.1434098690721271,0.035852467268031776,,,,None,,0.233,0.23333333333333334,1.014473110409754,1.0083333333333333,trial_list_0.8_green.csv,1.0085928000044078,1.0422338000062155,p11_high1_01,001,2023-05-05_14h39.07.119,expectation_shapes_perceived_time,2022.2.4,119.7332343437205,
,300,0.8,met,,green,red,,189.7945345002853,,,,,0,59,59,452,trial,,,,,,green,0.1897945345002853,0.19166666666666665,2.2921015000029,0.9973497000028146,1e-05,1e-05,0.03316,0.19134930000291206,0.2245829000021331,1.9994667999999365,2.0328556000022218,2.2921015000029,2.2921015000029,2.491412000003038,2.2921015000029,0.0,4.20798449999711,1.91588299999421,1.91588299999421,0.04443,0.02056660116673665,0.1463858083044197,,,,None,,0.3,0.3,0.5231245345002853,0.525,trial_list_0.8_green.csv,0.5247162000014214,0.5581596999982139,p11_high1_01,001,2023-05-05_14h39.07.119,expectation_shapes_perceived_time,2022.2.4,119.7332343437205,
,-233,0.8,met,,green,red,,1492.118559455468,,,,,0,60,60,6,trial,,,,,,green,1.492118559455468,1.4916666666666667,2.291681399990921,0.996934599999804,1e-05,1e-05,0.03337,1.491803599987179,1.5250759999908041,2.0000357999961125,2.0334271999890916,2.291681399990921,2.291681399990921,2.491711899987422,2.8668419999885373,0.5751605999976164,4.091611399999238,1.7999300000083167,1.2247694000107003,0.46642,0.1470017823447834,0.015564894601212359,,,,None,,-0.233,-0.23333333333333334,1.225788559455468,1.225,trial_list_0.8_green.csv,1.2251125999900978,1.2585823999979766,p11_high1_01,001,2023-05-05_14h39.07.119,expectation_shapes_perceived_time,2022.2.4,119.7332343437205,
,33,0.1999999999999999,unmet,,red,green,,336.64108399983047,,,,,0,61,61,481,trial,,,,,,red,0.33664108399983045,0.3333333333333333,2.2917050999967614,0.9970908999966923,1e-05,1e-05,0.03335,0.33339829999022186,0.3666139999986626,1.9998380999895744,2.033167499990668,2.2917050999967614,2.2917050999967614,2.4917596000013873,2.2917050999967614,0.0,3.7750388999993447,1.4833338000025833,1.4833338000025833,0.03338,0.015474872237148002,0.14701128625290602,,,,None,,0.033,0.03333333333333333,0.40297108399983045,0.4,trial_list_0.8_green.csv,0.4000491999904625,0.43330479999713134,p11_high1_01,001,2023-05-05_14h39.07.119,expectation_shapes_perceived_time,2022.2.4,119.7332343437205,
