id,delay,expectation,congruency,trial_num,stim_color,distractor_color,block,targetTimeMs,famLoop.thisRepN,famLoop.thisTrialN,famLoop.thisN,famLoop.thisIndex,trialss.thisRepN,trialss.thisTrialN,trialss.thisN,trialss.thisIndex,isTrial,handMove.started,audioCue2Start.started,handOri,handMove.ended,audioCue2End.started,target_color,expected_target_onset,expected_target_onset_in_frames,fixationPoint.started,fixationPoint.stopped,audCueStart.started,placeholder.started,target.started,target.stopped,audCueEnd.started,audCueEnd.stopped,responsePointer.started,cueForRep.started,space2pass.started,responseStarted,rtUntillMotionTreshold,responsePointer.stopped,rTAfterMotionTreshold,rtDurationBtwRespMotion,perceivedTime,resp_x_coord,resp_y_coord,feedbackPointer.stopped,actualTime_x_coord,actualTime_y_coord,space2pass.keys,space2pass.rt,audCueStart.stopped,expected_delay,expected_delays_frame,expected_distractor,expected_distractor_frame,expBlockFiles,distractor.started,distractor.stopped,participant,session,date,expName,psychopyVersion,frameRate,
,,,,,,,,,0,0,0,0,,,,,fam,0.6316539999970701,0.6316539999970701,269.99999999999955,2.639968700008467,2.639968700008467,,,,,,,,,,,,,,,,,,,,,,,,,,,,,,,,,,,,p10_base1_01,001,2023-05-05_15h52.36.363,expectation_shapes_perceived_time,2022.2.4,120.39460537091526,
,,,,,,,,,1,0,1,0,,,,,fam,0.49829899999895133,0.49829899999895133,269.99999999999955,2.506855400002678,2.506855400002678,,,,,,,,,,,,,,,,,,,,,,,,,,,,,,,,,,,,p10_base1_01,001,2023-05-05_15h52.36.363,expectation_shapes_perceived_time,2022.2.4,120.39460537091526,
,,,,,,,,,2,0,2,0,,,,,fam,0.4984797999932198,0.4984797999932198,269.99999999999955,2.506456999995862,2.506456999995862,,,,,,,,,,,,,,,,,,,,,,,,,,,,,,,,,,,,p10_base1_01,001,2023-05-05_15h52.36.363,expectation_shapes_perceived_time,2022.2.4,120.39460537091526,
,,,,,,,,,3,0,3,0,,,,,fam,0.4991325000009965,0.4991325000009965,269.99999999999955,2.507742900008452,2.507742900008452,,,,,,,,,,,,,,,,,,,,,,,,,,,,,,,,,,,,p10_base1_01,001,2023-05-05_15h52.36.363,expectation_shapes_perceived_time,2022.2.4,120.39460537091526,
,,,,,,,,,4,0,4,0,,,,,fam,0.49920839999685995,0.49920839999685995,269.99999999999955,2.5073323999968125,2.5073323999968125,,,,,,,,,,,,,,,,,,,,,,,,,,,,,,,,,,,,p10_base1_01,001,2023-05-05_15h52.36.363,expectation_shapes_perceived_time,2022.2.4,120.39460537091526,
,,,,,,,,,,,,,0,0,0,0,test,,,,,,green,1.2864363038508153,1.2916666666666667,2.308259299999918,0.9989707000058843,1.4599994756281376e-05,1e-05,1.291616399990744,1.3246510999888415,2.000133499997901,2.0335743999894476,2.308259299999918,2.308259299999918,2.6084902999864426,3.4415064999921015,1.1332471999921836,6.216411099987454,3.908151799987536,2.7749045999953523,0.48509,0.14766137287115105,0.0069216268533352065,6.216411099987454,-0.11578183601639762,-0.09190406087416339,space,3.6059500999981537,,,,,,,,,p10_base1_01,001,2023-05-05_15h52.36.363,expectation_shapes_perceived_time,2022.2.4,120.39460537091526,
,,,,,,,,,,,,,1,0,1,0,test,,,,,,green,1.6850971893166677,1.6916666666666667,2.3083379000017885,0.998818799998844,1.6300007700920105e-05,2e-05,1.6915184000099543,1.7249219000077574,1.9999982000008458,2.0332992000039667,2.3083379000017885,2.3083379000017885,2.6086170000053244,2.3083379000017885,0.0,6.39140629999747,4.083068399995682,4.083068399995682,1.63974,-0.13380616704693318,0.06283072191769037,6.39140629999747,-0.12352719159499104,0.0811961999920212,space,3.780820300002233,0.033118100007413886,,,,,,,,p10_base1_01,001,2023-05-05_15h52.36.363,expectation_shapes_perceived_time,2022.2.4,120.39460537091526,
,,,,,,,,,,,,,2,0,2,0,test,,,,,,red,1.3173594025954154,1.325,2.308610599997337,0.9985081000049831,1.3999990187585354e-05,1e-05,1.325244499996188,1.3587634999857983,1.9999341999937315,,2.308610599997337,2.308610599997337,2.60863829999289,2.308610599997337,0.0,3.9751091999933124,1.6664985999959754,1.6664985999959754,1.58312,-0.14281178541071915,0.03816521851493357,3.9751091999933124,-0.12415014735358951,-0.080240456557599,space,1.3666044999990845,,,,,,,,,p10_base1_01,001,2023-05-05_15h52.36.363,expectation_shapes_perceived_time,2022.2.4,120.39460537091526,
,,,,,,,,,,,,,3,0,3,0,test,,,,,,red,0.7815139153510408,0.7833333333333333,2.3082626999967033,0.997766500004218,2.0199993741698563e-05,2e-05,0.7834438999998383,0.8167403999977978,1.999621399998432,2.0330300999921747,2.3082626999967033,2.3082626999967033,2.6083146999881137,2.316531699994812,0.008268999998108484,3.833112099993741,1.5248493999970378,1.5165803999989294,1.08891,-0.040755701835662426,-0.14209420369730957,3.833112099993741,0.09368346725076548,-0.11434683170234616,space,1.2231823000038275,0.03318149999540765,,,,,,,,p10_base1_01,001,2023-05-05_15h52.36.363,expectation_shapes_perceived_time,2022.2.4,120.39460537091526,
,,,,,,,,,,,,,4,0,4,0,test,,,,,,green,1.3026647747223017,1.3083333333333333,2.3084881999966456,0.9986519000085536,2.3899992811493576e-05,2e-05,1.308393299987074,1.341896399986581,1.9998488999990514,2.0329537999932654,2.3084881999966456,2.3084881999966456,2.607983599998988,2.3165685999993,0.008080400002654642,4.425196699987282,2.1167084999906365,2.108628099987982,1.38874,-0.1388856252513326,-0.05062186340936422,4.425196699987282,-0.1203149308954107,-0.08588426724448704,space,1.8141040000045905,0.03307279999717139,,,,,,,,p10_base1_01,001,2023-05-05_15h52.36.363,expectation_shapes_perceived_time,2022.2.4,120.39460537091526,
,,,,,,,,,0,0,0,0,0,-1,-1,0,fam,0.5324311000003945,0.5324311000003945,269.99999999999955,2.5404757000069367,2.5404757000069367,,,,,,,,,,,,,,,,,,,,,,,,,,,,,,,,,,,,p10_base1_01,001,2023-05-05_15h52.36.363,expectation_shapes_perceived_time,2022.2.4,120.39460537091526,
,,,,,,,,,1,0,1,0,0,-1,-1,0,fam,0.5065963000088232,0.5065963000088232,269.99999999999955,2.514557500006049,2.514557500006049,,,,,,,,,,,,,,,,,,,,,,,,,,,,,,,,,,,,p10_base1_01,001,2023-05-05_15h52.36.363,expectation_shapes_perceived_time,2022.2.4,120.39460537091526,
,,,,,,,,,2,0,2,0,0,-1,-1,0,fam,0.49809819999791216,0.49809819999791216,269.99999999999955,2.5065042000060203,2.5065042000060203,,,,,,,,,,,,,,,,,,,,,,,,,,,,,,,,,,,,p10_base1_01,001,2023-05-05_15h52.36.363,expectation_shapes_perceived_time,2022.2.4,120.39460537091526,
,,,,,,,,,3,0,3,0,0,-1,-1,0,fam,0.49821150000207126,0.49821150000207126,269.99999999999955,2.5065789999935078,2.5065789999935078,,,,,,,,,,,,,,,,,,,,,,,,,,,,,,,,,,,,p10_base1_01,001,2023-05-05_15h52.36.363,expectation_shapes_perceived_time,2022.2.4,120.39460537091526,
1,500,0.5,none,98,red,green,no_Expectation,,,,,,0,0,0,5,train_doubleStim,,,,,,red,0.5570714252221264,0.5583333333333333,2.3087614999967627,0.9911953999981051,2e-05,2e-05,0.5583134000044083,0.5918996999971569,2.000290500000119,,2.3087614999967627,2.3087614999967627,2.508203699995647,2.3087614999967627,0.0,3.9913075999938883,1.6825460999971256,1.6825460999971256,0.52145,0.14748804745520872,-0.009953181116609177,,,,None,,,0.5,0.5,1.0904014252221264,1.0916666666666666,training_double_stim.csv,1.0917653999931645,1.125296400001389,p10_base1_01,001,2023-05-05_15h52.36.363,expectation_shapes_perceived_time,2022.2.4,120.39460537091526,
1,500,0.5,none,33,green,red,no_Expectation,,,,,,0,1,1,7,train_doubleStim,,,,,,green,1.0744242761073275,1.075,2.308347700003651,0.9979124999954365,2e-05,2e-05,1.074913699994795,1.1081124000047566,1.9999034999927972,,2.308347700003651,2.308347700003651,2.508590900004492,2.591695700000855,0.28334799999720417,3.2914412999962224,0.9830935999925714,0.6997455999953672,0.9841,0.007381953791968486,-0.14763907583936972,,,,None,,,0.5,0.5,1.6077542761073274,1.6166666666666667,training_double_stim.csv,1.6167840999987675,1.6497816000046441,p10_base1_01,001,2023-05-05_15h52.36.363,expectation_shapes_perceived_time,2022.2.4,120.39460537091526,
1,-500,0.5,none,68,red,green,no_Expectation,,,,,,0,2,2,3,train_doubleStim,,,,,,red,1.6662071395657212,1.675,2.3080940999934683,0.9974542000127258,2e-05,2e-05,1.6750215999927605,1.708611199996085,2.0001989000011235,,2.3080940999934683,2.3080940999934683,2.508856600004947,2.3080940999934683,0.0,4.575202899999567,2.267108800006099,2.267108800006099,1.64981,-0.13175184643406807,0.06703164116821006,,,,None,,,-0.5,-0.5,1.1328771395657213,1.1333333333333333,training_double_stim.csv,1.1333627999993041,1.1665592999925138,p10_base1_01,001,2023-05-05_15h52.36.363,expectation_shapes_perceived_time,2022.2.4,120.39460537091526,
1,-500,0.5,none,77,green,red,no_Expectation,,,,,,0,3,3,1,train_doubleStim,,,,,,green,1.0493194882581327,1.05,2.30879239999922,0.9976046000083443,1e-05,1e-05,1.0497600000089733,1.0832863000105135,1.9997952000121586,2.0332674000092084,2.30879239999922,2.30879239999922,2.5079244000080507,2.44166640000185,0.13287400000263005,3.5915603000030387,1.2827679000038188,1.1498939000011887,1.35576,-0.1329035026043228,-0.0647182273551485,,,,None,,0.03365,-0.5,-0.5,0.5159894882581326,0.5166666666666666,training_double_stim.csv,0.5166051999985939,0.5497916000022087,p10_base1_01,001,2023-05-05_15h52.36.363,expectation_shapes_perceived_time,2022.2.4,120.39460537091526,
1,-500,0.5,none,23,green,red,no_Expectation,,,,,,0,4,4,2,train_doubleStim,,,,,,green,0.8118798659514994,0.8166666666666667,2.3083508999989135,0.9984840999968583,2e-05,2e-05,0.8165110999980243,0.8499534000002313,1.9998593000054825,,2.3083508999989135,2.3083508999989135,2.508530299994163,2.31665759999305,0.00830669999413658,3.632989199992153,1.3246382999932393,1.3163315999991028,1.0083,-0.0038549539833470036,-0.1477732360283018,,,,None,,0.03305,-0.5,-0.5,0.2785498659514994,0.2833333333333333,training_double_stim.csv,0.2831446999916807,0.3164747999981046,p10_base1_01,001,2023-05-05_15h52.36.363,expectation_shapes_perceived_time,2022.2.4,120.39460537091526,
1,500,0.5,none,25,green,red,no_Expectation,,,,,,0,5,5,6,train_doubleStim,,,,,,green,0.2990806682414647,0.3,2.308529899994028,0.997925599993323,2e-05,2e-05,0.3007696999993641,0.33388779999222606,2.0005935999943176,,2.308529899994028,2.308529899994028,2.5088864999997895,2.4252611999982037,0.11673130000417586,3.3757984999974724,1.0672686000034446,0.9505372999992687,0.48485,0.14765619363126742,0.00703124731577464,,,,None,,,0.5,0.5,0.8324106682414647,0.8333333333333334,training_double_stim.csv,0.8337443000054918,0.8669621000008192,p10_base1_01,001,2023-05-05_15h52.36.363,expectation_shapes_perceived_time,2022.2.4,120.39460537091526,
1,-500,0.5,none,46,red,green,no_Expectation,,,,,,0,6,6,4,train_doubleStim,,,,,,red,1.2900305125175495,1.2916666666666667,2.308613300003344,0.997894100000849,2e-05,2e-05,1.2919605000060983,1.3251780999999028,2.0005658000009134,2.0337169999984326,2.308613300003344,2.308613300003344,2.508232499996666,2.6415829000034137,0.3329696000000695,3.391792499998701,1.0831791999953566,0.7502095999952871,1.50442,-0.1478092538787658,0.0020529063038717474,,,,None,,0.03337,-0.5,-0.5,0.7567005125175496,0.7583333333333333,training_double_stim.csv,0.758122999992338,0.7915442999947118,p10_base1_01,001,2023-05-05_15h52.36.363,expectation_shapes_perceived_time,2022.2.4,120.39460537091526,
1,500,0.5,none,60,red,green,no_Expectation,,,,,,0,7,7,8,train_doubleStim,,,,,,red,0.8699880937004932,0.875,2.3084709999966435,0.9975850000046194,1e-05,1e-05,0.87536029999319,0.9086076999956276,2.0003720999957295,2.0337914999981876,2.3084709999966435,2.3084709999966435,2.508668700000271,2.558564799997839,0.25009380000119563,4.441927299994859,2.1334562999982154,1.8833624999970198,1.00325,-0.0015083246341995665,-0.1478158141515575,,,,None,,0.03333,0.5,0.5,1.4033180937004932,1.4083333333333332,training_double_stim.csv,1.408859000002849,1.441836300000432,p10_base1_01,001,2023-05-05_15h52.36.363,expectation_shapes_perceived_time,2022.2.4,120.39460537091526,
1,-500,0.5,none,59,green,red,no_Expectation,,,,,,0,8,8,0,train_doubleStim,,,,,,green,1.7720392776300185,1.775,2.3082185000093887,0.9976364000031026,2e-05,2e-05,1.7751526000065496,1.808340000003227,2.0000268000003416,,2.3082185000093887,2.3082185000093887,2.508313600003021,2.6499928000121145,0.3417743000027258,4.074839300010353,1.7666208000009647,1.4248464999982389,1.5,-0.14782350948509485,0.0,,,,None,,,-0.5,-0.5,1.2387092776300186,1.2416666666666667,training_double_stim.csv,1.2420127000077628,1.2750783000083175,p10_base1_01,001,2023-05-05_15h52.36.363,expectation_shapes_perceived_time,2022.2.4,120.39460537091526,
1,500,0.5,none,88,red,green,no_Expectation,,,,,,0,9,9,9,train_doubleStim,,,,,,red,1.042322022315304,1.0416666666666667,2.308264199993573,0.9967273999936879,2e-05,2e-05,1.041559099990991,1.0750038999976823,2.0000784000003478,2.0334098000021186,2.308264199993573,2.308264199993573,2.5087198999972316,2.566538400002173,0.2582742000086,3.750226999996812,1.441962800003239,1.183688599994639,1.02341,-0.010862809444866768,-0.147423842466049,,,,None,,0.03307,0.5,0.5,1.5756520223153039,1.5833333333333333,training_double_stim.csv,1.5830962999898475,1.616452099988237,p10_base1_01,001,2023-05-05_15h52.36.363,expectation_shapes_perceived_time,2022.2.4,120.39460537091526,
,,,,,,,,,0,0,0,0,0,-1,-1,0,fam,0.5400577000109479,0.5400577000109479,269.99999999999955,2.548631600002409,2.548631600002409,,,,,,,,,,,,,,,,,,,,,,,,,,,,,,,,,,,,p10_base1_01,001,2023-05-05_15h52.36.363,expectation_shapes_perceived_time,2022.2.4,120.39460537091526,
,,,,,,,,,1,0,1,0,0,-1,-1,0,fam,0.49838020000606775,0.49838020000606775,269.99999999999955,2.506987000000663,2.506987000000663,,,,,,,,,,,,,,,,,,,,,,,,,,,,,,,,,,,,p10_base1_01,001,2023-05-05_15h52.36.363,expectation_shapes_perceived_time,2022.2.4,120.39460537091526,
,,,,,,,,,2,0,2,0,0,-1,-1,0,fam,0.4983501999959117,0.4983501999959117,269.99999999999955,2.5072578999970574,2.5072578999970574,,,,,,,,,,,,,,,,,,,,,,,,,,,,,,,,,,,,p10_base1_01,001,2023-05-05_15h52.36.363,expectation_shapes_perceived_time,2022.2.4,120.39460537091526,
,,,,,,,,,3,0,3,0,0,-1,-1,0,fam,0.4990972000086913,0.4990972000086913,269.99999999999955,2.506727800006047,2.506727800006047,,,,,,,,,,,,,,,,,,,,,,,,,,,,,,,,,,,,p10_base1_01,001,2023-05-05_15h52.36.363,expectation_shapes_perceived_time,2022.2.4,120.39460537091526,
,-33,0.5,none,,red,green,,1217.6178991325385,,,,,0,0,0,232,trial,,,,,,red,1.2176178991325384,1.225,2.3078872000041883,0.9910659000015585,1e-05,1e-05,1.224460099998396,1.2578006999974605,1.9997968999959994,,2.3078872000041883,2.3078872000041883,2.5081919000076596,2.5828796999994665,0.2749924999952782,3.899628200000734,1.5917409999965457,1.3167485000012675,0.9951,0.0022739387489763337,-0.14780601868346172,,,,None,,0.03315,-0.033,-0.03333333333333333,1.1512878991325386,1.1583333333333332,trial_list_0.5_green.csv,1.1580610000091838,1.1912929999962216,p10_base1_01,001,2023-05-05_15h52.36.363,expectation_shapes_perceived_time,2022.2.4,120.39460537091526,
,167,0.5,none,,green,red,,616.2976003768565,,,,,0,1,1,279,trial,,,,,,green,0.6162976003768565,0.6166666666666667,2.3079088999948,0.9986993999918923,1e-05,1e-05,0.6163204999902518,0.6499870999978157,1.999393299993244,,2.3079088999948,2.3079088999948,2.507925300000352,2.366419899990433,0.05851099999563303,3.7578432000009343,1.4499343000061344,1.3914233000105014,1.0,0.0,-0.14782350948509485,,,,None,,,0.167,0.16666666666666666,0.8166276003768566,0.8166666666666667,trial_list_0.5_green.csv,0.8164390999882016,0.8498521000001347,p10_base1_01,001,2023-05-05_15h52.36.363,expectation_shapes_perceived_time,2022.2.4,120.39460537091526,
,-100,0.5,none,,green,red,,1748.4750143799515,,,,,0,2,2,393,trial,,,,,,green,1.7484750143799515,1.7583333333333333,2.3079925999918487,0.9976584999967599,1e-05,1e-05,1.7580263999989256,1.7911590000003343,1.9994751999911387,2.0326668999914546,2.3079925999918487,2.3079925999918487,2.507824600004824,2.3913325000030454,0.08333990001119673,4.024594899994554,1.7166023000027053,1.6332623999915086,1.91971,-0.03689321213090665,0.14314566306791782,,,,None,,0.03303,-0.1,-0.1,1.6151450143799515,1.6166666666666667,trial_list_0.5_green.csv,1.6164376999950036,1.6497641000023577,p10_base1_01,001,2023-05-05_15h52.36.363,expectation_shapes_perceived_time,2022.2.4,120.39460537091526,
,-100,0.5,none,,green,red,,384.71678603085934,,,,,0,3,3,465,trial,,,,,,green,0.38471678603085935,0.3833333333333333,2.3088050999940606,0.9966520000016317,1e-05,1e-05,0.38392389999353327,0.4174806999944849,2.0002036999940174,2.0333896999945864,2.3088050999940606,2.3088050999940606,2.5088632999977563,2.3088050999940606,0.0,3.441683400000329,1.1328783000062685,1.1328783000062685,0.70156,0.11916530077581552,-0.0874724016333114,,,,None,,,-0.1,-0.1,0.25138678603085934,0.25,trial_list_0.5_green.csv,0.2503124999930151,0.284171499995864,p10_base1_01,001,2023-05-05_15h52.36.363,expectation_shapes_perceived_time,2022.2.4,120.39460537091526,
,167,0.5,none,,red,green,,511.4995199538423,,,,,0,4,4,160,trial,,,,,,red,0.5114995199538424,0.5166666666666666,2.3082517000002554,0.9986016000038944,1e-05,1e-05,0.516853799999808,0.5502115999988746,2.0000484000047436,2.033664200003841,2.3082517000002554,2.3082517000002554,2.5081599000113783,2.3082517000002554,0.0,3.416519900012645,1.1082682000123896,1.1082682000123896,0.52703,0.14729105026914252,-0.012535408533544045,,,,None,,0.03349,0.167,0.16666666666666666,0.7118295199538424,0.7166666666666667,trial_list_0.5_green.csv,0.7169266000128118,0.7500552999990759,p10_base1_01,001,2023-05-05_15h52.36.363,expectation_shapes_perceived_time,2022.2.4,120.39460537091526,
,-167,0.5,none,,red,green,,905.4156378598458,,,,,0,5,5,116,trial,,,,,,red,0.9054156378598458,0.9083333333333333,2.3083940999931656,0.9976683999993838,2e-05,2e-05,0.9084232000022894,0.9416235999960918,1.9998814999999013,,2.3083940999931656,2.3083940999931656,2.50826689999667,2.4334865999990143,0.1250925000058487,3.266327100005583,0.9579330000124173,0.8328405000065686,1.08354,-0.038353772065933586,-0.14276126268986394,,,,None,,,-0.167,-0.16666666666666666,0.7050856378598458,0.7083333333333334,trial_list_0.5_green.csv,0.7084182999969926,0.7416708999953698,p10_base1_01,001,2023-05-05_15h52.36.363,expectation_shapes_perceived_time,2022.2.4,120.39460537091526,
,-100,0.5,none,,green,red,,1276.1531132806526,,,,,0,6,6,311,trial,,,,,,green,1.2761531132806527,1.2833333333333332,2.3082005999895046,0.9990281000063987,1e-05,1e-05,1.2831150999991223,1.3165219999937108,1.9998367999942275,2.0330976999975974,2.3082005999895046,2.3082005999895046,2.5085430999897653,2.6661235999927158,0.3579230000032112,5.875127999999677,3.5669274000101723,3.209004400006961,1.35835,-0.13342604382965984,-0.0636339593649147,,,,None,,0.03283,-0.1,-0.1,1.1428231132806528,1.15,trial_list_0.5_green.csv,1.1499920999922324,1.1832399999984773,p10_base1_01,001,2023-05-05_15h52.36.363,expectation_shapes_perceived_time,2022.2.4,120.39460537091526,
,233,0.5,none,,red,green,,833.6463214316756,,,,,0,7,7,334,trial,,,,,,red,0.8336463214316756,0.8333333333333334,2.308107100005145,0.9965480000100797,1e-05,1e-05,0.8331873999995878,0.8667323999979999,1.9995098000072176,,2.308107100005145,2.308107100005145,2.5082634999998845,2.3497893000021577,0.0416821999970125,3.2578973000054248,0.9497902000002796,0.9081080000032671,0.98656,0.006240495499627665,-0.14769172682452142,,,,None,,0.03356,0.233,0.23333333333333334,1.0999763214316753,1.1,trial_list_0.5_green.csv,1.1002204999967944,1.1335740000067744,p10_base1_01,001,2023-05-05_15h52.36.363,expectation_shapes_perceived_time,2022.2.4,120.39460537091526,
,-33,0.5,none,,green,red,,636.5261432080581,,,,,0,8,8,411,trial,,,,,,green,0.6365261432080581,0.6416666666666666,2.3086478000041097,0.9986004000093089,1e-05,1e-05,0.6419480000040494,0.6750889999966603,1.9999344999960158,,2.3086478000041097,2.3086478000041097,2.508446699997876,2.3086478000041097,0.0,3.9080982000014046,1.5994503999972949,1.5994503999972949,1.27482,-0.11235083237092316,-0.09606810304180388,,,,None,,,-0.033,-0.03333333333333333,0.5701961432080581,0.575,trial_list_0.5_green.csv,0.5750682999932906,0.6083696999994572,p10_base1_01,001,2023-05-05_15h52.36.363,expectation_shapes_perceived_time,2022.2.4,120.39460537091526,
,233,0.5,none,,red,green,,798.9400221361005,,,,,0,9,9,142,trial,,,,,,red,0.7989400221361005,0.8,2.3081628999934765,0.997761000005994,1e-05,1e-05,0.7999999999883585,0.8333743999974104,1.9997131999989506,2.0329848999972455,2.3081628999934765,2.3081628999934765,2.5079502999869874,2.5746092999906978,0.2664463999972213,3.9579462999972748,1.6497834000037983,1.383337000006577,1.05404,-0.024976824125675912,-0.14569814073310947,,,,None,,,0.233,0.23333333333333334,1.0652700221361007,1.0666666666666667,trial_list_0.5_green.csv,1.0666045999969356,1.0998510999925202,p10_base1_01,001,2023-05-05_15h52.36.363,expectation_shapes_perceived_time,2022.2.4,120.39460537091526,
,167,0.5,none,,green,red,,1285.9460438566728,,,,,0,10,10,165,trial,,,,,,green,1.2859460438566728,1.2916666666666667,2.3081989000056637,0.9980185000022175,1e-05,1e-05,1.2918024999962654,1.3251270000037039,1.9999689999967813,2.033220800003619,2.3081989000056637,2.3081989000056637,2.5083703999989666,2.558239100006176,0.2500402000005124,3.8749405999988085,1.5667416999931447,1.3167014999926323,1.40078,-0.14069963495843713,-0.045336549042163075,,,,None,,0.03338,0.167,0.16666666666666666,1.4862760438566727,1.4916666666666667,trial_list_0.5_green.csv,1.4915433999995003,1.5249486999964574,p10_base1_01,001,2023-05-05_15h52.36.363,expectation_shapes_perceived_time,2022.2.4,120.39460537091526,
,-300,0.5,none,,green,red,,1428.3933601702329,,,,,0,11,11,281,trial,,,,,,green,1.4283933601702328,1.4333333333333333,2.308374600004754,0.9968442000099458,1e-05,1e-05,1.4333568000001833,1.466633100004401,1.9999917000095593,,2.308374600004754,2.308374600004754,2.5083459000015864,2.5083459000015864,0.19997129999683239,3.5003108000091743,1.1919362000044202,0.9919649000075879,1.50945,-0.14775834274168817,0.004388861665594698,,,,None,,,-0.3,-0.3,1.0950633601702329,1.1,trial_list_0.5_green.csv,1.1000231000070926,1.133372900003451,p10_base1_01,001,2023-05-05_15h52.36.363,expectation_shapes_perceived_time,2022.2.4,120.39460537091526,
,300,0.5,none,,green,red,,864.4476833527744,,,,,0,12,12,85,trial,,,,,,green,0.8644476833527744,0.8666666666666667,2.308683999988716,0.9977517999941483,2e-05,2e-05,0.8672358999901917,0.9004444999882253,2.0003718999942066,,2.308683999988716,2.308683999988716,2.508785500001977,2.4003202999883797,0.0916362999996636,3.374995399994077,1.066311400005361,0.9746751000056975,1.13963,-0.06278363219702668,-0.1338282686305042,,,,None,,,0.3,0.3,1.1977776833527745,1.2,trial_list_0.5_green.csv,1.2002645999891683,1.234099099994637,p10_base1_01,001,2023-05-05_15h52.36.363,expectation_shapes_perceived_time,2022.2.4,120.39460537091526,
,233,0.5,none,,red,green,,1465.0851345512915,,,,,0,13,13,114,trial,,,,,,red,1.4650851345512914,1.4666666666666666,2.308200300001772,0.9974135999946157,3e-05,3e-05,1.4665396000054898,1.500290900003165,1.9998784000054002,2.0335160000104224,2.308200300001772,2.308200300001772,2.5078809000115143,2.691376400005538,0.3831761000037659,3.8080867000098806,1.4998864000081085,1.1167103000043426,1.45759,-0.1465135618809971,-0.019635838190236725,,,,None,,0.03313,0.233,0.23333333333333334,1.7314151345512914,1.7333333333333334,trial_list_0.5_green.csv,1.7332289000041783,1.7666801000013947,p10_base1_01,001,2023-05-05_15h52.36.363,expectation_shapes_perceived_time,2022.2.4,120.39460537091526,
,-100,0.5,none,,red,green,,581.3539796878179,,,,,0,14,14,42,trial,,,,,,red,0.5813539796878179,0.5833333333333334,2.308154599988484,0.9975781999964966,2e-05,2e-05,0.5829446999996435,0.6164909999934025,1.9998290999938035,2.0332580999966012,2.308154599988484,2.308154599988484,2.507852599999751,2.308154599988484,0.0,3.3583637999981875,1.0502092000097036,1.0502092000097036,0.76735,0.09867884696774738,-0.11006486777171823,,,,None,,0.03328,-0.1,-0.1,0.4480239796878179,0.45,trial_list_0.5_green.csv,0.4498746999888681,0.48311590000230353,p10_base1_01,001,2023-05-05_15h52.36.363,expectation_shapes_perceived_time,2022.2.4,120.39460537091526,
,100,0.5,none,,red,green,,793.9821711528642,,,,,0,15,15,200,trial,,,,,,red,0.7939821711528642,0.8,2.3085372999921674,0.996830800009775,1e-05,1e-05,0.8002608999959193,0.83374940000067,2.000008399991202,2.0334456999989925,2.3085372999921674,2.3085372999921674,2.50871099998767,2.3085372999921674,0.0,3.4085976999922423,1.1000604000000749,1.1000604000000749,1.10154,-0.046359392521033424,-0.14036593846646228,,,,None,,0.03307,0.1,0.1,0.9273121711528642,0.9333333333333333,trial_list_0.5_green.csv,0.9337567999900784,0.9666610999993281,p10_base1_01,001,2023-05-05_15h52.36.363,expectation_shapes_perceived_time,2022.2.4,120.39460537091526,
,300,0.5,none,,green,red,,920.1967392638628,,,,,0,16,16,133,trial,,,,,,green,0.9201967392638628,0.9249999999999999,2.308164600006421,0.9969648999976926,1e-05,1e-05,0.9248493000050075,0.9581797999999253,1.9993409000016982,,2.308164600006421,2.308164600006421,2.5079532000090694,2.3830467000079807,0.07488210000155959,5.533148700007587,3.2249841000011656,3.150101999999606,0.99293,0.0032841560747987704,-0.14778702336594468,,,,None,,0.03331,0.3,0.3,1.2535267392638627,1.2583333333333333,trial_list_0.5_green.csv,1.258143500002916,1.2914841000019806,p10_base1_01,001,2023-05-05_15h52.36.363,expectation_shapes_perceived_time,2022.2.4,120.39460537091526,
,100,0.5,none,,green,red,,1008.9663816579092,,,,,0,17,17,321,trial,,,,,,green,1.0089663816579093,1.0083333333333333,2.308244800005923,0.9975572000112152,2e-05,2e-05,1.0084048999997322,1.041744700007257,1.9996360000077402,2.0330451000045286,2.308244800005923,2.308244800005923,2.5083801000000676,2.566703200005577,0.2584583999996539,4.274702599999728,1.9664577999938047,1.7079993999941507,1.51157,-0.14772587175351432,0.005371849881945975,,,,None,,0.0331,0.1,0.1,1.142296381657909,1.15,trial_list_0.5_green.csv,1.1498800999979721,1.183324800003902,p10_base1_01,001,2023-05-05_15h52.36.363,expectation_shapes_perceived_time,2022.2.4,120.39460537091526,
,-33,0.5,none,,green,red,,1364.3060652748593,,,,,0,18,18,359,trial,,,,,,green,1.3643060652748593,1.3666666666666667,2.308394599996973,0.9988503000058699,1e-05,1e-05,1.3667063000029884,1.399731299999985,2.0000664999970468,,2.308394599996973,2.308394599996973,2.5081288999936078,2.558092299994314,0.24969769999734126,4.700155200000154,2.391760600003181,2.1420629000058398,1.06646,-0.030638460924816625,-0.14461353556513445,,,,None,,,-0.033,-0.03333333333333333,1.2979760652748593,1.3,trial_list_0.5_green.csv,1.29990669999097,1.3330475999973714,p10_base1_01,001,2023-05-05_15h52.36.363,expectation_shapes_perceived_time,2022.2.4,120.39460537091526,
,-167,0.5,none,,red,green,,333.5804097032058,,,,,0,19,19,180,trial,,,,,,red,0.3335804097032058,0.3333333333333333,2.3082863000017824,0.9973341000004439,2e-05,2e-05,0.3331703000003472,0.366666100002476,2.0002817000058712,,2.3082863000017824,2.3082863000017824,2.5083243000117363,2.4334864000120433,0.12520010001026094,3.249596900001052,0.9413105999992695,0.8161104999890085,0.50955,0.14775703377356803,-0.00443271101320704,,,,None,,,-0.167,-0.16666666666666666,0.13325040970320584,0.13333333333333333,trial_list_0.5_green.csv,0.1331512000033399,0.16658440000901464,p10_base1_01,001,2023-05-05_15h52.36.363,expectation_shapes_perceived_time,2022.2.4,120.39460537091526,
,-100,0.5,none,,red,green,,1663.024445361983,,,,,0,20,20,420,trial,,,,,,red,1.663024445361983,1.6666666666666667,2.308544500003336,0.9985320999985561,1e-05,1e-05,1.6670581000071252,1.7000785999989603,2.0000875999976415,,2.308544500003336,2.308544500003336,2.508535800006939,2.6668836000026204,0.35833909999928437,3.700490900009754,1.3919464000064181,1.0336073000071337,1.72881,-0.11124852816826347,0.09734246214723055,,,,None,,,-0.1,-0.1,1.5296944453619832,1.5333333333333332,trial_list_0.5_green.csv,1.5337025000044378,1.566755200008629,p10_base1_01,001,2023-05-05_15h52.36.363,expectation_shapes_perceived_time,2022.2.4,120.39460537091526,
,300,0.5,none,,red,green,,1025.629287709512,,,,,0,21,21,10,trial,,,,,,red,1.0256292877095121,1.025,2.3083620999968844,0.9973039000033168,2e-05,2e-05,1.0248122999910265,1.05833139999595,1.9999563000019407,,2.3083620999968844,2.3083620999968844,2.508217099995818,2.3083620999968844,0.0,4.166928299993742,1.858566199996858,1.858566199996858,1.16349,-0.07262882213665707,-0.12875109378771027,,,,None,,,0.3,0.3,1.358959287709512,1.3666666666666667,trial_list_0.5_green.csv,1.366360200001509,1.3998550999967847,p10_base1_01,001,2023-05-05_15h52.36.363,expectation_shapes_perceived_time,2022.2.4,120.39460537091526,
,100,0.5,none,,green,red,,1121.0012458754509,,,,,0,22,22,105,trial,,,,,,green,1.1210012458754508,1.125,2.307929700007662,0.9974284999916563,1e-05,1e-05,1.124992299999576,1.1584436999983154,1.9999251999979606,2.0336825999984285,2.307929700007662,2.307929700007662,2.508566400007112,2.466464900004212,0.15853519999654964,4.2496603000035975,1.9417305999959353,1.7831953999993857,1.3504,-0.1317963172641932,-0.06694416115006638,,,,None,,0.03356,0.1,0.1,1.2543312458754508,1.2583333333333333,trial_list_0.5_green.csv,1.2586643000104232,1.2920073999994202,p10_base1_01,001,2023-05-05_15h52.36.363,expectation_shapes_perceived_time,2022.2.4,120.39460537091526,
,33,0.5,none,,green,red,,150.63364328900366,,,,,0,23,23,389,trial,,,,,,green,0.15063364328900367,0.15,2.3088986999937333,0.9986648000049172,1e-05,1e-05,0.15001059998758137,0.1832999999896856,2.000254499987932,2.033980899999733,2.3088986999937333,2.3088986999937333,2.5085751000005985,2.3088986999937333,0.0,3.592215699987719,1.2833169999939855,1.2833169999939855,0.35448,0.13264247589292952,0.06525154056023146,,,,None,,0.03332,0.033,0.03333333333333333,0.21696364328900364,0.21666666666666667,trial_list_0.5_green.csv,0.21663089998764917,0.24998799999593757,p10_base1_01,001,2023-05-05_15h52.36.363,expectation_shapes_perceived_time,2022.2.4,120.39460537091526,
,167,0.5,none,,green,red,,516.7085056738092,,,,,0,24,24,419,trial,,,,,,green,0.5167085056738092,0.5166666666666666,2.3082668999995803,0.9970916000020225,2e-05,2e-05,0.5163737999973819,0.5497501000063494,2.000137099996209,2.03347070000018,2.3082668999995803,2.3082668999995803,2.508504299999913,2.7749463000072865,0.46667940000770614,3.3415937999961898,1.0333268999966094,0.5666474999889033,0.59239,0.14163977020881072,-0.042307983309125274,,,,None,,0.03342,0.167,0.16666666666666666,0.7170385056738092,0.7166666666666667,trial_list_0.5_green.csv,0.716952200004016,0.7502740000054473,p10_base1_01,001,2023-05-05_15h52.36.363,expectation_shapes_perceived_time,2022.2.4,120.39460537091526,
,33,0.5,none,,green,red,,1140.6968232094296,0,0,0,0,0,25,25,59,fam,0.532384699996328,0.532384699996328,269.99999999999955,2.540375500000664,2.540375500000664,,,,,,,,,,,,,,,,,,,,,,,,,,,,,,,,,,,,p10_base1_01,001,2023-05-05_15h52.36.363,expectation_shapes_perceived_time,2022.2.4,120.39460537091526,
,33,0.5,none,,green,red,,1140.6968232094296,1,0,1,0,0,25,25,59,fam,0.49902049999218434,0.49902049999218434,269.99999999999955,2.507275700001628,2.507275700001628,,,,,,,,,,,,,,,,,,,,,,,,,,,,,,,,,,,,p10_base1_01,001,2023-05-05_15h52.36.363,expectation_shapes_perceived_time,2022.2.4,120.39460537091526,
,33,0.5,none,,green,red,,1140.6968232094296,2,0,2,0,0,25,25,59,fam,0.49862189999839757,0.49862189999839757,269.99999999999955,2.506794200002332,2.506794200002332,,,,,,,,,,,,,,,,,,,,,,,,,,,,,,,,,,,,p10_base1_01,001,2023-05-05_15h52.36.363,expectation_shapes_perceived_time,2022.2.4,120.39460537091526,
,33,0.5,none,,green,red,,1140.6968232094296,3,0,3,0,0,25,25,59,fam,0.498653300004662,0.498653300004662,269.99999999999955,2.507023300000583,2.507023300000583,,,,,,,,,,,,,,,,,,,,,,,,,,,,,,,,,,,,p10_base1_01,001,2023-05-05_15h52.36.363,expectation_shapes_perceived_time,2022.2.4,120.39460537091526,
,33,0.5,none,,green,red,,1140.6968232094296,,,,,0,25,25,59,trial,,,,,,green,1.1406968232094297,1.1416666666666666,2.308247200009646,0.9907684000063455,1e-05,1e-05,1.141522400008398,1.1751302000047872,2.0000587000104133,,2.308247200009646,2.308247200009646,2.5086804000020493,3.5749815000017406,1.2667342999920947,5.01659010000003,2.7083428999903845,1.4416085999982897,0.68932,0.12243976097686819,-0.08282689713141084,,,,None,,,0.033,0.03333333333333333,1.2070268232094294,1.2083333333333333,trial_list_0.5_green.csv,1.2081841000035638,1.241989600006491,p10_base1_01,001,2023-05-05_15h52.36.363,expectation_shapes_perceived_time,2022.2.4,120.39460537091526,
,-233,0.5,none,,red,green,,1248.662562483811,,,,,0,26,26,342,trial,,,,,,red,1.248662562483811,1.25,2.308557900003507,0.9963373999926262,3e-05,3e-05,1.249762199993711,1.2831492999976035,1.9998988000006648,2.033215100003872,2.308557900003507,2.308557900003507,2.50835439999355,2.7251417999941623,0.4165838999906555,3.81660269999702,1.5080447999935132,1.0914609000028577,1.16204,-0.07204417606669641,-0.12907914878616442,,,,None,,0.03311,-0.233,-0.23333333333333334,0.9823325624838108,0.9833333333333333,trial_list_0.5_green.csv,0.9832535000023199,1.0163493000000017,p10_base1_01,001,2023-05-05_15h52.36.363,expectation_shapes_perceived_time,2022.2.4,120.39460537091526,
,-167,0.5,none,,red,green,,904.547849865575,,,,,0,27,27,322,trial,,,,,,red,0.904547849865575,0.9083333333333333,2.3091434000089066,0.997144400011166,1e-05,1e-05,0.9086008000012953,0.9423494000075152,2.0002691999980016,2.033703000008245,2.3091434000089066,2.3091434000089066,2.509115799999563,2.3091434000089066,0.0,4.1338466000015615,1.8247031999926548,1.8247031999926548,0.96042,0.01833524976502908,-0.14668199812023264,,,,None,,,-0.167,-0.16666666666666666,0.704217849865575,0.7083333333333334,trial_list_0.5_green.csv,0.7090562000084901,0.7425496000068961,p10_base1_01,001,2023-05-05_15h52.36.363,expectation_shapes_perceived_time,2022.2.4,120.39460537091526,
,233,0.5,none,,red,green,,1055.9944500399497,,,,,0,28,28,36,trial,,,,,,red,1.0559944500399496,1.0583333333333333,2.3079644000099506,0.9978781000099843,6e-05,6e-05,1.0577879000047687,1.0913765000004787,1.9997021000017412,2.0333798000065144,2.3079644000099506,2.3079644000099506,2.5078964000131236,2.5997681000008015,0.2918036999908509,4.149623600009363,1.8416591999994125,1.5498555000085616,1.18186,-0.07993668492866801,-0.12434595433348358,,,,None,,0.03323,0.233,0.23333333333333334,1.3223244500399496,1.325,trial_list_0.5_green.csv,1.3247575000132201,1.358122400008142,p10_base1_01,001,2023-05-05_15h52.36.363,expectation_shapes_perceived_time,2022.2.4,120.39460537091526,
,-300,0.5,none,,green,red,,737.4544610371382,,,,,0,29,29,121,trial,,,,,,green,0.7374544610371382,0.7416666666666667,2.308170300006168,0.9971205000038026,2e-05,2e-05,0.7415467999962857,0.7747842999960994,1.9999506000021938,2.0330730999994557,2.308170300006168,2.308170300006168,2.508436999996775,2.308170300006168,0.0,3.416297300005681,1.108126999999513,1.108126999999513,0.8858,0.051904299398080764,-0.13841146506154872,,,,None,,0.03338,-0.3,-0.3,0.4041244610371382,0.4083333333333333,trial_list_0.5_green.csv,0.40830959999584593,0.44169990000955295,p10_base1_01,001,2023-05-05_15h52.36.363,expectation_shapes_perceived_time,2022.2.4,120.39460537091526,
,-167,0.5,none,,green,red,,405.5286759373942,,,,,0,30,30,467,trial,,,,,,green,0.4055286759373942,0.4083333333333333,2.308074700005818,0.9983587000024272,2e-05,2e-05,0.40844460000516847,0.44148789999599103,2.0002337000041734,2.0335535000049276,2.308074700005818,2.308074700005818,2.508278799999971,2.308074700005818,0.0,3.7667629000061424,1.4586882000003243,1.4586882000003243,0.28471,0.11528263166038748,0.09252948067478468,,,,None,,0.03298,-0.167,-0.16666666666666666,0.20519867593739421,0.20833333333333334,trial_list_0.5_green.csv,0.20795619999989867,0.2412754999968456,p10_base1_01,001,2023-05-05_15h52.36.363,expectation_shapes_perceived_time,2022.2.4,120.39460537091526,
,233,0.5,none,,green,red,,883.0077146688006,,,,,0,31,31,161,trial,,,,,,green,0.8830077146688007,0.8833333333333333,2.308073100008187,0.9971823999949265,3e-05,3e-05,0.8833546000096248,0.9165280000015628,1.999482800005353,,2.308073100008187,2.308073100008187,2.508191300003091,2.7247885999968275,0.41671549998864066,5.141536099996301,2.8334629999881145,2.416747499999474,1.09502,-0.043472802265065766,-0.14128660736146373,,,,None,,,0.233,0.23333333333333334,1.1493377146688006,1.15,trial_list_0.5_green.csv,1.1500303000066197,1.1831594000104815,p10_base1_01,001,2023-05-05_15h52.36.363,expectation_shapes_perceived_time,2022.2.4,120.39460537091526,
,233,0.5,none,,red,green,,249.19267745137944,,,,,0,32,32,282,trial,,,,,,red,0.24919267745137944,0.25,2.30845810000028,0.9980351999984123,2e-05,2e-05,0.2498663000005763,0.28316789999371395,2.0003217999910703,,2.30845810000028,2.30845810000028,2.508710099995369,2.6082784999889554,0.2998203999886755,3.516446800000267,1.2079886999999871,0.9081683000113117,0.48054,0.14754723230759587,0.0090335040188324,,,,None,,,0.233,0.23333333333333334,0.5155226774513795,0.5166666666666666,trial_list_0.5_green.csv,0.5168428999895696,0.5499416999955429,p10_base1_01,001,2023-05-05_15h52.36.363,expectation_shapes_perceived_time,2022.2.4,120.39460537091526,
,233,0.5,none,,green,red,,1521.5622348894444,,,,,0,33,33,375,trial,,,,,,green,1.5215622348894444,1.525,2.3084830999869155,0.9977739000023575,5e-05,5e-05,1.5248731999890879,1.5580817999871215,2.000205799995456,2.0331633999885526,2.3084830999869155,2.3084830999869155,2.5082453999930294,2.741373899989412,0.4328908000024967,4.249669999990147,1.9411869000032311,1.5082961000007344,1.50455,-0.14780842776190248,0.0021115489680271784,,,,None,,0.0329,0.233,0.23333333333333334,1.7878922348894444,1.7916666666666667,trial_list_0.5_green.csv,1.7920536999881733,1.8248917999881087,p10_base1_01,001,2023-05-05_15h52.36.363,expectation_shapes_perceived_time,2022.2.4,120.39460537091526,
,100,0.5,none,,red,green,,1182.8307647028616,,,,,0,34,34,0,trial,,,,,,red,1.1828307647028617,1.1833333333333333,2.308632700005546,0.9974108000023989,2e-05,2e-05,1.1836945000104606,1.2168586000043433,2.0002309000119567,2.0333476000087103,2.308632700005546,2.308632700005546,2.5086403000022983,2.7168357000045944,0.4082029999990482,3.9502061000093818,1.6415734000038356,1.2333704000047874,1.45224,-0.14616301527675096,-0.022094409286020498,,,,None,,0.0332,0.1,0.1,1.3161607647028615,1.3166666666666667,trial_list_0.5_green.csv,1.316832800002885,1.3503792000119574,p10_base1_01,001,2023-05-05_15h52.36.363,expectation_shapes_perceived_time,2022.2.4,120.39460537091526,
,167,0.5,none,,green,red,,1030.9816786349395,,,,,0,35,35,131,trial,,,,,,green,1.0309816786349395,1.0333333333333332,2.30858110000554,0.9975669999985257,2e-05,2e-05,1.0338276000111364,1.0668042000033893,2.0004228000034345,2.033302600000752,2.30858110000554,2.30858110000554,2.5084922000096412,2.8667036999977427,0.5581225999922026,4.300104599999031,1.991523499993491,1.4334009000012884,1.56008,-0.1451984354501415,0.027734532614071973,,,,None,,0.03346,0.167,0.16666666666666666,1.2313116786349394,1.2333333333333334,trial_list_0.5_green.csv,1.2334625000075903,1.266851799999131,p10_base1_01,001,2023-05-05_15h52.36.363,expectation_shapes_perceived_time,2022.2.4,120.39460537091526,
,-233,0.5,none,,green,red,,1207.4927138728103,,,,,0,36,36,433,trial,,,,,,green,1.2074927138728104,1.2083333333333333,2.308372400002554,0.9972039999993285,1e-05,1e-05,1.2083988999947906,1.2418065999954706,2.0000855999969644,2.033542799996212,2.308372400002554,2.308372400002554,2.508381299994653,2.5503371999948286,0.2419647999922745,4.016737400001148,1.7083649999985937,1.4664002000063192,1.54966,-0.14602786724540134,0.02297067574646763,,,,None,,0.03341,-0.233,-0.23333333333333334,0.9411627138728103,0.9416666666666667,trial_list_0.5_green.csv,0.9418538999889279,0.9749609999998938,p10_base1_01,001,2023-05-05_15h52.36.363,expectation_shapes_perceived_time,2022.2.4,120.39460537091526,
,-33,0.5,none,,green,red,,1149.5560554166022,,,,,0,37,37,471,trial,,,,,,green,1.1495560554166022,1.15,2.308552399990731,0.9962808999989647,2e-05,2e-05,1.1499165999994148,1.1834585000033258,1.9999279000039678,2.0335339000012027,2.308552399990731,2.308552399990731,2.5082697000034386,2.6919935000041733,0.38344110001344234,4.0166579999931855,1.7081056000024546,1.3246644999890123,1.50342,-0.14781496452659265,0.00158940822071605,,,,None,,0.03318,-0.033,-0.03333333333333333,1.0832260554166022,1.0833333333333333,trial_list_0.5_green.csv,1.08359890000429,1.1167925000045216,p10_base1_01,001,2023-05-05_15h52.36.363,expectation_shapes_perceived_time,2022.2.4,120.39460537091526,
,-33,0.5,none,,green,red,,1581.4037325777458,,,,,0,38,38,407,trial,,,,,,green,1.581403732577746,1.5833333333333333,2.3084650999953737,0.997740499995416,5e-05,5e-05,1.5835490000026766,1.6168062999931863,2.000185600001714,,2.3084650999953737,2.3084650999953737,2.508098999998765,2.4750153999921167,0.16655029999674298,3.599946100002853,1.2914810000074795,1.1249307000107365,1.65046,-0.1316137083604189,0.06730246450248695,,,,None,,,-0.033,-0.03333333333333333,1.515073732577746,1.5166666666666666,trial_list_0.5_green.csv,1.5164378000044962,1.5500037000019802,p10_base1_01,001,2023-05-05_15h52.36.363,expectation_shapes_perceived_time,2022.2.4,120.39460537091526,
,-167,0.5,none,,red,green,,1095.036808207264,,,,,0,39,39,86,trial,,,,,,red,1.095036808207264,1.1,2.308305799990194,0.9971309999964433,3e-05,3e-05,1.0999630999867804,1.1331731999962358,1.9998973999900045,,2.308305799990194,2.308305799990194,2.5082835999928648,2.6829995999869425,0.37469379999674857,3.7997954999882495,1.4914896999980556,1.116795900001307,0.92709,0.03356195839228164,-0.14396313731426072,,,,None,,,-0.167,-0.16666666666666666,0.8947068082072639,0.9,trial_list_0.5_green.csv,0.8997975999955088,0.9332645999966189,p10_base1_01,001,2023-05-05_15h52.36.363,expectation_shapes_perceived_time,2022.2.4,120.39460537091526,
,167,0.5,none,,green,red,,1137.2244583394245,,,,,0,40,40,297,trial,,,,,,green,1.1372244583394244,1.1416666666666666,2.3087994000088656,0.9953971999930218,2e-05,2e-05,1.1421312000020407,1.1753472999989754,2.0004210000042804,,2.3087994000088656,2.3087994000088656,2.5089376000105403,2.567070800010697,0.25827140000183135,4.2586776000098325,1.949878200000967,1.6916067999991355,1.0827,-0.037976030521438504,-0.14286221005684008,,,,None,,,0.167,0.16666666666666666,1.3375544583394243,1.3416666666666666,trial_list_0.5_green.csv,1.3420927000115626,1.3756774000066798,p10_base1_01,001,2023-05-05_15h52.36.363,expectation_shapes_perceived_time,2022.2.4,120.39460537091526,
,-167,0.5,none,,red,green,,972.7318676472752,,,,,0,41,41,186,trial,,,,,,red,0.9727318676472752,0.975,2.3084402000094997,0.9963320999959251,3e-05,3e-05,0.9749411000084365,1.008698400008143,2.0001755000121193,2.032949100001133,2.3084402000094997,2.3084402000094997,2.508473599998979,2.8916366000048583,0.5831963999953587,4.70801780000329,2.3995775999937905,1.8163811999984318,1.26273,-0.10862122396657181,-0.10026574519991245,,,,None,,0.03332,-0.167,-0.16666666666666666,0.7724018676472751,0.775,trial_list_0.5_green.csv,0.7753685000061523,0.8081728000106523,p10_base1_01,001,2023-05-05_15h52.36.363,expectation_shapes_perceived_time,2022.2.4,120.39460537091526,
,100,0.5,none,,red,green,,1287.9762723273109,,,,,0,42,42,206,trial,,,,,,red,1.287976272327311,1.2916666666666667,2.308309999993071,0.9989814000000479,1e-05,1e-05,1.2919823999982327,1.3252181999996537,1.9999681000044802,2.033590399994864,2.308309999993071,2.308309999993071,2.508288500001072,2.308309999993071,0.0,3.608791399994516,1.3004814000014449,1.3004814000014449,1.56928,-0.14433597752791028,0.03192045656867247,,,,None,,0.03323,0.1,0.1,1.4213062723273109,1.425,trial_list_0.5_green.csv,1.424897000004421,1.4583020999998553,p10_base1_01,001,2023-05-05_15h52.36.363,expectation_shapes_perceived_time,2022.2.4,120.39460537091526,
,-33,0.5,none,,green,red,,372.74245772426207,,,,,0,43,43,387,trial,,,,,,green,0.37274245772426207,0.375,2.308513199997833,0.9972016999963671,2e-05,2e-05,0.3752721999917412,0.4088430999981938,2.000080900004832,2.0334426000044914,2.308513199997833,2.308513199997833,2.508189100000891,2.308513199997833,0.0,4.124956200001179,1.8164430000033462,1.8164430000033462,0.55808,0.14536938113695833,-0.026824111995510165,,,,None,,0.03343,-0.033,-0.03333333333333333,0.30641245772426207,0.30833333333333335,trial_list_0.5_green.csv,0.30882150000252295,0.34209740000369493,p10_base1_01,001,2023-05-05_15h52.36.363,expectation_shapes_perceived_time,2022.2.4,120.39460537091526,
,-100,0.5,none,,red,green,,1220.8155200882293,,,,,0,44,44,138,trial,,,,,,red,1.2208155200882294,1.225,2.3084466000000248,0.9978704999957699,5e-05,5e-05,1.2252409999928204,1.258775099995546,2.000092499991297,,2.3084466000000248,2.3084466000000248,2.508407699991949,2.441859900005511,0.13341330000548624,3.850456700005452,1.5420101000054274,1.4085967999999411,1.16024,-0.07131094839748764,-0.129485669458596,,,,None,,,-0.1,-0.1,1.0874855200882294,1.0916666666666666,trial_list_0.5_green.csv,1.091937399993185,1.1253538000019034,p10_base1_01,001,2023-05-05_15h52.36.363,expectation_shapes_perceived_time,2022.2.4,120.39460537091526,
,-233,0.5,none,,green,red,,871.0356970575361,,,,,0,45,45,459,trial,,,,,,green,0.8710356970575361,0.875,2.3080507999984547,0.9977694999979576,1e-05,1e-05,0.8746713000000454,0.9082928999996511,1.9996762999944622,,2.3080507999984547,2.3080507999984547,2.5081710999947973,2.3080507999984547,0.0,3.3327667999983532,1.0247159999998985,1.0247159999998985,0.75616,0.10248470854450804,-0.10653015756600177,,,,None,,,-0.233,-0.23333333333333334,0.6047056970575361,0.6083333333333333,trial_list_0.5_green.csv,0.6080504999990808,0.6413224999996601,p10_base1_01,001,2023-05-05_15h52.36.363,expectation_shapes_perceived_time,2022.2.4,120.39460537091526,
,100,0.5,none,,green,red,,277.5019581236835,,,,,0,46,46,175,trial,,,,,,green,0.2775019581236835,0.275,2.308554199989885,0.9983643000014126,1e-05,1e-05,0.275234199987608,0.30842249999113847,2.0001939999929164,2.0338269999920158,2.308554199989885,2.308554199989885,2.5085684999939986,2.308554199989885,0.0,3.158332099992549,0.849777900002664,0.849777900002664,0.65235,0.13121225037747594,-0.06808182802604884,,,,None,,0.03314,0.1,0.1,0.4108319581236835,0.4083333333333333,trial_list_0.5_green.csv,0.40854449999460485,0.44182789999467786,p10_base1_01,001,2023-05-05_15h52.36.363,expectation_shapes_perceived_time,2022.2.4,120.39460537091526,
,167,0.5,none,,red,green,,958.891402069088,,,,,0,47,47,78,trial,,,,,,red,0.9588914020690881,0.9583333333333334,2.3082821999996668,0.9971577999967849,2e-05,2e-05,0.9579337000031956,0.991214099994977,1.9999974999955157,2.0334748000022955,2.3082821999996668,2.3082821999996668,2.5081177999963984,2.3082821999996668,0.0,3.5166022999910638,1.208320099991397,1.208320099991397,0.85869,0.06349109039534757,-0.1334940874979103,,,,None,,0.03314,0.167,0.16666666666666666,1.159221402069088,1.1666666666666667,trial_list_0.5_green.csv,1.166472299999441,1.1997819999960484,p10_base1_01,001,2023-05-05_15h52.36.363,expectation_shapes_perceived_time,2022.2.4,120.39460537091526,
,-100,0.5,none,,red,green,,404.8618702837017,,,,,0,48,48,366,trial,,,,,,red,0.4048618702837017,0.4083333333333333,2.3080248999904143,0.9988445000053616,1e-05,1e-05,0.40813309999066405,0.4412525999941863,1.9995784999919124,,2.3080248999904143,2.3080248999904143,2.507960999995703,2.3164033999928506,0.00837850000243634,3.4245801999932155,1.1165553000028012,1.108176800000365,0.64465,0.13282010464081656,-0.0648892114275745,,,,None,,,-0.1,-0.1,0.27153187028370174,0.275,trial_list_0.5_green.csv,0.2742409999918891,0.3076271000027191,p10_base1_01,001,2023-05-05_15h52.36.363,expectation_shapes_perceived_time,2022.2.4,120.39460537091526,
,-100,0.5,none,,red,green,,277.7798776826188,,,,,0,49,49,250,trial,,,,,,red,0.2777798776826188,0.275,2.3080648000031943,0.9969866999890655,2e-05,2e-05,0.2749997000064468,0.30808500001148786,1.9994745000003604,2.0327586000057636,2.3080648000031943,2.3080648000031943,2.5080085000081453,2.608235899999272,0.30017109999607783,3.3830898000014713,1.075024999998277,0.7748539000021992,0.60388,0.14002078886254993,-0.0473916516150169,,,,None,,0.03318,-0.1,-0.1,0.14444987768261883,0.14166666666666666,trial_list_0.5_green.csv,0.14136300000245683,0.17493629999808036,p10_base1_01,001,2023-05-05_15h52.36.363,expectation_shapes_perceived_time,2022.2.4,120.39460537091526,
,-300,0.5,none,,green,red,,895.6532193783589,0,0,0,0,0,50,50,37,fam,0.5403653999965172,0.5403653999965172,269.99999999999955,2.5487062000029255,2.5487062000029255,,,,,,,,,,,,,,,,,,,,,,,,,,,,,,,,,,,,p10_base1_01,001,2023-05-05_15h52.36.363,expectation_shapes_perceived_time,2022.2.4,120.39460537091526,
,-300,0.5,none,,green,red,,895.6532193783589,1,0,1,0,0,50,50,37,fam,0.4994695000059437,0.4994695000059437,269.99999999999955,2.5078536000073655,2.5078536000073655,,,,,,,,,,,,,,,,,,,,,,,,,,,,,,,,,,,,p10_base1_01,001,2023-05-05_15h52.36.363,expectation_shapes_perceived_time,2022.2.4,120.39460537091526,
,-300,0.5,none,,green,red,,895.6532193783589,2,0,2,0,0,50,50,37,fam,0.49822200000926387,0.49822200000926387,269.99999999999955,2.507132900005672,2.507132900005672,,,,,,,,,,,,,,,,,,,,,,,,,,,,,,,,,,,,p10_base1_01,001,2023-05-05_15h52.36.363,expectation_shapes_perceived_time,2022.2.4,120.39460537091526,
,-300,0.5,none,,green,red,,895.6532193783589,3,0,3,0,0,50,50,37,fam,0.4985191999876406,0.4985191999876406,269.99999999999955,2.506548199991812,2.506548199991812,,,,,,,,,,,,,,,,,,,,,,,,,,,,,,,,,,,,p10_base1_01,001,2023-05-05_15h52.36.363,expectation_shapes_perceived_time,2022.2.4,120.39460537091526,
,-300,0.5,none,,green,red,,895.6532193783589,,,,,0,50,50,37,trial,,,,,,green,0.895653219378359,0.9,2.3083063999947626,0.9988441999885254,1e-05,1e-05,0.900047999995877,0.9334788999985904,1.9996840999956476,,2.3083063999947626,2.3083063999947626,2.5085490999917965,2.7667339999898104,0.4584275999950478,4.049848599999677,1.7415422000049148,1.283114600009867,0.56062,0.14515115116467708,-0.02798094480282932,,,,None,,,-0.3,-0.3,0.5623232193783589,0.5666666666666667,trial_list_0.5_green.csv,0.567122799999197,0.5999626999982866,p10_base1_01,001,2023-05-05_15h52.36.363,expectation_shapes_perceived_time,2022.2.4,120.39460537091526,
,100,0.5,none,,red,green,,340.1620627989024,,,,,0,51,51,394,trial,,,,,,red,0.34016206279890243,0.3416666666666667,2.3082602999929804,0.99899639999785,1e-05,1e-05,0.3413972999987891,0.3752053999924101,1.9996186999924248,,2.3082602999929804,2.3082602999929804,2.508019200002309,2.924955199996475,0.6166949000034947,3.9332162999926368,1.6249559999996563,1.0082610999961616,0.43858,0.145079733469084,0.028348913436487676,,,,None,,,0.1,0.1,0.4734920627989024,0.475,trial_list_0.5_green.csv,0.47486069999285974,0.5082012999919243,p10_base1_01,001,2023-05-05_15h52.36.363,expectation_shapes_perceived_time,2022.2.4,120.39460537091526,
,33,0.5,none,,green,red,,1302.1282395452083,,,,,0,52,52,239,trial,,,,,,green,1.3021282395452083,1.3083333333333333,2.3085886999906506,0.9977386000100523,1e-05,1e-05,1.3084302999923239,1.3417294999962905,1.9996774999890476,2.033081299989135,2.3085886999906506,2.3085886999906506,2.5085034999938216,2.724875699990662,0.4162870000000112,3.8586834000016097,1.550094700010959,1.1338077000109479,1.24685,-0.10348701285327178,-0.10555675311033721,,,,None,,0.03329,0.033,0.03333333333333333,1.3684582395452083,1.375,trial_list_0.5_green.csv,1.3754425999941304,1.408754099989892,p10_base1_01,001,2023-05-05_15h52.36.363,expectation_shapes_perceived_time,2022.2.4,120.39460537091526,
,-233,0.5,none,,red,green,,825.2914895339311,,,,,0,53,53,162,trial,,,,,,red,0.825291489533931,0.825,2.308237099990947,0.9970475000009174,1e-05,1e-05,0.8250627999950666,0.8583976999943843,1.9999854999914533,2.0330677999882028,2.308237099990947,2.308237099990947,2.5086263999983203,2.691642999998294,0.38340590000734664,3.4580309000011766,1.1497938000102295,0.7663879000028828,0.67672,0.12562135367356791,-0.07791704215195985,,,,None,,0.03343,-0.233,-0.23333333333333334,0.5589614895339311,0.5583333333333333,trial_list_0.5_green.csv,0.5585541999898851,0.5918501999985892,p10_base1_01,001,2023-05-05_15h52.36.363,expectation_shapes_perceived_time,2022.2.4,120.39460537091526,
,100,0.5,none,,green,red,,970.958097079332,,,,,0,54,54,361,trial,,,,,,green,0.970958097079332,0.975,2.3079463000030955,0.9986353999993298,1e-05,1e-05,0.9748767999990378,1.0083504999929573,1.999791499998537,,2.3079463000030955,2.3079463000030955,2.508281000002171,2.4497177000012016,0.14177139999810606,3.6833115999907022,1.3753652999876067,1.2335938999895006,1.11945,-0.054180940619633924,-0.13753623388060918,,,,None,,,0.1,0.1,1.1042880970793318,1.1083333333333334,trial_list_0.5_green.csv,1.1083601999998791,1.141299099996104,p10_base1_01,001,2023-05-05_15h52.36.363,expectation_shapes_perceived_time,2022.2.4,120.39460537091526,
,-233,0.5,none,,green,red,,714.8656642997069,,,,,0,55,55,269,trial,,,,,,green,0.7148656642997069,0.7166666666666667,2.3084748000110267,0.9973482000059448,1e-05,1e-05,0.7168098000111058,0.7498406000086106,1.9998782000038773,2.0333875000069384,2.3084748000110267,2.3084748000110267,2.5084859000053257,2.3084748000110267,0.0,3.6002017999999225,1.2917269999888958,1.2917269999888958,1.18395,-0.08075122043907967,-0.12381853800658885,,,,None,,0.03315,-0.233,-0.23333333333333334,0.44853566429970687,0.45,trial_list_0.5_green.csv,0.44997510001121555,0.48368620000837836,p10_base1_01,001,2023-05-05_15h52.36.363,expectation_shapes_perceived_time,2022.2.4,120.39460537091526,
,-233,0.5,none,,green,red,,1020.7156997519464,,,,,0,56,56,221,trial,,,,,,green,1.0207156997519464,1.025,2.3080421000049682,0.9967869999964023,0.00011,0.00011,1.0249630000034813,1.0576989000110188,2.0000556000013603,2.033004800003255,2.3080421000049682,2.3080421000049682,2.508163300008164,2.449435500006075,0.14139340000110678,3.924515300008352,1.6164732000033837,1.475079800002277,1.14146,-0.063554290699089,-0.13346401046808692,,,,None,,0.03299,-0.233,-0.23333333333333334,0.7543856997519464,0.7583333333333333,trial_list_0.5_green.csv,0.7580911000113701,0.791652800005977,p10_base1_01,001,2023-05-05_15h52.36.363,expectation_shapes_perceived_time,2022.2.4,120.39460537091526,
,33,0.5,none,,red,green,,1187.4611857310897,,,,,0,57,57,268,trial,,,,,,red,1.1874611857310897,1.1916666666666667,2.308334700006526,0.9975756000058027,2e-05,2e-05,1.19178429999738,1.2250404999940656,1.9998198999965098,2.0332476000039605,2.308334700006526,2.308334700006526,2.508304400005727,2.4665094999945723,0.1581747999880463,3.5661793000035686,1.2578445999970427,1.0996698000089964,1.0982,-0.04488450836961093,-0.14084449178050326,,,,None,,0.03328,0.033,0.03333333333333333,1.2537911857310897,1.2583333333333333,trial_list_0.5_green.csv,1.2584976999933133,1.2918751999968663,p10_base1_01,001,2023-05-05_15h52.36.363,expectation_shapes_perceived_time,2022.2.4,120.39460537091526,
,300,0.5,none,,green,red,,944.8804001849516,,,,,0,58,58,163,trial,,,,,,green,0.9448804001849516,0.95,2.3083953999885125,0.9985864000045694,1e-05,1e-05,0.9499054999905638,0.9836043999966932,2.000075999996625,2.0331855999975232,2.3083953999885125,2.3083953999885125,2.508001099995454,2.3083953999885125,0.0,5.04132559998834,2.732930199999828,2.732930199999828,1.38632,-0.13849622932303932,-0.05167769750859676,,,,None,,0.03307,0.3,0.3,1.2782104001849517,1.2833333333333332,trial_list_0.5_green.csv,1.2831109999970067,1.3166638999973657,p10_base1_01,001,2023-05-05_15h52.36.363,expectation_shapes_perceived_time,2022.2.4,120.39460537091526,
,-33,0.5,none,,green,red,,339.99059092155005,,,,,0,59,59,431,trial,,,,,,green,0.33999059092155004,0.3416666666666667,2.3082206999970367,0.9908118000021204,1e-05,1e-05,0.34133619999920484,0.3750357999961125,1.999889800004894,,2.3082206999970367,2.3082206999970367,2.5081397000030847,2.3082206999970367,0.0,3.4247858000017004,1.1165651000046637,1.1165651000046637,0.6057,0.13974835191638363,-0.0481890868677185,,,,None,,,-0.033,-0.03333333333333333,0.27366059092155004,0.275,trial_list_0.5_green.csv,0.2749141999956919,0.30833590000111144,p10_base1_01,001,2023-05-05_15h52.36.363,expectation_shapes_perceived_time,2022.2.4,120.39460537091526,
,300,0.5,none,,red,green,,391.557200625323,,,,,0,60,60,412,trial,,,,,,red,0.391557200625323,0.39166666666666666,2.3083783999900334,0.9973402000032365,2e-05,2e-05,0.39190389998839237,0.42474819999188185,1.9998389999964274,2.0332828999962658,2.3083783999900334,2.3083783999900334,2.508682299987413,2.7915754999994533,0.48319710000941996,3.5079990999947768,1.1996207000047434,0.7164235999953235,0.65895,0.12977360454963227,-0.07078560248161761,,,,None,,0.03322,0.3,0.3,0.7248872006253231,0.725,trial_list_0.5_green.csv,0.7253277999989223,0.7584768999950029,p10_base1_01,001,2023-05-05_15h52.36.363,expectation_shapes_perceived_time,2022.2.4,120.39460537091526,
,-100,0.5,none,,red,green,,869.9310040203023,,,,,0,61,61,100,trial,,,,,,red,0.8699310040203023,0.875,2.3084380000072997,0.9984609999955865,1e-05,1e-05,0.8749877000082051,0.9084339999972144,2.0003953999985242,2.033768200009945,2.3084380000072997,2.3084380000072997,2.5083085000078427,2.6753024000063306,0.36686439999903087,3.7331452000071295,1.4247071999998298,1.0578428000007989,0.92063,0.036480189833700986,-0.14325147715185022,,,,None,,0.0338,-0.1,-0.1,0.7366010040203023,0.7416666666666667,trial_list_0.5_green.csv,0.7418276000098558,0.7749184999993304,p10_base1_01,001,2023-05-05_15h52.36.363,expectation_shapes_perceived_time,2022.2.4,120.39460537091526,
,-300,0.5,none,,green,red,,1745.8190932621103,,,,,0,62,62,395,trial,,,,,,green,1.7458190932621103,1.75,2.3079747000010684,0.9980859000061173,2e-05,2e-05,1.7496551999938674,1.7831292000046233,1.9997555000009015,2.0329128000012133,2.3079747000010684,2.3079747000010684,2.508102299994789,2.524655100001837,0.2166804000007687,4.524436799998512,2.216462099997443,1.9997816999966744,1.63382,-0.13495156735604702,0.06033128893564456,,,,None,,0.03328,-0.3,-0.3,1.4124890932621104,1.4166666666666667,trial_list_0.5_green.csv,1.416265599997132,1.4493418000056408,p10_base1_01,001,2023-05-05_15h52.36.363,expectation_shapes_perceived_time,2022.2.4,120.39460537091526,
,33,0.5,none,,green,red,,1609.6889558635432,,,,,0,63,63,485,trial,,,,,,green,1.6096889558635432,1.6166666666666667,2.3085229999996955,0.9969965999916894,3e-05,3e-05,1.6172075999929802,1.6503781999927014,2.0002657000004547,,2.3085229999996955,2.3085229999996955,2.508539099988411,2.71683320000011,0.4083102000004146,4.175087699986761,1.866564699987066,1.4582544999866514,1.53128,-0.14711026107544906,0.014503828556734414,,,,None,,,0.033,0.03333333333333333,1.6760189558635432,1.6833333333333333,trial_list_0.5_green.csv,1.6835963999910746,1.7170271999930264,p10_base1_01,001,2023-05-05_15h52.36.363,expectation_shapes_perceived_time,2022.2.4,120.39460537091526,
,-233,0.5,none,,green,red,,876.9912217733349,,,,,0,64,64,95,trial,,,,,,green,0.8769912217733349,0.8833333333333333,2.3078183000034187,0.9973014999995939,9e-05,9e-05,0.8828231999941636,0.9160239000048023,1.9995390999974916,2.032688999999664,2.3078183000034187,2.3078183000034187,2.5078208000049926,2.7243962999928044,0.4165779999893857,3.4912702000001445,1.1834518999967258,0.7668739000073401,0.81928,0.0794897771808955,-0.12463211977745345,,,,None,,0.03319,-0.233,-0.23333333333333334,0.6106612217733349,0.6166666666666667,trial_list_0.5_green.csv,0.6160836000053678,0.6495809000043664,p10_base1_01,001,2023-05-05_15h52.36.363,expectation_shapes_perceived_time,2022.2.4,120.39460537091526,
,33,0.5,none,,red,green,,241.0676692671824,,,,,0,65,65,52,trial,,,,,,red,0.2410676692671824,0.24166666666666667,2.308685800002422,0.9962689999956638,1e-05,1e-05,0.24189150000165682,0.2753025000129128,2.0000757000088925,2.0333011000038823,2.308685800002422,2.308685800002422,2.508434000003035,2.308685800002422,0.0,3.4666806000022916,1.1579947999998694,1.1579947999998694,0.47171,0.14724009286572376,0.013120404314767464,,,,None,,0.03333,0.033,0.03333333333333333,0.30739766926718237,0.30833333333333335,trial_list_0.5_green.csv,0.30834310001228005,0.3417212000058498,p10_base1_01,001,2023-05-05_15h52.36.363,expectation_shapes_perceived_time,2022.2.4,120.39460537091526,
,-100,0.5,none,,green,red,,734.140442684108,,,,,0,66,66,261,trial,,,,,,green,0.734140442684108,0.7333333333333333,2.308161499997368,0.9986419000051683,1e-05,1e-05,0.7330711999966297,0.7667588999902364,2.000367999993614,2.033683799993014,2.308161499997368,2.308161499997368,2.508558899993659,2.641888199999812,0.333726700002444,3.383346899994649,1.075185399997281,0.7414586999948369,0.76652,0.09896359002800398,-0.10980891496257976,,,,None,,0.03336,-0.1,-0.1,0.600810442684108,0.6,trial_list_0.5_green.csv,0.6000677999982145,0.6334585000004154,p10_base1_01,001,2023-05-05_15h52.36.363,expectation_shapes_perceived_time,2022.2.4,120.39460537091526,
,100,0.5,none,,red,green,,915.1796437791772,,,,,0,67,67,284,trial,,,,,,red,0.9151796437791773,0.9166666666666666,2.3080649000039557,0.9970938000042224,1e-05,1e-05,0.9164422000030754,0.9498827999923378,1.9999859999952605,2.0332643000001553,2.3080649000039557,2.3080649000039557,2.508389700000407,2.641803999998956,0.3337390999950003,3.900008099997649,1.5919431999936933,1.258204099998693,0.85385,0.06551244481519093,-0.1325138088307271,,,,None,,0.03343,0.1,0.1,1.0485096437791772,1.05,trial_list_0.5_green.csv,1.0501340000046184,1.0832157999975607,p10_base1_01,001,2023-05-05_15h52.36.363,expectation_shapes_perceived_time,2022.2.4,120.39460537091526,
,300,0.5,none,,red,green,,1496.8690484400097,,,,,0,68,68,452,trial,,,,,,red,1.4968690484400098,1.5,2.308384299991303,0.9981284999958007,1e-05,1e-05,1.4997162999934517,1.5326220999995712,1.999729799994384,2.032933399998001,2.308384299991303,2.308384299991303,2.508229200000642,2.574621499996283,0.26623720000497997,3.8247959000000264,1.5164116000087233,1.2501744000037434,1.3827,-0.13789992308088939,-0.0532484851500464,,,,None,,0.03337,0.3,0.3,1.8301990484400097,1.8333333333333333,trial_list_0.5_green.csv,1.8329463999980362,1.8664391999918735,p10_base1_01,001,2023-05-05_15h52.36.363,expectation_shapes_perceived_time,2022.2.4,120.39460537091526,
,233,0.5,none,,red,green,,356.66781378967664,,,,,0,69,69,450,trial,,,,,,red,0.35666781378967666,0.35833333333333334,2.30815050000092,0.9972485000034794,1e-05,1e-05,0.35823890000756364,0.39135689999966417,1.999860500000068,2.0330336000042735,2.30815050000092,2.30815050000092,2.5085837000078754,2.30815050000092,0.0,3.6083276999997906,1.3001771999988705,1.3001771999988705,0.52984,0.1471744871502873,-0.013836917595326157,,,,None,,0.03313,0.233,0.23333333333333334,0.6229978137896767,0.625,trial_list_0.5_green.csv,0.624445100009325,0.6577528000052553,p10_base1_01,001,2023-05-05_15h52.36.363,expectation_shapes_perceived_time,2022.2.4,120.39460537091526,
,-33,0.5,none,,red,green,,1291.8869236311114,,,,,0,70,70,94,trial,,,,,,red,1.2918869236311115,1.3,2.3080503000091994,0.9974347999959718,2e-05,2e-05,1.299895700009074,1.3334176000062143,2.0001978000072995,,2.3080503000091994,2.3080503000091994,2.5085176000138745,2.708386000012979,0.4003357000037795,3.4665702000056626,1.1585198999964632,0.7581841999926837,1.04554,-0.021078978070598685,-0.14631290660768498,,,,None,,,-0.033,-0.03333333333333333,1.2255569236311115,1.2333333333333334,trial_list_0.5_green.csv,1.233550800010562,1.266686100003426,p10_base1_01,001,2023-05-05_15h52.36.363,expectation_shapes_perceived_time,2022.2.4,120.39460537091526,
,-33,0.5,none,,red,green,,368.2238275669898,,,,,0,71,71,194,trial,,,,,,red,0.36822382756698985,0.36666666666666664,2.308260899997549,0.9977232000092044,2e-05,2e-05,0.3664876999973785,0.4000311999989208,1.9998209999903338,2.0333213999983855,2.308260899997549,2.308260899997549,2.508288099998026,2.5829382999945665,0.27467739999701735,3.3583567999885418,1.0500958999909926,0.7754184999939753,0.60444,0.1399371113660676,-0.04763816557142726,,,,None,,0.03314,-0.033,-0.03333333333333333,0.30189382756698985,0.3,trial_list_0.5_green.csv,0.2999274999892805,0.33312739999382757,p10_base1_01,001,2023-05-05_15h52.36.363,expectation_shapes_perceived_time,2022.2.4,120.39460537091526,
,-100,0.5,none,,green,red,,1427.573930289183,,,,,0,72,72,235,trial,,,,,,green,1.427573930289183,1.4333333333333333,2.3079750000033528,0.9973365000041667,2e-05,2e-05,1.4335028000059538,1.4665561000001617,1.9998328999936348,2.0333264999935636,2.3079750000033528,2.3079750000033528,2.5082819999952335,3.3079545999935362,0.9999795999901835,5.124896699999226,2.8169216999958735,1.81694210000569,1.08277,-0.03800701926066204,-0.142853968945247,,,,None,,0.03322,-0.1,-0.1,1.294243930289183,1.3,trial_list_0.5_green.csv,1.300001700001303,1.3334307000041008,p10_base1_01,001,2023-05-05_15h52.36.363,expectation_shapes_perceived_time,2022.2.4,120.39460537091526,
,-300,0.5,none,,red,green,,517.3684425674882,,,,,0,73,73,288,trial,,,,,,red,0.5173684425674882,0.5166666666666666,2.3081836000055773,0.9985015999991447,1e-05,1e-05,0.5171700000064448,0.5503586999984691,2.000564999994822,,2.3081836000055773,2.3081836000055773,2.509379600000102,2.3081836000055773,0.0,4.316937499999767,2.00875389999419,2.00875389999419,1.08109,-0.037253227229474946,-0.1430523925611838,,,,None,,,-0.3,-0.3,0.18403844256748816,0.18333333333333332,trial_list_0.5_green.csv,0.1832700999948429,0.21676969999680296,p10_base1_01,001,2023-05-05_15h52.36.363,expectation_shapes_perceived_time,2022.2.4,120.39460537091526,
,300,0.5,none,,green,red,,569.6106063967949,,,,,0,74,74,427,trial,,,,,,green,0.5696106063967948,0.575,2.308126500007347,0.9978230999986408,1e-05,1e-05,0.5747888000041712,0.6083773999998812,1.9994341999990866,2.0327352000022074,2.308126500007347,2.308126500007347,2.507980399997905,2.308126500007347,0.0,3.4747097000072245,1.1665831999998773,1.1665831999998773,1.10999,-0.0500707005310019,-0.13908527925278308,,,,None,,0.03303,0.3,0.3,0.902940606396795,0.9083333333333333,trial_list_0.5_green.csv,0.9077801000094041,0.941612399998121,p10_base1_01,001,2023-05-05_15h52.36.363,expectation_shapes_perceived_time,2022.2.4,120.39460537091526,
,-33,0.5,none,,green,red,,830.090903364285,0,0,0,0,0,75,75,223,fam,0.5406370999990031,0.5406370999990031,269.99999999999955,2.5487466999911703,2.5487466999911703,,,,,,,,,,,,,,,,,,,,,,,,,,,,,,,,,,,,p10_base1_01,001,2023-05-05_15h52.36.363,expectation_shapes_perceived_time,2022.2.4,120.39460537091526,
,-33,0.5,none,,green,red,,830.090903364285,1,0,1,0,0,75,75,223,fam,0.4986492000025464,0.4986492000025464,269.99999999999955,2.5065212000044994,2.5065212000044994,,,,,,,,,,,,,,,,,,,,,,,,,,,,,,,,,,,,p10_base1_01,001,2023-05-05_15h52.36.363,expectation_shapes_perceived_time,2022.2.4,120.39460537091526,
,-33,0.5,none,,green,red,,830.090903364285,2,0,2,0,0,75,75,223,fam,0.4992651000065962,0.4992651000065962,269.99999999999955,2.5077301999990596,2.5077301999990596,,,,,,,,,,,,,,,,,,,,,,,,,,,,,,,,,,,,p10_base1_01,001,2023-05-05_15h52.36.363,expectation_shapes_perceived_time,2022.2.4,120.39460537091526,
,-33,0.5,none,,green,red,,830.090903364285,3,0,3,0,0,75,75,223,fam,0.49903140000242274,0.49903140000242274,269.99999999999955,2.507011199995759,2.507011199995759,,,,,,,,,,,,,,,,,,,,,,,,,,,,,,,,,,,,p10_base1_01,001,2023-05-05_15h52.36.363,expectation_shapes_perceived_time,2022.2.4,120.39460537091526,
,-33,0.5,none,,green,red,,830.090903364285,,,,,0,75,75,223,trial,,,,,,green,0.830090903364285,0.8333333333333334,2.307913799988455,0.9908823000005214,1e-05,1e-05,0.8333067999919876,0.8664789999893401,1.9996070999914082,2.0330447999876924,2.307913799988455,2.307913799988455,2.5077255999931367,2.307913799988455,0.0,3.5499279999930877,1.2420142000046326,1.2420142000046326,0.4416,0.14534225072194512,0.026970726938092902,,,,None,,0.0334,-0.033,-0.03333333333333333,0.763760903364285,0.7666666666666666,trial_list_0.5_green.csv,0.7660621999966679,0.800131899988628,p10_base1_01,001,2023-05-05_15h52.36.363,expectation_shapes_perceived_time,2022.2.4,120.39460537091526,
,167,0.5,none,,green,red,,1010.3997768135594,,,,,0,76,76,401,trial,,,,,,green,1.0103997768135593,1.0166666666666666,2.3082449000066845,0.9953607999923406,2e-05,2e-05,1.016837500006659,1.0498607000045013,2.0000087000080384,2.0335244000016246,2.3082449000066845,2.3082449000066845,2.508526100005838,2.799637600008282,0.4913927000015974,3.6164948000077857,1.3082499000011012,0.8168571999995038,0.54598,0.1462841403938952,-0.02127769314820294,,,,None,,0.03319,0.167,0.16666666666666666,1.2107297768135592,1.2166666666666666,trial_list_0.5_green.csv,1.2165882999979658,1.2502621000021463,p10_base1_01,001,2023-05-05_15h52.36.363,expectation_shapes_perceived_time,2022.2.4,120.39460537091526,
,100,0.5,none,,green,red,,1685.952709035815,,,,,0,77,77,17,trial,,,,,,green,1.6859527090358148,1.6916666666666667,2.3078636999998707,0.9974077000078978,1e-05,1e-05,1.6918701999966288,1.7249133000004804,1.9996110999927623,2.032884700005525,2.3078636999998707,2.3078636999998707,2.508212500004447,2.7247567000013078,0.41689300000143703,3.8250915999960853,1.5172278999962145,1.1003348999947775,1.1229,-0.05566723804471293,-0.13694140558999385,,,,None,,0.03318,0.1,0.1,1.8192827090358148,1.825,trial_list_0.5_green.csv,1.8252474000037182,1.8584845000004862,p10_base1_01,001,2023-05-05_15h52.36.363,expectation_shapes_perceived_time,2022.2.4,120.39460537091526,
,-100,0.5,none,,green,red,,1525.2191744454078,,,,,0,78,78,135,trial,,,,,,green,1.5252191744454078,1.5333333333333332,2.307770300001721,0.99762809999811,1e-05,1e-05,1.53300969999691,1.566616600000998,1.999806499996339,,2.307770300001721,2.307770300001721,2.50817499999539,2.5996354000089923,0.2918651000072714,3.5744761000096332,1.2667058000079123,0.9748407000006409,1.09345,-0.04277857168680751,-0.14149835250251713,,,,None,,,-0.1,-0.1,1.3918891744454078,1.4,trial_list_0.5_green.csv,1.399962499999674,1.4330483000085223,p10_base1_01,001,2023-05-05_15h52.36.363,expectation_shapes_perceived_time,2022.2.4,120.39460537091526,
,-33,0.5,none,,green,red,,199.3764937912792,,,,,0,79,79,29,trial,,,,,,green,0.1993764937912792,0.2,2.3079421000002185,0.9980623000010382,3e-05,3e-05,0.1996176000102423,0.23314890000619926,1.9996195000130683,2.0332996000070125,2.3079421000002185,2.3079421000002185,2.5078157000098145,2.3079421000002185,0.0,3.4165396000025794,1.108597500002361,1.108597500002361,0.39687,0.14013276688795714,0.04705951126834382,,,,None,,0.03315,-0.033,-0.03333333333333333,0.1330464937912792,0.13333333333333333,trial_list_0.5_green.csv,0.13319500000216067,0.16663050001079682,p10_base1_01,001,2023-05-05_15h52.36.363,expectation_shapes_perceived_time,2022.2.4,120.39460537091526,
,-33,0.5,none,,red,green,,608.3206118373539,,,,,0,80,80,466,trial,,,,,,red,0.6083206118373539,0.6083333333333333,2.308154899990768,0.9976934000005713,1e-05,1e-05,0.6081510999938473,0.6412781999970321,1.9998652999929618,,2.308154899990768,2.308154899990768,2.5084107000002405,2.7001172000018414,0.39196230001107324,3.357778399993549,1.049623500002781,0.6576611999917077,0.66925,0.1274141406299023,-0.07494949448817782,,,,None,,,-0.033,-0.03333333333333333,0.5419906118373539,0.5416666666666666,trial_list_0.5_green.csv,0.5414466999936849,0.5745586999983061,p10_base1_01,001,2023-05-05_15h52.36.363,expectation_shapes_perceived_time,2022.2.4,120.39460537091526,
,-300,0.5,none,,red,green,,824.0775822796479,,,,,0,81,81,176,trial,,,,,,red,0.8240775822796479,0.825,2.308830099995248,0.9982008000079077,4e-05,4e-05,0.8253120999870589,0.85879099999147,2.0003857999981847,,2.308830099995248,2.308830099995248,2.5086687999864807,2.6420107999874745,0.33318069999222644,4.000022199994419,1.6911920999991708,1.3580114000069443,0.56538,0.144716321362804,-0.03014923361725083,,,,None,,,-0.3,-0.3,0.49074758227964793,0.49166666666666664,trial_list_0.5_green.csv,0.49188229998981114,0.5253017999930307,p10_base1_01,001,2023-05-05_15h52.36.363,expectation_shapes_perceived_time,2022.2.4,120.39460537091526,
,233,0.5,none,,green,red,,1482.0130268479816,,,,,0,82,82,227,trial,,,,,,green,1.4820130268479816,1.4833333333333334,2.3086585999990348,0.9982371999940369,5e-05,5e-05,1.4834850000042934,1.5169698000099743,2.0002229000092484,,2.3086585999990348,2.3086585999990348,2.5086644000111846,2.633541300005163,0.3248827000061283,4.175028500001645,1.86636990000261,1.5414871999964816,1.268,-0.11026712299864787,-0.09845278839164988,,,,None,,0.03326,0.233,0.23333333333333334,1.7483430268479816,1.75,trial_list_0.5_green.csv,1.7502654999989318,1.7836673999991035,p10_base1_01,001,2023-05-05_15h52.36.363,expectation_shapes_perceived_time,2022.2.4,120.39460537091526,
,-33,0.5,none,,green,red,,1489.2662024290305,,,,,0,83,83,273,trial,,,,,,green,1.4892662024290304,1.4916666666666667,2.3084978999977466,0.9971182000008412,1e-05,1e-05,1.4919786999962525,1.5256021999957738,1.999952400001348,2.0335349999950267,2.3084978999977466,2.3084978999977466,2.5082975999976043,2.550103500005207,0.24160560000746045,3.4751829000015277,1.1666850000037812,0.9250793999963207,1.10151,-0.04634843827201092,-0.14036955590951877,,,,None,,0.03325,-0.033,-0.03333333333333333,1.4229362024290306,1.425,trial_list_0.5_green.csv,1.4253693999926327,1.458792599994922,p10_base1_01,001,2023-05-05_15h52.36.363,expectation_shapes_perceived_time,2022.2.4,120.39460537091526,
,-300,0.5,none,,red,green,,1333.78159252332,,,,,0,84,84,166,trial,,,,,,red,1.3337815925233198,1.3416666666666666,2.308089400001336,0.9988021000026492,1e-05,1e-05,1.3416030000080355,1.3743159000005107,1.9999237000010908,,2.308089400001336,2.308089400001336,2.508166400002665,2.3909511000092607,0.08286170000792481,3.4745515000104206,1.1664621000090847,1.0836004000011599,1.3515,-0.13202685377623818,-0.06648834362832139,,,,None,,,-0.3,-0.3,1.00045159252332,1.0,trial_list_0.5_green.csv,0.9997302999981912,1.0328991999995196,p10_base1_01,001,2023-05-05_15h52.36.363,expectation_shapes_perceived_time,2022.2.4,120.39460537091526,
,-300,0.5,none,,red,green,,748.726121326165,,,,,0,85,85,226,trial,,,,,,red,0.748726121326165,0.75,2.308593399997335,0.9969828999892343,3e-05,3e-05,0.7497734999924432,0.7833424999989802,2.0000895999983186,2.033477499993751,2.308593399997335,2.308593399997335,2.508266499993624,2.31657599999744,0.007982600000104867,3.6499162999971304,1.3413228999997955,1.3333402999996906,1.32356,-0.1256891779762587,-0.07780758636625537,,,,None,,0.03341,-0.3,-0.3,0.415396121326165,0.4166666666666667,trial_list_0.5_green.csv,0.4163552999962121,0.4498200999951223,p10_base1_01,001,2023-05-05_15h52.36.363,expectation_shapes_perceived_time,2022.2.4,120.39460537091526,
,-33,0.5,none,,green,red,,1792.1300526919647,,,,,0,86,86,421,trial,,,,,,green,1.7921300526919648,1.8,2.308280899989768,0.997022299998207,3e-05,3e-05,1.7997936000028858,1.833563199994387,2.0001663000002736,2.033449599999585,2.308280899989768,2.308280899989768,2.5085365999984788,2.7334681999927852,0.4251873000030173,4.125012899996364,1.8167320000065956,1.3915447000035783,1.17781,-0.07834630333465029,-0.12535408533544046,,,,None,,0.03323,-0.033,-0.03333333333333333,1.7258000526919648,1.7333333333333334,trial_list_0.5_green.csv,1.7336923999973806,1.7665092999959597,p10_base1_01,001,2023-05-05_15h52.36.363,expectation_shapes_perceived_time,2022.2.4,120.39460537091526,
,300,0.5,none,,green,red,,1187.7849624608675,,,,,0,87,87,195,trial,,,,,,green,1.1877849624608676,1.1916666666666667,2.3086691000062274,0.9981993999972474,3e-05,3e-05,1.1916701000009198,1.224939899999299,2.000248099997407,,2.3086691000062274,2.3086691000062274,2.508975899996585,2.5588143000059063,0.2501451999996789,3.2839261000044644,0.975256999998237,0.7251117999985581,0.65554,0.13052386693592385,-0.06939243558618738,,,,None,,,0.3,0.3,1.5211149624608675,1.525,trial_list_0.5_green.csv,1.5251792000053683,1.5584737000026507,p10_base1_01,001,2023-05-05_15h52.36.363,expectation_shapes_perceived_time,2022.2.4,120.39460537091526,
,100,0.5,none,,green,red,,236.6195627494898,,,,,0,88,88,23,trial,,,,,,green,0.2366195627494898,0.23333333333333334,2.3082540999894263,0.9983082999970065,1e-05,1e-05,0.23356799999601208,0.26630579998891335,1.9995474999886937,2.0329325999919092,2.3082540999894263,2.3082540999894263,2.507989499994437,2.3082540999894263,0.0,3.2168442999973195,0.9085902000078931,0.9085902000078931,0.70915,0.1170440317654167,-0.09029111021903573,,,,None,,0.03319,0.1,0.1,0.36994956274948976,0.375,trial_list_0.5_green.csv,0.37526669999351725,0.40814379999937955,p10_base1_01,001,2023-05-05_15h52.36.363,expectation_shapes_perceived_time,2022.2.4,120.39460537091526,
,-33,0.5,none,,green,red,,1791.451447987852,,,,,0,89,89,45,trial,,,,,,green,1.7914514479878518,1.8,2.3087018000078388,0.9973368999926606,1e-05,1e-05,1.8002050000068266,1.8332485999999335,1.9998610000038752,,2.3087018000078388,2.3087018000078388,2.5085589999944204,2.3087018000078388,0.0,3.4746919000026537,1.165990099994815,1.165990099994815,1.00955,-0.00443271101320704,-0.14775703377356803,,,,None,,,-0.033,-0.03333333333333333,1.725121447987852,1.7333333333333334,trial_list_0.5_green.csv,1.733391700006905,1.7664169000054244,p10_base1_01,001,2023-05-05_15h52.36.363,expectation_shapes_perceived_time,2022.2.4,120.39460537091526,
,-33,0.5,none,,red,green,,361.401455270725,,,,,0,90,90,48,trial,,,,,,red,0.36140145527072504,0.36666666666666664,2.3085674999892944,0.9972176000010222,2e-05,2e-05,0.36649459999171086,0.4000396999908844,1.9995884999952978,2.0329034000023967,2.3085674999892944,2.3085674999892944,2.5081120999966515,2.4165468999999575,0.10797940001066308,3.3162350999919,1.0076676000026055,0.8996881999919424,0.80684,0.08429910237507374,-0.12143084984980859,,,,None,,0.03326,-0.033,-0.03333333333333333,0.29507145527072504,0.3,trial_list_0.5_green.csv,0.3000403999903938,0.3331229999894276,p10_base1_01,001,2023-05-05_15h52.36.363,expectation_shapes_perceived_time,2022.2.4,120.39460537091526,
,-100,0.5,none,,green,red,,1246.3627825411577,,,,,0,91,91,415,trial,,,,,,green,1.2463627825411576,1.25,2.30839659999765,0.9985891999967862,1e-05,1e-05,1.2503814999945462,1.2835438000038266,1.9999839999945834,,2.30839659999765,2.30839659999765,2.5083400000003166,2.30839659999765,0.0,3.291726199997356,0.9833295999997063,0.9833295999997063,1.1506,-0.06735890248447875,-0.13158483276037708,,,,None,,,-0.1,-0.1,1.1130327825411577,1.1166666666666667,trial_list_0.5_green.csv,1.1170105000055628,1.1501372000057017,p10_base1_01,001,2023-05-05_15h52.36.363,expectation_shapes_perceived_time,2022.2.4,120.39460537091526,
,-167,0.5,none,,red,green,,366.5571130524975,,,,,0,92,92,28,trial,,,,,,red,0.36655711305249755,0.36666666666666664,2.308069599996088,0.9966294000041671,5e-05,5e-05,0.3669255999993766,0.40009519999148324,2.0001957999920705,2.0333586999913678,2.308069599996088,2.308069599996088,2.508320900000399,2.308069599996088,0.0,3.3333443000010448,1.0252747000049567,1.0252747000049567,0.69983,0.11963883382336768,-0.08682361083181542,,,,None,,0.03336,-0.167,-0.16666666666666666,0.16622711305249754,0.16666666666666666,trial_list_0.5_green.csv,0.16664929999387823,0.1999193999945419,p10_base1_01,001,2023-05-05_15h52.36.363,expectation_shapes_perceived_time,2022.2.4,120.39460537091526,
,167,0.5,none,,green,red,,638.4039193184921,,,,,0,93,93,249,trial,,,,,,green,0.638403919318492,0.6416666666666666,2.3080347000068286,0.9985047999944072,1e-05,1e-05,0.6413900000043213,0.6746604000072693,1.9997036999993725,2.032976200003759,2.3080347000068286,2.3080347000068286,2.508283400005894,2.3080347000068286,0.0,3.199856400009594,0.8918217000027653,0.8918217000027653,0.78677,0.09178387114609095,-0.11587713732193983,,,,None,,0.03313,0.167,0.16666666666666666,0.8387339193184921,0.8416666666666667,trial_list_0.5_green.csv,0.8414359000016702,0.874852799999644,p10_base1_01,001,2023-05-05_15h52.36.363,expectation_shapes_perceived_time,2022.2.4,120.39460537091526,
,-100,0.5,none,,red,green,,291.7133053344964,,,,,0,94,94,280,trial,,,,,,red,0.2917133053344964,0.2916666666666667,2.3084990000061225,0.9967634000058752,1e-05,1e-05,0.2921803000062937,0.3254400000005262,2.0002236000000266,2.0338698999985354,2.3084990000061225,2.3084990000061225,2.508526700010407,2.550174900010461,0.24167590000433847,3.625271700002486,1.3167726999963634,1.075096799992025,0.41728,0.14285961449120482,0.03798579344852845,,,,None,,0.03329,-0.1,-0.1,0.1583833053344964,0.15833333333333333,trial_list_0.5_green.csv,0.1586097000108566,0.19204740000714082,p10_base1_01,001,2023-05-05_15h52.36.363,expectation_shapes_perceived_time,2022.2.4,120.39460537091526,
,-33,0.5,none,,red,green,,837.2022348965666,,,,,0,95,95,118,trial,,,,,,red,0.8372022348965665,0.8416666666666667,2.3079187999974238,0.9981565000052797,1e-05,1e-05,0.8413815000094473,0.8744748000026448,1.999563000004855,,2.3079187999974238,2.3079187999974238,2.507882600009907,2.691039900004398,0.3831211000069743,4.33296510000946,2.0250463000120362,1.641925200005062,0.44347,0.14549842410296618,0.026115101762070853,,,,None,,,-0.033,-0.03333333333333333,0.7708722348965665,0.775,trial_list_0.5_green.csv,0.7744435000058729,0.8080526999983704,p10_base1_01,001,2023-05-05_15h52.36.363,expectation_shapes_perceived_time,2022.2.4,120.39460537091526,
,-300,0.5,none,,green,red,,578.0923712601888,,,,,0,96,96,369,trial,,,,,,green,0.5780923712601888,0.5833333333333334,2.3088114999991376,0.9965285999933258,2e-05,2e-05,0.5837513999867951,0.616992899987963,2.0005160000000615,2.033981299988227,2.3088114999991376,2.3088114999991376,2.5087132999906316,2.7338992999866605,0.4250877999875229,3.2752368999936152,0.9664253999944776,0.5413376000069547,0.6756,0.12589512125743405,-0.07747392077380558,,,,None,,0.03327,-0.3,-0.3,0.2447623712601888,0.24166666666666667,trial_list_0.5_green.csv,0.2419301999907475,0.27543159999186173,p10_base1_01,001,2023-05-05_15h52.36.363,expectation_shapes_perceived_time,2022.2.4,120.39460537091526,
,300,0.5,none,,green,red,,1326.4250509633994,,,,,0,97,97,337,trial,,,,,,green,1.3264250509633995,1.3333333333333333,2.3081500999978743,0.9988538000034168,1e-05,1e-05,1.3332306000083918,1.3666008000000147,1.9997494999988703,2.032854100005352,2.3081500999978743,2.3081500999978743,2.508266300006653,2.549936199997319,0.24178609999944456,4.233470999999554,1.9253209000016795,1.683534800002235,1.37672,-0.13687490390313622,-0.05583055290785819,,,,None,,,0.3,0.3,1.6597550509633994,1.6666666666666667,trial_list_0.5_green.csv,1.6665483999968274,1.6999735999997938,p10_base1_01,001,2023-05-05_15h52.36.363,expectation_shapes_perceived_time,2022.2.4,120.39460537091526,
,233,0.5,none,,red,green,,1516.5922561357152,,,,,0,98,98,210,trial,,,,,,red,1.5165922561357152,1.525,2.3082858999987366,0.9974690999952145,1e-05,1e-05,1.5247498999960953,1.5578459999960614,1.9997350000048755,2.0330374000041047,2.3082858999987366,2.3082858999987366,2.507972499995958,2.491267400007928,0.18298150000919122,3.7497231000015745,1.441437200002838,1.2584556999936467,1.52029,-0.14752329218652271,0.009416380352331237,,,,None,,0.0334,0.233,0.23333333333333334,1.782922256135715,1.7916666666666667,trial_list_0.5_green.csv,1.7911065999942366,1.8244174999999814,p10_base1_01,001,2023-05-05_15h52.36.363,expectation_shapes_perceived_time,2022.2.4,120.39460537091526,
,-300,0.5,none,,green,red,,1055.8716191685576,,,,,0,99,99,193,trial,,,,,,green,1.0558716191685575,1.0583333333333333,2.308209499999066,0.9978657000028761,1e-05,1e-05,1.0587570000061532,1.0916846000036458,1.999632200007909,,2.308209499999066,2.308209499999066,2.508537100002286,2.774910899999668,0.466701400000602,4.300110399999539,1.9919009000004735,1.5251994999998715,1.14508,-0.06506558454553672,-0.1327337924728949,,,,None,,0.03336,-0.3,-0.3,0.7225416191685575,0.725,trial_list_0.5_green.csv,0.724712900002487,0.7580186000122922,p10_base1_01,001,2023-05-05_15h52.36.363,expectation_shapes_perceived_time,2022.2.4,120.39460537091526,
,-167,0.5,none,,red,green,,1269.958390987351,0,0,0,0,0,100,100,400,fam,0.5477675000001909,0.5477675000001909,269.99999999999955,2.556122099995264,2.556122099995264,,,,,,,,,,,,,,,,,,,,,,,,,,,,,,,,,,,,p10_base1_01,001,2023-05-05_15h52.36.363,expectation_shapes_perceived_time,2022.2.4,120.39460537091526,
,-167,0.5,none,,red,green,,1269.958390987351,1,0,1,0,0,100,100,400,fam,0.4983133999921847,0.4983133999921847,269.99999999999955,2.506704200000968,2.506704200000968,,,,,,,,,,,,,,,,,,,,,,,,,,,,,,,,,,,,p10_base1_01,001,2023-05-05_15h52.36.363,expectation_shapes_perceived_time,2022.2.4,120.39460537091526,
,-167,0.5,none,,red,green,,1269.958390987351,2,0,2,0,0,100,100,400,fam,0.49837050000496674,0.49837050000496674,269.99999999999955,2.5070453000080306,2.5070453000080306,,,,,,,,,,,,,,,,,,,,,,,,,,,,,,,,,,,,p10_base1_01,001,2023-05-05_15h52.36.363,expectation_shapes_perceived_time,2022.2.4,120.39460537091526,
,-167,0.5,none,,red,green,,1269.958390987351,3,0,3,0,0,100,100,400,fam,0.4985969999979716,0.4985969999979716,269.99999999999955,2.5067415999947116,2.5067415999947116,,,,,,,,,,,,,,,,,,,,,,,,,,,,,,,,,,,,p10_base1_01,001,2023-05-05_15h52.36.363,expectation_shapes_perceived_time,2022.2.4,120.39460537091526,
,-167,0.5,none,,red,green,,1269.958390987351,,,,,0,100,100,400,trial,,,,,,red,1.269958390987351,1.275,2.3083468999975594,0.9982559999916703,2e-05,2e-05,1.2750119999982417,1.3083484000089811,1.999779400008265,,2.3083468999975594,2.3083468999975594,2.508501800009981,2.3083468999975594,0.0,3.449891399999615,1.1415445000020554,1.1415445000020554,1.02975,-0.013797951136833774,-0.14717814545956026,,,,None,,,-0.167,-0.16666666666666666,1.0696283909873512,1.075,trial_list_0.5_green.csv,1.0752366000087932,1.1082612000027439,p10_base1_01,001,2023-05-05_15h52.36.363,expectation_shapes_perceived_time,2022.2.4,120.39460537091526,
,-100,0.5,none,,green,red,,1653.448596922668,,,,,0,101,101,303,trial,,,,,,green,1.653448596922668,1.6583333333333332,2.308384700008901,0.9985273000056623,1e-05,1e-05,1.6584468000073684,1.6917800000082934,1.9996774000028381,,2.308384700008901,2.308384700008901,2.5078318000014406,3.1248456000030274,0.8164608999941265,4.291435799997998,1.9830510999890976,1.166590199994971,1.47411,-0.14733474203362495,-0.012010984404915078,,,,None,,,-0.1,-0.1,1.520118596922668,1.525,trial_list_0.5_green.csv,1.5244528000039281,1.5584393000026466,p10_base1_01,001,2023-05-05_15h52.36.363,expectation_shapes_perceived_time,2022.2.4,120.39460537091526,
,100,0.5,none,,green,red,,1090.4895776500396,,,,,0,102,102,177,trial,,,,,,green,1.0904895776500396,1.0916666666666666,2.307678900004248,0.9966841999994358,1e-05,1e-05,1.0914661999995587,1.1246508000040194,1.9999104000016814,,2.307678900004248,2.307678900004248,2.5078209999919636,2.307678900004248,0.0,3.8661940000019968,1.5585150999977486,1.5585150999977486,1.10869,-0.049499593954604335,-0.13928955508156102,,,,None,,,0.1,0.1,1.2238195776500396,1.225,trial_list_0.5_green.csv,1.2246913999988465,1.2583269000024302,p10_base1_01,001,2023-05-05_15h52.36.363,expectation_shapes_perceived_time,2022.2.4,120.39460537091526,
,167,0.5,none,,red,green,,1571.706662699831,,,,,0,103,103,352,trial,,,,,,red,1.571706662699831,1.575,2.308648499994888,0.9980474999902071,2e-05,2e-05,1.5750302999949781,1.6087887000030605,2.0002036999940174,2.0332468999986304,2.308648499994888,2.308648499994888,2.5080278999957955,2.308648499994888,0.0,3.6579215999954613,1.3492731000005733,1.3492731000005733,1.47143,-0.14722843690725404,-0.013250559321652863,,,,None,,0.03322,0.167,0.16666666666666666,1.772036662699831,1.775,trial_list_0.5_green.csv,1.7751822999998694,1.808296999995946,p10_base1_01,001,2023-05-05_15h52.36.363,expectation_shapes_perceived_time,2022.2.4,120.39460537091526,
,-33,0.5,none,,red,green,,1169.8151742347,,,,,0,104,104,256,trial,,,,,,red,1.1698151742347,1.175,2.3084377000050154,0.9988415999978315,2e-05,2e-05,1.1750126000115415,1.2087020000035409,2.000056000004406,2.0336474000068847,2.3084377000050154,2.3084377000050154,2.508494599998812,2.3084377000050154,0.0,4.024795400007861,1.7163577000028454,1.7163577000028454,1.00168,-0.0007780076953189545,-0.14782146211060135,,,,None,,0.03346,-0.033,-0.03333333333333333,1.1034851742347,1.1083333333333334,trial_list_0.5_green.csv,1.1086424000095576,1.1420075000060024,p10_base1_01,001,2023-05-05_15h52.36.363,expectation_shapes_perceived_time,2022.2.4,120.39460537091526,
,300,0.5,none,,red,green,,1455.8110551853456,,,,,0,105,105,238,trial,,,,,,red,1.4558110551853456,1.4583333333333333,2.308355900007882,0.9988255999924149,2e-05,2e-05,1.4583768000011332,1.4918739999993704,2.00033940000867,,2.308355900007882,2.308355900007882,2.509180200009723,2.5498845999973128,0.2415286999894306,3.724724600004265,1.416368699996383,1.1748400000069523,1.43498,-0.1447506342152904,-0.02998405994459587,,,,None,,,0.3,0.3,1.7891410551853455,1.7916666666666667,trial_list_0.5_green.csv,1.7920135000022128,1.825352700005169,p10_base1_01,001,2023-05-05_15h52.36.363,expectation_shapes_perceived_time,2022.2.4,120.39460537091526,
,-167,0.5,none,,red,green,,1541.1446451899417,,,,,0,106,106,448,trial,,,,,,red,1.5411446451899418,1.55,2.308711800011224,0.99720189999789,1e-05,1e-05,1.5496420999988914,1.5831527000118513,1.9999351000005845,2.033240700009628,2.308711800011224,2.308711800011224,2.508307500000228,2.308711800011224,0.0,3.624988300012774,1.3162765000015497,1.3162765000015497,1.40296,-0.14100657305640996,-0.04437269781495419,,,,None,,0.03314,-0.167,-0.16666666666666666,1.3408146451899419,1.3416666666666666,trial_list_0.5_green.csv,1.3413733000052162,1.3746647000079975,p10_base1_01,001,2023-05-05_15h52.36.363,expectation_shapes_perceived_time,2022.2.4,120.39460537091526,
,33,0.5,none,,red,green,,620.8749207023308,,,,,0,107,107,62,trial,,,,,,red,0.6208749207023307,0.625,2.307948400004534,0.9975544000044465,6e-05,6e-05,0.6247390999924392,0.6584536000009393,2.000105600003735,,2.307948400004534,2.307948400004534,2.5082726999971783,2.316480800000136,0.008532399995601736,3.441137100002379,1.133188699997845,1.1246563000022434,1.049,-0.022666862230780162,-0.1460753343761388,,,,None,,,0.033,0.03333333333333333,0.6872049207023309,0.6916666666666667,trial_list_0.5_green.csv,0.6915330999909202,0.724950899995747,p10_base1_01,001,2023-05-05_15h52.36.363,expectation_shapes_perceived_time,2022.2.4,120.39460537091526,
,100,0.5,none,,green,red,,985.5193414133902,,,,,0,108,108,285,trial,,,,,,green,0.9855193414133901,0.9916666666666667,2.3083989000006113,0.9986223000014434,3e-05,3e-05,0.9916679000016302,1.025000599998748,2.0001268000050914,2.03341210000508,2.3083989000006113,2.3083989000006113,2.508617100000265,2.516906900011236,0.20850800001062453,3.6583516000100644,1.349952700009453,1.1414446999988286,1.45986,-0.14665000101556505,-0.01858943674845191,,,,None,,0.03325,0.1,0.1,1.11884934141339,1.125,trial_list_0.5_green.csv,1.124915799999144,1.1584155000018654,p10_base1_01,001,2023-05-05_15h52.36.363,expectation_shapes_perceived_time,2022.2.4,120.39460537091526,
,-33,0.5,none,,green,red,,716.3338535359721,,,,,0,109,109,491,trial,,,,,,green,0.7163338535359721,0.7166666666666667,2.3082699999940814,0.9970807999925455,1e-05,1e-05,0.7159762999945087,0.7496625000057975,1.9997756999946432,,2.3082699999940814,2.3082699999940814,2.507964300006279,2.3082699999940814,0.0,3.4417183000041405,1.133448300010059,1.133448300010059,1.58032,-0.14314287637375417,0.0369040228151085,,,,None,,,-0.033,-0.03333333333333333,0.6500038535359721,0.65,trial_list_0.5_green.csv,0.649325599995791,0.6826048000075389,p10_base1_01,001,2023-05-05_15h52.36.363,expectation_shapes_perceived_time,2022.2.4,120.39460537091526,
,-33,0.5,none,,green,red,,930.565380960434,,,,,0,110,110,435,trial,,,,,,green,0.9305653809604341,0.9333333333333333,2.3086339000001317,0.9964157999929739,1e-05,1e-05,0.9335731000028318,0.9671263000054751,2.0002300000051036,2.0334377999970457,2.3086339000001317,2.3086339000001317,2.5086425000044983,2.425438200007193,0.1168043000070611,3.5090655999956653,1.2004316999955336,1.0836273999884725,1.23903,-0.10086267835394643,-0.10806715537922831,,,,None,,0.03332,-0.033,-0.03333333333333333,0.864235380960434,0.8666666666666667,trial_list_0.5_green.csv,0.8668976000044495,0.9001942000031704,p10_base1_01,001,2023-05-05_15h52.36.363,expectation_shapes_perceived_time,2022.2.4,120.39460537091526,
,100,0.5,none,,green,red,,534.6447796355338,,,,,0,111,111,403,trial,,,,,,green,0.5346447796355338,0.5333333333333333,2.3082333999918774,0.9974390000134008,1e-05,1e-05,0.5329093000036664,0.5661205999931553,1.9998057999910088,,2.3082333999918774,2.3082333999918774,2.508242900003097,2.4584289000049466,0.15019550001306925,3.158510399996885,0.8502770000050077,0.7000814999919385,1.07356,-0.03385739812143824,-0.14389394201611252,,,,None,,,0.1,0.1,0.6679747796355339,0.6666666666666666,trial_list_0.5_green.csv,0.6665135999937775,0.699965699997847,p10_base1_01,001,2023-05-05_15h52.36.363,expectation_shapes_perceived_time,2022.2.4,120.39460537091526,
,33,0.5,none,,red,green,,269.9137079487409,,,,,0,112,112,430,trial,,,,,,red,0.2699137079487409,0.26666666666666666,2.3079232000018237,0.9963181000057375,1e-05,1e-05,0.26669200000469573,0.30001310000079684,1.9996717000030912,,2.3079232000018237,2.3079232000018237,2.5077057000016794,2.3079232000018237,0.0,3.3246916999923997,1.016768499990576,1.016768499990576,0.43486,0.14473900010994276,0.030040169834139062,,,,None,,,0.033,0.03333333333333333,0.3362437079487409,0.3333333333333333,trial_list_0.5_green.csv,0.33333939999283757,0.36641109999618493,p10_base1_01,001,2023-05-05_15h52.36.363,expectation_shapes_perceived_time,2022.2.4,120.39460537091526,
,-233,0.5,none,,red,green,,636.2167987088169,,,,,0,113,113,202,trial,,,,,,red,0.6362167987088169,0.6416666666666666,2.3085982000047807,0.9978781999961939,1e-05,1e-05,0.6421214000001783,0.6752567999938037,1.9999552999943262,2.0333239000028698,2.3085982000047807,2.3085982000047807,2.508552700004657,2.9251939999958267,0.6165957999910461,3.7002594000077806,1.391661200003,0.7750654000119539,0.36595,0.13490841272053986,0.06042772653107516,,,,None,,0.0333,-0.233,-0.23333333333333334,0.3698867987088169,0.375,trial_list_0.5_green.csv,0.3752315000019735,0.40879190000123344,p10_base1_01,001,2023-05-05_15h52.36.363,expectation_shapes_perceived_time,2022.2.4,120.39460537091526,
,33,0.5,none,,red,green,,1077.5099201265275,,,,,0,114,114,472,trial,,,,,,red,1.0775099201265275,1.0833333333333333,2.3076059999875724,0.998221799993189,1e-05,1e-05,1.0830157999880612,1.1160292999993544,1.9995326999924146,2.0328171999863116,2.3076059999875724,2.3076059999875724,2.5076477999973577,2.5831348999927286,0.2755289000051562,3.3249699999869335,1.0173639999993611,0.7418350999942049,0.96613,0.015697711127565094,-0.1469876587399277,,,,None,,0.03284,0.033,0.03333333333333333,1.1438399201265275,1.15,trial_list_0.5_green.csv,1.1491910999902757,1.182551699996111,p10_base1_01,001,2023-05-05_15h52.36.363,expectation_shapes_perceived_time,2022.2.4,120.39460537091526,
,33,0.5,none,,green,red,,512.0808562432619,,,,,0,115,115,455,trial,,,,,,green,0.5120808562432619,0.5166666666666666,2.3087090000044554,0.9971775000012713,4e-05,4e-05,0.5163811999955215,0.5497712999931537,2.000019999992219,,2.3087090000044554,2.3087090000044554,2.508653900003992,2.4916049000021303,0.18289589999767486,3.5332436000026064,1.224534599998151,1.041638700000476,1.18273,-0.08027448897105537,-0.1241281449830208,,,,None,,,0.033,0.03333333333333333,0.5784108562432619,0.5833333333333334,trial_list_0.5_green.csv,0.5831920999917202,0.6171103999949992,p10_base1_01,001,2023-05-05_15h52.36.363,expectation_shapes_perceived_time,2022.2.4,120.39460537091526,
,-300,0.5,none,,red,green,,1210.452332929311,,,,,0,116,116,318,trial,,,,,,red,1.210452332929311,1.2166666666666666,2.3087051000038628,0.9970029999967664,3e-05,3e-05,1.2171865999989677,1.2502990000066347,1.999961900000926,,2.3087051000038628,2.3087051000038628,2.508830200007651,2.566871800008812,0.25816670000494923,4.358289499999955,2.0495843999960925,1.7914176999911433,1.05404,-0.024976824125675912,-0.14569814073310947,,,,None,,0.03328,-0.3,-0.3,0.8771223329293111,0.8833333333333333,trial_list_0.5_green.csv,0.8838123000023188,0.9169662000058452,p10_base1_01,001,2023-05-05_15h52.36.363,expectation_shapes_perceived_time,2022.2.4,120.39460537091526,
,-233,0.5,none,,red,green,,798.85188012397,,,,,0,117,117,362,trial,,,,,,red,0.79885188012397,0.8,2.307910899995477,0.9979909999965457,3e-05,3e-05,0.799808399999165,0.8329687999939779,1.9997540000040317,,2.307910899995477,2.307910899995477,2.5078885999973863,2.449669099994935,0.14175819999945816,4.232783200000995,1.924872300005518,1.7831141000060597,1.26446,-0.10916551741628926,-0.09967286372791628,,,,None,,,-0.233,-0.23333333333333334,0.53252188012397,0.5333333333333333,trial_list_0.5_green.csv,0.5330393000040203,0.5664105000032578,p10_base1_01,001,2023-05-05_15h52.36.363,expectation_shapes_perceived_time,2022.2.4,120.39460537091526,
,33,0.5,none,,red,green,,724.3106948988603,,,,,0,118,118,488,trial,,,,,,red,0.7243106948988604,0.725,2.3080937000049744,0.9987646999943536,1e-05,1e-05,0.7246343000006163,0.7581685000041034,1.9997181000071578,2.0333208000083687,2.3080937000049744,2.3080937000049744,2.5080795000103535,2.5496371000044746,0.24154339999950025,4.191113400011091,1.8830197000061162,1.641476300006616,1.02854,-0.01323414947162697,-0.14722991287185005,,,,None,,0.03338,0.033,0.03333333333333333,0.7906406948988604,0.7916666666666666,trial_list_0.5_green.csv,0.7913908000045922,0.8244586000073468,p10_base1_01,001,2023-05-05_15h52.36.363,expectation_shapes_perceived_time,2022.2.4,120.39460537091526,
,100,0.5,none,,red,green,,308.56691818229933,,,,,0,119,119,296,trial,,,,,,red,0.3085669181822993,0.30833333333333335,2.308305799990194,0.998487999997451,1e-05,1e-05,0.30840329999045935,0.34153549998882227,1.99993409999297,2.033732299998519,2.308305799990194,2.308305799990194,2.5082949999923585,2.308305799990194,0.0,3.5916269999870565,1.2833211999968626,1.2833211999968626,0.60151,0.14036955590951877,-0.04634843827201092,,,,None,,0.03329,0.1,0.1,0.4418969181822993,0.44166666666666665,trial_list_0.5_green.csv,0.4419719999859808,0.47497259998635855,p10_base1_01,001,2023-05-05_15h52.36.363,expectation_shapes_perceived_time,2022.2.4,120.39460537091526,
,167,0.5,none,,green,red,,578.9667198870969,,,,,0,120,120,147,trial,,,,,,green,0.5789667198870969,0.5833333333333334,2.3084617999993498,0.9977435999899171,2e-05,2e-05,0.5832946000009542,0.6165924999950221,2.0003086000069743,2.0333375000045635,2.3084617999993498,2.3084617999993498,2.508228799997596,2.6164406000025338,0.307978800003184,3.3834522999968613,1.0749904999975115,0.7670116999943275,1.06572,-0.03030537062401558,-0.14468370491465504,,,,None,,0.03324,0.167,0.16666666666666666,0.7792967198870969,0.7833333333333333,trial_list_0.5_green.csv,0.7830504000012297,0.8169861000060337,p10_base1_01,001,2023-05-05_15h52.36.363,expectation_shapes_perceived_time,2022.2.4,120.39460537091526,
,-33,0.5,none,,red,green,,1388.3801640399045,,,,,0,121,121,350,trial,,,,,,red,1.3883801640399045,1.3916666666666666,2.3088578000024427,0.9970905000081984,3e-05,3e-05,1.3922424000047613,1.4254884999973,2.0003734000056284,,2.3088578000024427,2.3088578000024427,2.50863229999959,2.5752816000021994,0.26642379999975674,3.8167116999975406,1.507853899995098,1.2414300999953412,1.21258,-0.09154498056285335,-0.1160659574993319,,,,None,,,-0.033,-0.03333333333333333,1.3220501640399045,1.325,trial_list_0.5_green.csv,1.3255092000035802,1.3584896000102162,p10_base1_01,001,2023-05-05_15h52.36.363,expectation_shapes_perceived_time,2022.2.4,120.39460537091526,
,300,0.5,none,,red,green,,509.6472819001077,,,,,0,122,122,354,trial,,,,,,red,0.5096472819001077,0.5083333333333333,2.3082168999972055,0.9980092000041623,2e-05,2e-05,0.5086644999973942,0.541962399991462,1.9998840999905951,2.033307199992123,2.3082168999972055,2.3082168999972055,2.508254400003352,2.3082168999972055,0.0,3.4416234999953303,1.1334065999981249,1.1334065999981249,1.29824,-0.11910844854298872,-0.08754979978373531,,,,None,,0.03371,0.3,0.3,0.8429772819001078,0.8416666666666667,trial_list_0.5_green.csv,0.8418634999979986,0.8751423999929102,p10_base1_01,001,2023-05-05_15h52.36.363,expectation_shapes_perceived_time,2022.2.4,120.39460537091526,
