delay,expectation,congruency,stim_color,distractor_color,targetTimeMs,famLoop.thisRepN,famLoop.thisTrialN,famLoop.thisN,famLoop.thisIndex,trialss.thisRepN,trialss.thisTrialN,trialss.thisN,trialss.thisIndex,isTrial,handMove.started,audioCue2Start.started,handOri,handMove.ended,audioCue2End.started,target_color,expected_target_onset,expected_target_onset_in_frames,expected_delay,expected_delays_frame,expected_distractor,expected_distractor_frame,expBlockFiles,fixationPoint.started,fixationPoint.stopped,audCueStart.started,placeholder.started,audCueStart.stopped,distractor.started,distractor.stopped,target.started,target.stopped,audCueEnd.started,audCueEnd.stopped,responsePointer.started,responseStarted,rtUntillMotionTreshold,cueForRep.started,space2pass.started,responsePointer.stopped,rTAfterMotionTreshold,rtDurationBtwRespMotion,perceivedTime,resp_x_coord,resp_y_coord,space2pass.keys,participant,session,date,expName,psychopyVersion,frameRate,
,,,,,,0,0,0,0,0,-1,-1,0,fam,0.564974999986589,0.564974999986589,269.99999999999955,2.573312599968631,2.573312599968631,,,,,,,,,,,,,,,,,,,,,,,,,,,,,,,,p12_base_02_cont,001,2023-05-10_11h09.03.874,expectation_shapes_perceived_time,2022.2.4,120.28483444436092,
,,,,,,1,0,1,0,0,-1,-1,0,fam,0.4975179000175558,0.4975179000175558,269.99999999999955,2.50594220001949,2.50594220001949,,,,,,,,,,,,,,,,,,,,,,,,,,,,,,,,p12_base_02_cont,001,2023-05-10_11h09.03.874,expectation_shapes_perceived_time,2022.2.4,120.28483444436092,
,,,,,,2,0,2,0,0,-1,-1,0,fam,0.49758020002627745,0.49758020002627745,269.99999999999955,2.505758600018453,2.505758600018453,,,,,,,,,,,,,,,,,,,,,,,,,,,,,,,,p12_base_02_cont,001,2023-05-10_11h09.03.874,expectation_shapes_perceived_time,2022.2.4,120.28483444436092,
,,,,,,3,0,3,0,0,-1,-1,0,fam,0.4973083999939263,0.4973083999939263,269.99999999999955,2.505754599987995,2.505754599987995,,,,,,,,,,,,,,,,,,,,,,,,,,,,,,,,p12_base_02_cont,001,2023-05-10_11h09.03.874,expectation_shapes_perceived_time,2022.2.4,120.28483444436092,
,,,,,,0,0,0,0,0,-1,-1,0,fam,0.5413375999778509,0.5413375999778509,269.99999999999955,2.5494600999518298,2.5494600999518298,,,,,,,,,,,,,,,,,,,,,,,,,,,,,,,,p12_base_02_cont,001,2023-05-10_11h09.03.874,expectation_shapes_perceived_time,2022.2.4,120.28483444436092,
,,,,,,1,0,1,0,0,-1,-1,0,fam,0.4973009999957867,0.4973009999957867,269.99999999999955,2.506085700006224,2.506085700006224,,,,,,,,,,,,,,,,,,,,,,,,,,,,,,,,p12_base_02_cont,001,2023-05-10_11h09.03.874,expectation_shapes_perceived_time,2022.2.4,120.28483444436092,
,,,,,,2,0,2,0,0,-1,-1,0,fam,0.49747310002567247,0.49747310002567247,269.99999999999955,2.505988900025841,2.505988900025841,,,,,,,,,,,,,,,,,,,,,,,,,,,,,,,,p12_base_02_cont,001,2023-05-10_11h09.03.874,expectation_shapes_perceived_time,2022.2.4,120.28483444436092,
,,,,,,3,0,3,0,0,-1,-1,0,fam,0.49765340000158176,0.49765340000158176,269.99999999999955,2.505864600010682,2.505864600010682,,,,,,,,,,,,,,,,,,,,,,,,,,,,,,,,p12_base_02_cont,001,2023-05-10_11h09.03.874,expectation_shapes_perceived_time,2022.2.4,120.28483444436092,
-300,0.5,none,green,red,1070.762907457559,,,,,0,0,0,15,trial,,,,,,green,1.070762907457559,1.075,-0.3,-0.3,0.7374329074575591,0.7416666666666667,trial_list_0.5_green.csv,2.3083276000106707,0.9984344000113197,3e-05,3e-05,0.03313,0.7415009000105783,0.7750488999881782,1.0749555000220425,1.1084974000114016,2.000118099967949,2.0334278999944218,2.3083276000106707,2.3083276000106707,0.0,2.3083276000106707,2.5081643000012264,4.1997742999810725,1.8914466999704018,1.8914466999704018,0.47949,0.1475168213757151,0.009517214282304199,None,p12_base_02_cont,001,2023-05-10_11h09.03.874,expectation_shapes_perceived_time,2022.2.4,120.28483444436092,
233,0.5,none,green,red,736.0407985418567,,,,,0,1,1,399,trial,,,,,,green,0.7360407985418567,0.7416666666666667,0.233,0.23333333333333334,1.0023707985418568,1.0083333333333333,trial_list_0.5_green.csv,2.3083661000127904,0.9968433000030927,3e-05,3e-05,0.03339,1.0084451000439003,1.0416480000130832,0.7414791000192054,0.7751878000563011,2.000240500026848,2.0334695000201464,2.3083661000127904,2.5083171000005677,0.19995099998777732,2.3083661000127904,2.5083171000005677,3.5077585000544786,1.1993924000416882,0.9994414000539109,0.72373,0.11278699950889463,-0.09555565236170241,None,p12_base_02_cont,001,2023-05-10_11h09.03.874,expectation_shapes_perceived_time,2022.2.4,120.28483444436092,
233,0.5,none,red,green,1547.4093276474282,,,,,0,2,2,216,trial,,,,,,red,1.5474093276474281,1.55,0.233,0.23333333333333334,1.813739327647428,1.8166666666666667,trial_list_0.5_green.csv,2.308225999993738,0.9990120000438765,4e-05,4e-05,0.03331,1.816588399989996,1.8502816999680363,1.550176399992779,1.5835336999734864,1.9999411999597214,2.033325499971397,2.308225999993738,2.3669135000091046,0.05868750001536682,2.308225999993738,2.5081792999990284,3.2916354999761097,0.9834094999823719,0.9247219999670051,1.63127,-0.13542959248575295,0.059250446712516926,None,p12_base_02_cont,001,2023-05-10_11h09.03.874,expectation_shapes_perceived_time,2022.2.4,120.28483444436092,
-300,0.5,none,green,red,499.8907665076944,,,,,0,3,3,67,trial,,,,,,green,0.49989076650769443,0.5,-0.3,-0.3,0.16656076650769444,0.16666666666666666,trial_list_0.5_green.csv,2.308459000021685,0.9975153999985196,3e-05,3e-05,0.0331,0.16655720002017915,0.2000652000424452,0.4999843999976292,0.5334741999977268,1.9999022000120021,2.0332612000056542,2.308459000021685,2.308459000021685,0.0,2.308459000021685,2.5082217000308447,3.5167070000316016,1.2082480000099167,1.2082480000099167,0.10503,0.04789377859404938,0.13984983349462418,None,p12_base_02_cont,001,2023-05-10_11h09.03.874,expectation_shapes_perceived_time,2022.2.4,120.28483444436092,
167,0.5,none,green,red,616.2976003768565,,,,,0,4,4,279,trial,,,,,,green,0.6162976003768565,0.6166666666666667,0.167,0.16666666666666666,0.8166276003768566,0.8166666666666667,trial_list_0.5_green.csv,2.3085357999661937,0.9966628999682143,3e-05,3e-05,,0.8168196000042371,0.8503499999642372,0.6169445000123233,0.6503453999757767,2.0004939999780618,,2.3085357999661937,2.3170743999653496,0.00853859999915585,2.3085357999661937,2.5085181000176817,3.4832931999699213,1.1747574000037275,1.1662188000045717,0.39639,0.14006163388991835,0.04727080143784744,None,p12_base_02_cont,001,2023-05-10_11h09.03.874,expectation_shapes_perceived_time,2022.2.4,120.28483444436092,
-33,0.5,none,green,red,339.99059092155005,,,,,0,5,5,431,trial,,,,,,green,0.33999059092155004,0.3416666666666667,-0.033,-0.03333333333333333,0.27366059092155004,0.275,trial_list_0.5_green.csv,2.3082848000340164,0.9967574999900535,4e-05,4e-05,0.03306,0.2747255000285804,0.308130000019446,0.3415021999971941,0.3747787000029348,1.9997119000181556,2.0333159000147134,2.3082848000340164,2.3082848000340164,0.0,2.3082848000340164,2.508055599988438,4.024759099993389,1.7164742999593727,1.7164742999593727,0.5554,0.14559023943946708,-0.02559828385748872,None,p12_base_02_cont,001,2023-05-10_11h09.03.874,expectation_shapes_perceived_time,2022.2.4,120.28483444436092,
300,0.5,none,red,green,605.372122413557,,,,,0,6,6,170,trial,,,,,,red,0.605372122413557,0.6083333333333333,0.3,0.3,0.938702122413557,0.9416666666666667,trial_list_0.5_green.csv,2.3082449000212364,0.9963896000408567,4e-05,4e-05,0.03317,0.9418448000214994,0.975021900027059,0.6080040999804623,0.6412474000244401,2.000012999982573,,2.3082449000212364,2.350116599991452,0.04187169997021556,2.3082449000212364,2.508453599992208,3.3417146999854594,1.033469799964223,0.9915980999940075,0.40691,0.14154728381707976,0.042616386525572404,None,p12_base_02_cont,001,2023-05-10_11h09.03.874,expectation_shapes_perceived_time,2022.2.4,120.28483444436092,
-300,0.5,none,green,red,1171.8717283292451,,,,,0,7,7,445,trial,,,,,,green,1.171871728329245,1.175,-0.3,-0.3,0.8385417283292451,0.8416666666666667,trial_list_0.5_green.csv,2.3082271000021137,0.9974933000048622,3e-05,3e-05,,0.841829500044696,0.8751143000554293,1.1746831000200473,1.2079177999985404,2.0000927000073716,,2.3082271000021137,2.3082271000021137,0.0,2.3082271000021137,2.508264500007499,3.724812700005714,1.4165856000036001,1.4165856000036001,0.88709,0.051341226972398644,-0.13862131282547635,None,p12_base_02_cont,001,2023-05-10_11h09.03.874,expectation_shapes_perceived_time,2022.2.4,120.28483444436092,
-100,0.5,none,green,red,1748.4750143799515,,,,,0,8,8,393,trial,,,,,,green,1.7484750143799515,1.75,-0.1,-0.1,1.6151450143799515,1.6166666666666667,trial_list_0.5_green.csv,2.308575499977451,0.9977356999879703,8e-05,8e-05,0.03325,1.6161103999475017,1.6494708999525756,1.7494810999487527,1.7828799999551848,1.999892899999395,2.033423099957872,2.308575499977451,2.491571999969892,0.18299649999244139,2.308575499977451,2.5081587999593467,3.64180069998838,1.3332252000109293,1.1502287000184879,1.84446,-0.06939243558618738,0.13052386693592385,None,p12_base_02_cont,001,2023-05-10_11h09.03.874,expectation_shapes_perceived_time,2022.2.4,120.28483444436092,
300,0.5,none,red,green,1136.3347433268586,,,,,0,9,9,454,trial,,,,,,red,1.1363347433268587,1.1416666666666666,0.3,0.3,1.4696647433268586,1.475,trial_list_0.5_green.csv,2.308006899955217,0.9963885999750346,4e-05,4e-05,0.03341,1.475034999952186,1.5083394999965094,1.141450299997814,1.1748967999592423,1.9992382999625988,2.032622499973513,2.308006899955217,2.7746153000043705,0.4666084000491537,2.308006899955217,2.508128499961458,6.699829899996985,4.391823000041768,3.9252145999926142,1.76214,-0.10046427447306035,0.1084376295899699,None,p12_base_02_cont,001,2023-05-10_11h09.03.874,expectation_shapes_perceived_time,2022.2.4,120.28483444436092,
-300,0.5,none,green,red,737.7591837303523,,,,,0,10,10,409,trial,,,,,,green,0.7377591837303523,0.7416666666666667,-0.3,-0.3,0.40442918373035236,0.4083333333333333,trial_list_0.5_green.csv,2.3084446000284515,0.9974365999805741,4e-05,4e-05,0.03319,0.40808730002027005,0.4413515000487678,0.7413165000034496,0.7750724000507034,1.9997524000355043,2.032993400003761,2.3084446000284515,2.316363200021442,0.007918599992990494,2.3084446000284515,2.5081447000266053,3.524429700046312,1.2159851000178605,1.20806650002487,0.32416,0.12583589896069822,0.07757007470180027,None,p12_base_02_cont,001,2023-05-10_11h09.03.874,expectation_shapes_perceived_time,2022.2.4,120.28483444436092,
167,0.5,none,green,red,1010.3997768135594,,,,,0,11,11,401,trial,,,,,,green,1.0103997768135593,1.0166666666666666,0.167,0.16666666666666666,1.2107297768135592,1.2166666666666666,trial_list_0.5_green.csv,2.3086286999750882,0.9965012000175193,2e-05,2e-05,0.03355,1.2170200999826193,1.2503706999705173,1.0169189000152983,1.0502763999975286,2.0004110999871045,2.033578699978534,2.3086286999750882,2.408673500001896,0.10004480002680793,2.3086286999750882,2.508413699979428,3.31683740002336,1.0082087000482716,0.9081639000214636,1.49682,-0.14781611886391258,-0.0014781611886391256,None,p12_base_02_cont,001,2023-05-10_11h09.03.874,expectation_shapes_perceived_time,2022.2.4,120.28483444436092,
-300,0.5,none,red,green,1500.7233529740745,,,,,0,12,12,152,trial,,,,,,red,1.5007233529740744,1.5083333333333333,-0.3,-0.3,1.1673933529740745,1.1666666666666667,trial_list_0.5_green.csv,2.308124199975282,0.9970271000056528,3e-05,3e-05,,1.1666153999976814,1.1997859999537468,1.508257399953436,1.54155639995588,1.9995730999507941,,2.308124199975282,2.308124199975282,0.0,2.308124199975282,2.507955899985973,3.391461499966681,1.083337299991399,1.083337299991399,1.33637,-0.1287178481824567,-0.07268772603244615,None,p12_base_02_cont,001,2023-05-10_11h09.03.874,expectation_shapes_perceived_time,2022.2.4,120.28483444436092,
167,0.5,none,red,green,1496.3000855789176,,,,,0,13,13,428,trial,,,,,,red,1.4963000855789175,1.5,0.167,0.16666666666666666,1.6966300855789176,1.7,trial_list_0.5_green.csv,2.3083219000254758,0.9975613999995403,3e-05,3e-05,,1.7000912000075914,1.7331076000118628,1.499779200006742,1.5332723000319675,1.9998709000064991,,2.3083219000254758,2.4664516000193544,0.1581296999938786,2.3083219000254758,2.5080196000053547,3.691626299987547,1.3833043999620713,1.2251746999681927,1.79129,-0.0901295844396289,0.11716845977151755,None,p12_base_02_cont,001,2023-05-10_11h09.03.874,expectation_shapes_perceived_time,2022.2.4,120.28483444436092,
-233,0.5,none,green,red,1338.7663604824004,,,,,0,14,14,307,trial,,,,,,green,1.3387663604824005,1.3416666666666666,-0.233,-0.23333333333333334,1.0724363604824005,1.075,trial_list_0.5_green.csv,2.3083177999942563,0.9964050999842584,4e-05,4e-05,0.03325,1.0748879999737255,1.108205700002145,1.341184799966868,1.374486499989871,2.0001208999892697,2.0331185999675654,2.3083177999942563,2.483203199983109,0.17488539998885244,2.3083177999942563,2.508450699970126,4.891687399998773,2.5833696000045165,2.408484200015664,0.70407,0.1184706554220077,-0.08841093688209531,None,p12_base_02_cont,001,2023-05-10_11h09.03.874,expectation_shapes_perceived_time,2022.2.4,120.28483444436092,
-167,0.5,none,green,red,1434.6473098489023,,,,,0,15,15,251,trial,,,,,,green,1.4346473098489023,1.4416666666666667,-0.167,-0.16666666666666666,1.2343173098489024,1.2333333333333334,trial_list_0.5_green.csv,2.308069799968507,0.9964678999967873,4e-05,4e-05,0.03327,1.2334589999518357,1.2668150999816135,1.4414722999790683,1.4749202999519184,1.9998182999552228,2.033329900004901,2.308069799968507,2.308069799968507,0.0,2.308069799968507,2.508152499969583,3.39979559998028,1.0917258000117727,1.0917258000117727,1.72032,-0.11380626728767804,0.09433940577794364,None,p12_base_02_cont,001,2023-05-10_11h09.03.874,expectation_shapes_perceived_time,2022.2.4,120.28483444436092,
-233,0.5,none,red,green,984.0166811829276,,,,,0,16,16,444,trial,,,,,,red,0.9840166811829276,0.9833333333333333,-0.233,-0.23333333333333334,0.7176866811829276,0.7166666666666667,trial_list_0.5_green.csv,2.308587300009094,0.9961258000112139,3e-05,3e-05,0.03351,0.7166116000153124,0.7503225000109524,0.9833146000164561,1.0163905000081286,2.0001934000174515,2.033346200012602,2.308587300009094,2.3167051000054926,0.00811779999639839,2.308587300009094,2.5085701000061817,4.616753900016192,2.308166600007098,2.3000488000107,0.46438,0.14689914130675968,0.016505521495141538,None,p12_base_02_cont,001,2023-05-10_11h09.03.874,expectation_shapes_perceived_time,2022.2.4,120.28483444436092,
33,0.5,none,red,green,776.7355247420822,,,,,0,17,17,486,trial,,,,,,red,0.7767355247420823,0.775,0.033,0.03333333333333333,0.8430655247420823,0.8416666666666667,trial_list_0.5_green.csv,2.30844569997862,0.996242200024426,3e-05,3e-05,,0.8418652000254951,0.8752991000073962,0.7748084000195377,0.8084888000157662,2.0002394000184722,,2.30844569997862,2.3918533999822102,0.08340770000359043,2.30844569997862,2.5083822999731638,3.6083950999891385,1.2999494000105187,1.2165417000069283,0.78459,0.09257483061060855,-0.11524621769892082,None,p12_base_02_cont,001,2023-05-10_11h09.03.874,expectation_shapes_perceived_time,2022.2.4,120.28483444436092,
167,0.5,none,red,green,1357.195851898509,,,,,0,18,18,298,trial,,,,,,red,1.357195851898509,1.3583333333333334,0.167,0.16666666666666666,1.5575258518985091,1.5583333333333333,trial_list_0.5_green.csv,2.3082381000276655,0.9972574000130408,3e-05,3e-05,,1.5587795000174083,1.592260300007183,1.358664300001692,1.3922657000366598,2.000419900054112,,2.3082381000276655,2.3082381000276655,0.0,2.3082381000276655,2.5084262000164017,3.624917800014373,1.3166796999867074,1.3166796999867074,1.72151,-0.1134516859769215,0.09476552593366384,None,p12_base_02_cont,001,2023-05-10_11h09.03.874,expectation_shapes_perceived_time,2022.2.4,120.28483444436092,
-100,0.5,none,red,green,588.1555148362081,,,,,0,19,19,120,trial,,,,,,red,0.5881555148362081,0.5916666666666667,-0.1,-0.1,0.45482551483620814,0.4583333333333333,trial_list_0.5_green.csv,2.3083922999794595,0.9976333000231534,4e-05,4e-05,0.03344,0.45832750003319234,0.49177429999690503,0.5916475999983959,0.6252231000107713,1.9997899000300094,2.033211200032383,2.3083922999794595,2.3083922999794595,0.0,2.3083922999794595,2.5082746000261977,3.391349399986211,1.0829571000067517,1.0829571000067517,0.35242,0.13221736635250278,0.06610868317625139,None,p12_base_02_cont,001,2023-05-10_11h09.03.874,expectation_shapes_perceived_time,2022.2.4,120.28483444436092,
233,0.5,none,red,green,400.8757338674368,,,,,0,20,20,388,trial,,,,,,red,0.4008757338674368,0.4,0.233,0.23333333333333334,0.6672057338674369,0.6666666666666666,trial_list_0.5_green.csv,2.30807879997883,0.9974452999886125,4e-05,4e-05,0.03329,0.6667398000136018,0.6999609000049531,0.3999360000016168,0.4336728999624029,1.9994623999809846,2.032849100010935,2.30807879997883,2.30807879997883,0.0,2.30807879997883,2.508159499964677,3.2915763999917544,0.9834976000129245,0.9834976000129245,1.14911,-0.0667435722435599,-0.13189801181465408,None,p12_base_02_cont,001,2023-05-10_11h09.03.874,expectation_shapes_perceived_time,2022.2.4,120.28483444436092,
233,0.5,none,green,red,280.5498985979556,,,,,0,21,21,213,trial,,,,,,green,0.2805498985979556,0.2833333333333333,0.233,0.23333333333333334,0.5468798985979556,0.55,trial_list_0.5_green.csv,2.307989599998109,0.9976182999671437,4e-05,4e-05,0.0332,0.5498060999670997,0.5834647999727167,0.2832446999964304,0.3163193999789655,1.9997033999534324,2.0330249999533407,2.307989599998109,2.316199399996549,0.008209799998439848,2.307989599998109,2.5076787999714725,3.541131999983918,1.2331423999858089,1.224932599987369,0.34611,0.13088262528824782,0.0687133782763301,None,p12_base_02_cont,001,2023-05-10_11h09.03.874,expectation_shapes_perceived_time,2022.2.4,120.28483444436092,
-33,0.5,none,green,red,372.74245772426207,,,,,0,22,22,387,trial,,,,,,green,0.37274245772426207,0.375,-0.033,-0.03333333333333333,0.30641245772426207,0.30833333333333335,trial_list_0.5_green.csv,2.308444000023883,0.9974617000552826,3e-05,3e-05,,0.3083547999849543,0.3416717000072822,0.37501860002521425,0.40830349997850135,2.0001364999916404,,2.308444000023883,2.366804499994032,0.05836049997014925,2.308444000023883,2.5084231999935582,3.341586800001096,1.0331427999772131,0.9747823000070639,0.3642,0.13457356761610573,0.06116980346186625,None,p12_base_02_cont,001,2023-05-10_11h09.03.874,expectation_shapes_perceived_time,2022.2.4,120.28483444436092,
33,0.5,none,green,red,150.63364328900366,,,,,0,23,23,389,trial,,,,,,green,0.15063364328900367,0.15,0.033,0.03333333333333333,0.21696364328900364,0.21666666666666667,trial_list_0.5_green.csv,2.308348399994429,0.9983513999613933,3e-05,3e-05,,0.2163873999961652,0.2496749999700114,0.14977199997520074,0.18299149995436892,2.000017999962438,,2.308348399994429,2.308348399994429,0.0,2.308348399994429,2.508033999998588,3.807692499947734,1.499344099953305,1.499344099953305,0.07143,0.03289620819009427,0.14411672159469874,None,p12_base_02_cont,001,2023-05-10_11h09.03.874,expectation_shapes_perceived_time,2022.2.4,120.28483444436092,
233,0.5,none,green,red,839.6081220303297,,,,,0,24,24,253,trial,,,,,,green,0.8396081220303298,0.8416666666666667,0.233,0.23333333333333334,1.1059381220303297,1.1083333333333334,trial_list_0.5_green.csv,2.3083341000019573,0.9985012999968603,4e-05,4e-05,,1.108543899958022,1.1419380999868736,0.841877700004261,0.8749502999708056,2.000210899976082,,2.3083341000019573,2.4919153999653645,0.18358129996340722,2.3083341000019573,2.5083914999850094,3.7163256999920122,1.407991599990055,1.2244103000266477,0.74224,0.10704461031679283,-0.10194724792075507,None,p12_base_02_cont,001,2023-05-10_11h09.03.874,expectation_shapes_perceived_time,2022.2.4,120.28483444436092,
233,0.5,none,red,green,1453.3477340006064,0,0,0,0,0,25,25,346,fam,0.556250799971167,0.556250799971167,269.99999999999955,2.5644250999903306,2.5644250999903306,,,,,,,,,,,,,,,,,,,,,,,,,,,,,,,,p12_base_02_cont,001,2023-05-10_11h09.03.874,expectation_shapes_perceived_time,2022.2.4,120.28483444436092,
233,0.5,none,red,green,1453.3477340006064,1,0,1,0,0,25,25,346,fam,0.4974293000414036,0.4974293000414036,269.99999999999955,2.505926100013312,2.505926100013312,,,,,,,,,,,,,,,,,,,,,,,,,,,,,,,,p12_base_02_cont,001,2023-05-10_11h09.03.874,expectation_shapes_perceived_time,2022.2.4,120.28483444436092,
233,0.5,none,red,green,1453.3477340006064,2,0,2,0,0,25,25,346,fam,0.49680120003176853,0.49680120003176853,269.99999999999955,2.505436900013592,2.505436900013592,,,,,,,,,,,,,,,,,,,,,,,,,,,,,,,,p12_base_02_cont,001,2023-05-10_11h09.03.874,expectation_shapes_perceived_time,2022.2.4,120.28483444436092,
233,0.5,none,red,green,1453.3477340006064,3,0,3,0,0,25,25,346,fam,0.4975400999537669,0.4975400999537669,269.99999999999955,2.505787700007204,2.505787700007204,,,,,,,,,,,,,,,,,,,,,,,,,,,,,,,,p12_base_02_cont,001,2023-05-10_11h09.03.874,expectation_shapes_perceived_time,2022.2.4,120.28483444436092,
233,0.5,none,red,green,1453.3477340006064,,,,,0,25,25,346,trial,,,,,,red,1.4533477340006065,1.4583333333333333,0.233,0.23333333333333334,1.7196777340006062,1.7249999999999999,trial_list_0.5_green.csv,2.308554399991408,0.9983448999701068,3e-05,3e-05,0.03324,1.7249894999549724,1.7582943000015803,1.4582445999840274,1.4915270999772474,2.0002192999818362,2.0335419999901205,2.308554399991408,2.3166862999787554,0.008131899987347424,2.308554399991408,2.507926199992653,3.358365899999626,1.049811500008218,1.0416796000208706,1.33344,-0.12804259319510772,-0.07387072684333137,None,p12_base_02_cont,001,2023-05-10_11h09.03.874,expectation_shapes_perceived_time,2022.2.4,120.28483444436092,
-100,0.5,none,red,green,869.9310040203023,,,,,0,26,26,100,trial,,,,,,red,0.8699310040203023,0.875,-0.1,-0.1,0.7366010040203023,0.7416666666666667,trial_list_0.5_green.csv,2.3079944000346586,0.9957400999846868,3e-05,3e-05,0.03328,0.7417995000141673,0.7751377000240609,0.8752428000443615,0.9084231000160798,1.9996737000183202,2.0330032000201754,2.3079944000346586,2.757971999992151,0.4499775999574922,2.3079944000346586,2.507997600012459,6.391323400021065,4.083328999986406,3.633351400028914,1.77252,-0.09687662730386479,0.11165441790953907,None,p12_base_02_cont,001,2023-05-10_11h09.03.874,expectation_shapes_perceived_time,2022.2.4,120.28483444436092,
-233,0.5,none,green,red,1742.158444216588,,,,,0,27,27,349,trial,,,,,,green,1.7421584442165878,1.75,-0.233,-0.23333333333333334,1.4758284442165879,1.4833333333333334,trial_list_0.5_green.csv,2.308238099969458,0.9983120000106283,3e-05,3e-05,0.03314,1.4831589999957941,1.516575700021349,1.7498820999753661,1.783217899966985,2.0000066999928094,2.0332367999944836,2.308238099969458,3.8331792000099085,1.5249411000404507,2.308238099969458,2.5081954000052065,7.399871099973097,5.09163300000364,3.566691899963189,1.35919,-0.13359369899971812,-0.06328122584197175,None,p12_base_02_cont,001,2023-05-10_11h09.03.874,expectation_shapes_perceived_time,2022.2.4,120.28483444436092,
33,0.5,none,green,red,550.6776146261677,,,,,0,28,28,225,trial,,,,,,green,0.5506776146261677,0.55,0.033,0.03333333333333333,0.6170076146261677,0.6166666666666667,trial_list_0.5_green.csv,2.3087602999876253,0.9980052000028081,2e-05,2e-05,0.03325,0.6171123000094667,0.650546699995175,0.5500948000117205,0.5837496999884024,2.0005869999877177,2.0337313000345603,2.3087602999876253,2.3087602999876253,0.0,2.3087602999876253,2.5082766000414267,5.325312200002372,3.016551900014747,3.016551900014747,0.28314,0.11482276078843952,0.09309953577441041,None,p12_base_02_cont,001,2023-05-10_11h09.03.874,expectation_shapes_perceived_time,2022.2.4,120.28483444436092,
-300,0.5,none,green,red,1462.6145059728772,,,,,0,29,29,271,trial,,,,,,green,1.4626145059728772,1.4666666666666666,-0.3,-0.3,1.1292845059728773,1.1333333333333333,trial_list_0.5_green.csv,2.3076116999727674,0.9978881999850273,3e-05,3e-05,,1.1329018999822438,1.1659788999822922,1.465941499976907,1.4992225999594666,1.9995854999870062,,2.3076116999727674,2.3076116999727674,0.0,2.3076116999727674,2.508238699985668,3.983023900014814,1.6754122000420466,1.6754122000420466,1.29589,-0.11845871820946749,-0.08842693049439124,None,p12_base_02_cont,001,2023-05-10_11h09.03.874,expectation_shapes_perceived_time,2022.2.4,120.28483444436092,
233,0.5,none,green,red,485.6472158017497,,,,,0,30,30,301,trial,,,,,,green,0.48564721580174974,0.48333333333333334,0.233,0.23333333333333334,0.7519772158017498,0.75,trial_list_0.5_green.csv,2.3078577000414953,0.9977506000432186,4e-05,4e-05,0.033,0.7497268000151962,0.7832516999915242,0.48306769999908283,0.5166792999953032,1.999532999994699,2.03303859999869,2.3078577000414953,2.3078577000414953,0.0,2.3078577000414953,2.508051600016188,3.1746407000464387,0.8667830000049435,0.8667830000049435,0.1838,0.08069396792347286,0.12385585774300485,None,p12_base_02_cont,001,2023-05-10_11h09.03.874,expectation_shapes_perceived_time,2022.2.4,120.28483444436092,
-233,0.5,none,green,red,540.2354931134145,,,,,0,31,31,53,trial,,,,,,green,0.5402354931134145,0.5416666666666666,-0.233,-0.23333333333333334,0.2739054931134145,0.275,trial_list_0.5_green.csv,2.307805999997072,0.9971727000083774,3e-05,3e-05,,0.27471650001825765,0.3081693000276573,0.5414338000118732,0.5748359000426717,1.9995155000360683,,2.307805999997072,2.374379000044428,0.06657300004735589,2.307805999997072,2.5103016000357457,3.174789500015322,0.8669835000182502,0.8004104999708943,0.2574,0.10692895514080328,0.10206854808894857,None,p12_base_02_cont,001,2023-05-10_11h09.03.874,expectation_shapes_perceived_time,2022.2.4,120.28483444436092,
-300,0.5,none,green,red,1055.8716191685576,,,,,0,32,32,193,trial,,,,,,green,1.0558716191685575,1.0583333333333333,-0.3,-0.3,0.7225416191685575,0.725,trial_list_0.5_green.csv,2.3084682999760844,0.9962428000289947,3e-05,3e-05,0.03327,0.7250459999777377,0.7584124999702908,1.0583359000156634,1.0919111000257544,2.0000100000179373,2.033573399996385,2.3084682999760844,2.3084682999760844,0.0,2.3084682999760844,2.508551199978683,3.1747610999736935,0.8662927999976091,0.8662927999976091,0.47297,0.14729105026914252,0.012535408533544045,None,p12_base_02_cont,001,2023-05-10_11h09.03.874,expectation_shapes_perceived_time,2022.2.4,120.28483444436092,
33,0.5,none,green,red,892.5158367927974,,,,,0,33,33,75,trial,,,,,,green,0.8925158367927973,0.8916666666666666,0.033,0.03333333333333333,0.9588458367927974,0.9583333333333334,trial_list_0.5_green.csv,2.307926999987103,0.9989103000261821,3e-05,3e-05,,0.9582354000303894,0.9915978999924846,0.8915642999927513,0.9248357000178657,1.9997430000221357,,2.307926999987103,2.4745938000269234,0.16666680003982037,2.307926999987103,2.507995399995707,3.3996976999915205,1.0917707000044174,0.9251038999645971,1.21042,-0.0907548561052078,-0.11668481499241001,None,p12_base_02_cont,001,2023-05-10_11h09.03.874,expectation_shapes_perceived_time,2022.2.4,120.28483444436092,
-233,0.5,none,red,green,1263.875298705471,,,,,0,34,34,492,trial,,,,,,red,1.263875298705471,1.2666666666666666,-0.233,-0.23333333333333334,0.997545298705471,1.0,trial_list_0.5_green.csv,2.3082654000027105,0.9966687000123784,3e-05,3e-05,,0.9999949000193737,1.0335006000241265,1.2666918000322767,1.3000302000436932,2.000115000002552,,2.3082654000027105,2.9998651000205427,0.6915997000178322,2.3082654000027105,2.5083266000146978,4.041757000028156,1.7334916000254452,1.041891900007613,0.81735,0.08024252417655311,-0.12414881099013879,None,p12_base_02_cont,001,2023-05-10_11h09.03.874,expectation_shapes_perceived_time,2022.2.4,120.28483444436092,
300,0.5,none,green,red,1187.7849624608675,,,,,0,35,35,195,trial,,,,,,green,1.1877849624608676,1.1916666666666667,0.3,0.3,1.5211149624608675,1.525,trial_list_0.5_green.csv,2.308450900018215,0.9962331999558955,3e-05,3e-05,,1.5250592000083998,1.5585653000161983,1.1916066000121646,1.2249646999989636,2.0000312000047415,,2.308450900018215,2.308450900018215,0.0,2.308450900018215,2.5084155999938957,3.1914971999940462,0.8830462999758311,0.8830462999758311,1.86984,-0.05877572682847827,0.13563629268110372,None,p12_base_02_cont,001,2023-05-10_11h09.03.874,expectation_shapes_perceived_time,2022.2.4,120.28483444436092,
-33,0.5,none,red,green,932.7860388342152,,,,,0,36,36,44,trial,,,,,,red,0.9327860388342152,0.9333333333333333,-0.033,-0.03333333333333333,0.8664560388342152,0.8666666666666667,trial_list_0.5_green.csv,2.309658899961505,0.9961880000191741,2e-05,2e-05,0.03356,0.8670358999515884,0.9004642000072636,0.9340370999998413,0.9673315999680199,2.000464799988549,2.033703599998262,2.309658899961505,2.3503409999539144,0.04068209999240935,2.309658899961505,2.5086680999957025,3.4419991999748163,1.1323403000133112,1.0916582000209019,1.43253,-0.14451536007769186,-0.03109824204203495,None,p12_base_02_cont,001,2023-05-10_11h09.03.874,expectation_shapes_perceived_time,2022.2.4,120.28483444436092,
233,0.5,none,green,red,627.9379733365844,,,,,0,37,37,39,trial,,,,,,green,0.6279379733365844,0.6333333333333333,0.233,0.23333333333333334,0.8942679733365844,0.9,trial_list_0.5_green.csv,2.308522500039544,0.9973663000273518,3e-05,3e-05,0.03344,0.8996972000459209,0.933110200043302,0.6331456000334583,0.6662970000179484,2.000452900014352,2.0337060000165366,2.308522500039544,2.308522500039544,0.0,2.308522500039544,2.50847410003189,3.4918260000413284,1.1833035000017844,1.1833035000017844,0.3858,0.13841146506154872,0.051904299398080764,None,p12_base_02_cont,001,2023-05-10_11h09.03.874,expectation_shapes_perceived_time,2022.2.4,120.28483444436092,
-100,0.5,none,red,green,581.3539796878179,,,,,0,38,38,42,trial,,,,,,red,0.5813539796878179,0.5833333333333334,-0.1,-0.1,0.4480239796878179,0.45,trial_list_0.5_green.csv,2.3081433000043035,0.9966238000197336,4e-05,4e-05,0.0334,0.44997120002517477,0.4834402999840677,0.5835553000215441,0.6165287999901921,1.9999308999977075,2.0333804999827407,2.3081433000043035,2.3081433000043035,0.0,2.3081433000043035,2.508117499994114,3.7249381000292487,1.4167948000249453,1.4167948000249453,0.27119,0.11124852816826347,0.09734246214723054,None,p12_base_02_cont,001,2023-05-10_11h09.03.874,expectation_shapes_perceived_time,2022.2.4,120.28483444436092,
233,0.5,none,red,green,1578.6794314231931,,,,,0,39,39,324,trial,,,,,,red,1.5786794314231931,1.5833333333333333,0.233,0.23333333333333334,1.845009431423193,1.8499999999999999,trial_list_0.5_green.csv,2.308133899990935,0.9974066999857314,3e-05,3e-05,,1.8498204000061378,1.8831241999869235,1.5826954999938607,1.6160669999662787,1.9997765999869443,,2.308133899990935,2.308133899990935,0.0,2.308133899990935,2.5080826999619603,3.3249131999909878,1.016779300000053,1.016779300000053,1.6132,-0.13857349358850315,0.05147015476144403,None,p12_base_02_cont,001,2023-05-10_11h09.03.874,expectation_shapes_perceived_time,2022.2.4,120.28483444436092,
-33,0.5,none,green,red,530.1720995776218,,,,,0,40,40,27,trial,,,,,,green,0.5301720995776218,0.5333333333333333,-0.033,-0.03333333333333333,0.4638420995776218,0.4666666666666667,trial_list_0.5_green.csv,2.3076952999690548,0.996461000002455,4e-05,4e-05,0.03324,0.4666280999663286,0.4999122999724932,0.5332058999920264,0.5666800999897532,1.9997660999651998,2.0327446999726817,2.3076952999690548,2.3076952999690548,0.0,2.3076952999690548,2.5082494000089355,3.633393900003284,1.3256986000342295,1.3256986000342295,0.22664,0.09658046392390197,0.11191069629277532,None,p12_base_02_cont,001,2023-05-10_11h09.03.874,expectation_shapes_perceived_time,2022.2.4,120.28483444436092,
300,0.5,none,green,red,569.6106063967949,,,,,0,41,41,427,trial,,,,,,green,0.5696106063967948,0.575,0.3,0.3,0.902940606396795,0.9083333333333333,trial_list_0.5_green.csv,2.308526599954348,0.9964736999827437,3e-05,3e-05,,0.9088333999970928,0.9418383999727666,0.5750081999576651,0.608502299990505,1.9999960999703035,,2.308526599954348,2.5578952999785542,0.2493687000242062,2.308526599954348,2.5081112000043504,3.424930199980736,1.1164036000263877,0.8670349000021815,0.31668,0.12397845128475751,0.08050548784724512,None,p12_base_02_cont,001,2023-05-10_11h09.03.874,expectation_shapes_perceived_time,2022.2.4,120.28483444436092,
233,0.5,none,green,red,1276.3306549441384,,,,,0,42,42,9,trial,,,,,,green,1.2763306549441384,1.2833333333333332,0.233,0.23333333333333334,1.5426606549441382,1.55,trial_list_0.5_green.csv,2.3086960000218824,0.9973556000040844,3e-05,3e-05,0.03368,1.5502812000340782,1.5836062000016682,1.2836743000079878,1.3168624000390992,2.0003016000264324,2.0337377000250854,2.3086960000218824,2.3086960000218824,0.0,2.3086960000218824,2.508798700000625,3.825235199998133,1.5165391999762505,1.5165391999762505,1.82859,-0.07581206322714139,0.1269028014889106,None,p12_base_02_cont,001,2023-05-10_11h09.03.874,expectation_shapes_perceived_time,2022.2.4,120.28483444436092,
-167,0.5,none,green,red,1227.150239319034,,,,,0,43,43,149,trial,,,,,,green,1.2271502393190339,1.2333333333333334,-0.167,-0.16666666666666666,1.026820239319034,1.0333333333333332,trial_list_0.5_green.csv,2.3088195000309497,0.9963863000157289,4e-05,4e-05,,1.033503999991808,1.0666879000491463,1.2332655999925919,1.26684060000116,2.0002079000114463,,2.3088195000309497,2.316611999995075,0.007792499964125454,2.3088195000309497,2.508381100022234,4.233187000034377,1.9243675000034273,1.9165750000393018,1.22074,-0.09448900853719663,-0.11368208839631469,None,p12_base_02_cont,001,2023-05-10_11h09.03.874,expectation_shapes_perceived_time,2022.2.4,120.28483444436092,
167,0.5,none,red,green,1138.1309364505123,,,,,0,44,44,22,trial,,,,,,red,1.1381309364505123,1.1416666666666666,0.167,0.16666666666666666,1.3384609364505122,1.3416666666666666,trial_list_0.5_green.csv,2.3085662000230514,0.9970684999716468,2e-05,2e-05,0.03328,1.341718400013633,1.3752547000185587,1.1417955000069924,1.1752250000135973,2.0000623000087216,2.0336864000419155,2.3085662000230514,2.3085662000230514,0.0,2.3085662000230514,2.5087522999965586,4.566748900047969,2.2581827000249177,2.2581827000249177,1.41763,-0.14290175942007696,-0.037826936317079195,None,p12_base_02_cont,001,2023-05-10_11h09.03.874,expectation_shapes_perceived_time,2022.2.4,120.28483444436092,
300,0.5,none,green,red,548.402062429592,,,,,0,45,45,219,trial,,,,,,green,0.548402062429592,0.55,0.3,0.3,0.881732062429592,0.8833333333333333,trial_list_0.5_green.csv,2.30838489998132,0.9949574999627657,4e-05,4e-05,,0.8834820000338368,0.9165425000246614,0.5499470999930054,0.583387800026685,1.9999151999945752,,2.30838489998132,2.4911338000092655,0.18274890002794564,2.30838489998132,2.5078116999939084,6.09975699998904,3.7913721000077203,3.6086231999797747,0.0805,0.036986479037556974,0.14312159279750308,None,p12_base_02_cont,001,2023-05-10_11h09.03.874,expectation_shapes_perceived_time,2022.2.4,120.28483444436092,
-33,0.5,none,red,green,1291.8869236311114,,,,,0,46,46,94,trial,,,,,,red,1.2918869236311115,1.2916666666666667,-0.033,-0.03333333333333333,1.2255569236311115,1.225,trial_list_0.5_green.csv,2.3086962000234053,0.9969916000263765,3e-05,3e-05,,1.224921600020025,1.258272900013253,1.2916640000184998,1.3251849000225775,2.0000128999818116,,2.3086962000234053,2.3086962000234053,0.0,2.3086962000234053,2.5089908000081778,4.7918895999901,2.4831933999666944,2.4831933999666944,1.79439,-0.08898439927904025,0.11804052965586972,None,p12_base_02_cont,001,2023-05-10_11h09.03.874,expectation_shapes_perceived_time,2022.2.4,120.28483444436092,
100,0.5,none,red,green,221.83167006681083,,,,,0,47,47,382,trial,,,,,,red,0.22183167006681084,0.225,0.1,0.1,0.3551616700668108,0.35833333333333334,trial_list_0.5_green.csv,2.3083327999920584,0.996597399993334,3e-05,3e-05,,0.35844039998482913,0.39160309999715537,0.2248435000074096,0.2583800000138581,2.0001324000186287,,2.3083327999920584,2.3083327999920584,0.0,2.3083327999920584,2.5084458999917842,3.550318400026299,1.2419856000342406,1.2419856000342406,0.22942,0.09755479328898886,0.11106238005207962,None,p12_base_02_cont,001,2023-05-10_11h09.03.874,expectation_shapes_perceived_time,2022.2.4,120.28483444436092,
167,0.5,none,green,red,433.9478798429844,,,,,0,48,48,171,trial,,,,,,green,0.4339478798429844,0.43333333333333335,0.167,0.16666666666666666,0.6342778798429843,0.6333333333333333,trial_list_0.5_green.csv,2.3085537999868393,0.9960933999973349,2e-05,2e-05,,0.633797999995295,0.6668463000096381,0.433560999983456,0.4668124999734573,2.0004656999954022,,2.3085537999868393,3.667019699991215,1.3584659000043757,2.3085537999868393,2.5086722999694757,5.5333742999937385,3.2248205000068992,1.8663546000025235,0.74786,0.10522615968062721,-0.10382314421821885,None,p12_base_02_cont,001,2023-05-10_11h09.03.874,expectation_shapes_perceived_time,2022.2.4,120.28483444436092,
167,0.5,none,green,red,393.34261111828096,,,,,0,49,49,295,trial,,,,,,green,0.39334261111828095,0.39166666666666666,0.167,0.16666666666666666,0.593672611118281,0.5916666666666667,trial_list_0.5_green.csv,2.3084181000012904,0.9966430999920703,4e-05,4e-05,0.03373,0.5918037999654189,0.6251608000020497,0.39198259997647256,0.4253694000071846,2.000079699966591,2.033330100006424,2.3084181000012904,2.317007699981332,0.008589599980041385,2.3084181000012904,2.5085944999591447,3.2165789999999106,0.9081608999986202,0.8995713000185788,0.26468,0.1092350462017883,0.09959665977221874,None,p12_base_02_cont,001,2023-05-10_11h09.03.874,expectation_shapes_perceived_time,2022.2.4,120.28483444436092,
-167,0.5,none,green,red,1482.6068886076157,0,0,0,0,0,50,50,159,fam,0.5413003999856301,0.5413003999856301,269.99999999999955,2.5498663000180386,2.5498663000180386,,,,,,,,,,,,,,,,,,,,,,,,,,,,,,,,p12_base_02_cont,001,2023-05-10_11h09.03.874,expectation_shapes_perceived_time,2022.2.4,120.28483444436092,
-167,0.5,none,green,red,1482.6068886076157,1,0,1,0,0,50,50,159,fam,0.497434799966868,0.497434799966868,269.99999999999955,2.505706999974791,2.505706999974791,,,,,,,,,,,,,,,,,,,,,,,,,,,,,,,,p12_base_02_cont,001,2023-05-10_11h09.03.874,expectation_shapes_perceived_time,2022.2.4,120.28483444436092,
-167,0.5,none,green,red,1482.6068886076157,2,0,2,0,0,50,50,159,fam,0.4973181000095792,0.4973181000095792,269.99999999999955,2.505620200012345,2.505620200012345,,,,,,,,,,,,,,,,,,,,,,,,,,,,,,,,p12_base_02_cont,001,2023-05-10_11h09.03.874,expectation_shapes_perceived_time,2022.2.4,120.28483444436092,
-167,0.5,none,green,red,1482.6068886076157,3,0,3,0,0,50,50,159,fam,0.4977381000062451,0.4977381000062451,269.99999999999955,2.5058890999644063,2.5058890999644063,,,,,,,,,,,,,,,,,,,,,,,,,,,,,,,,p12_base_02_cont,001,2023-05-10_11h09.03.874,expectation_shapes_perceived_time,2022.2.4,120.28483444436092,
-167,0.5,none,green,red,1482.6068886076157,,,,,0,50,50,159,trial,,,,,,green,1.4826068886076158,1.4833333333333334,-0.167,-0.16666666666666666,1.2822768886076157,1.2833333333333332,trial_list_0.5_green.csv,2.3084798000054434,0.9977683000033721,3e-05,3e-05,,1.2835333000402898,1.3167184999911115,1.483522200025618,1.516681500012055,1.9995578000089154,,2.3084798000054434,2.3084798000054434,0.0,2.3084798000054434,2.508413100033067,3.5248049999936484,1.216325199988205,1.216325199988205,1.31911,-0.12458923269493223,-0.07955697991363142,None,p12_base_02_cont,001,2023-05-10_11h09.03.874,expectation_shapes_perceived_time,2022.2.4,120.28483444436092,
100,0.5,none,green,red,676.7381874194159,,,,,0,51,51,357,trial,,,,,,green,0.6767381874194159,0.675,0.1,0.1,0.810068187419416,0.8083333333333333,trial_list_0.5_green.csv,2.3078342999797314,0.997766499989666,3e-05,3e-05,0.03319,0.8083504000096582,0.841686200001277,0.6751490000169724,0.7084780000150204,2.0000400000135414,2.0332204999867827,2.3078342999797314,2.3078342999797314,0.0,2.3078342999797314,2.507871999987401,3.649948399979621,1.3421140999998897,1.3421140999998897,0.22712,0.09675060813720053,0.11176363353780064,None,p12_base_02_cont,001,2023-05-10_11h09.03.874,expectation_shapes_perceived_time,2022.2.4,120.28483444436092,
-167,0.5,none,green,red,1659.215146053672,,,,,0,52,52,373,trial,,,,,,green,1.659215146053672,1.6666666666666667,-0.167,-0.16666666666666666,1.458885146053672,1.4583333333333333,trial_list_0.5_green.csv,2.3082479999866337,0.9966335000353865,3e-05,3e-05,0.03311,1.458363300014753,1.4915365999913774,1.6664231999893673,1.7001164000248536,1.999738599988632,2.03314999997383,2.3082479999866337,2.3082479999866337,0.0,2.3082479999866337,2.507880799996201,3.4914807999739423,1.1832327999873087,1.1832327999873087,1.47146,-0.14722991287185005,-0.01323414947162697,None,p12_base_02_cont,001,2023-05-10_11h09.03.874,expectation_shapes_perceived_time,2022.2.4,120.28483444436092,
100,0.5,none,red,green,384.5801525964873,,,,,0,53,53,212,trial,,,,,,red,0.3845801525964873,0.3833333333333333,0.1,0.1,0.5179101525964873,0.5166666666666666,trial_list_0.5_green.csv,2.308414700033609,0.9970976999611594,3e-05,3e-05,0.0335,0.5168781999964267,0.550211500027217,0.383622000052128,0.4168149000033736,1.9999920999980532,2.033476200012956,2.308414700033609,2.316895399999339,0.00848069996573031,2.308414700033609,2.508616700011771,5.1751195000251755,2.8667047999915667,2.8582241000258364,0.21421,0.09214016772503393,0.1155940286004971,None,p12_base_02_cont,001,2023-05-10_11h09.03.874,expectation_shapes_perceived_time,2022.2.4,120.28483444436092,
-33,0.5,none,green,red,636.5261432080581,,,,,0,54,54,411,trial,,,,,,green,0.6365261432080581,0.6416666666666666,-0.033,-0.03333333333333333,0.5701961432080581,0.575,trial_list_0.5_green.csv,2.308455499995034,0.9964417000301182,3e-05,3e-05,0.0333,0.5750597000005655,0.6084465000312775,0.641909800004214,0.6751493000192568,1.9995305999764241,2.0328925999929197,2.308455499995034,2.3668488999828696,0.05839339998783544,2.308455499995034,2.508315399987623,8.566702699987218,6.258247199992184,6.199853800004348,0.08625,0.03956405523701119,0.14243059885324028,None,p12_base_02_cont,001,2023-05-10_11h09.03.874,expectation_shapes_perceived_time,2022.2.4,120.28483444436092,
-33,0.5,none,red,green,319.1433035638956,,,,,0,55,55,260,trial,,,,,,red,0.3191433035638956,0.31666666666666665,-0.033,-0.03333333333333333,0.2528133035638956,0.25,trial_list_0.5_green.csv,2.3083370000240393,0.9973021000041626,3e-05,3e-05,,0.250534700055141,0.28358540002955124,0.316723300027661,0.35042560001602396,2.0002247000229545,,2.3083370000240393,2.3083370000240393,0.0,2.3083370000240393,2.5081185000017285,3.774823900021147,1.4664868999971077,1.4664868999971077,0.09806,0.044820628707394214,0.14086483308038183,None,p12_base_02_cont,001,2023-05-10_11h09.03.874,expectation_shapes_perceived_time,2022.2.4,120.28483444436092,
-300,0.5,none,red,green,1535.19892588671,,,,,0,56,56,424,trial,,,,,,red,1.53519892588671,1.5416666666666667,-0.3,-0.3,1.2018689258867101,1.2083333333333333,trial_list_0.5_green.csv,2.3081810000003316,0.9974266999633983,3e-05,3e-05,0.03354,1.2084180999663658,1.2415531000006013,1.541470299998764,1.5749791999696754,2.0000225999974646,2.033114999998361,2.3081810000003316,2.649536899989471,0.3413558999891393,2.3081810000003316,2.5079094999819063,6.05854709999403,3.7503660999936983,3.409010200004559,1.59548,-0.14122350082420249,0.04367737138892861,None,p12_base_02_cont,001,2023-05-10_11h09.03.874,expectation_shapes_perceived_time,2022.2.4,120.28483444436092,
167,0.5,none,red,green,1523.325715499864,,,,,0,57,57,308,trial,,,,,,red,1.5233257154998638,1.525,0.167,0.16666666666666666,1.7236557154998637,1.7249999999999999,trial_list_0.5_green.csv,2.308208500035107,0.9969583000056446,3e-05,3e-05,0.03321,1.7248253999860026,1.75844370003324,1.5249044999945909,1.5582317000371404,1.9999344000243582,2.0334532000124454,2.308208500035107,2.391587999998592,0.0833794999634847,2.308208500035107,2.508108699985314,3.349866300006397,1.04165779997129,0.9582783000078052,1.83475,-0.07334099906011632,0.12834674835520357,None,p12_base_02_cont,001,2023-05-10_11h09.03.874,expectation_shapes_perceived_time,2022.2.4,120.28483444436092,
100,0.5,none,red,green,340.1620627989024,,,,,0,58,58,394,trial,,,,,,red,0.34016206279890243,0.3416666666666667,0.1,0.1,0.4734920627989024,0.475,trial_list_0.5_green.csv,2.308341800002381,0.997306999983266,4e-05,4e-05,0.03346,0.475057800009381,0.5082947000046261,0.34154360002139583,0.374679800006561,1.999987700022757,2.0331013000104576,2.308341800002381,2.316769600030966,0.008427800028584898,2.308341800002381,2.5082462999853306,3.816564200038556,1.5082224000361748,1.49979460000759,0.31086,0.1224849292726011,0.0827600873463521,None,p12_base_02_cont,001,2023-05-10_11h09.03.874,expectation_shapes_perceived_time,2022.2.4,120.28483444436092,
300,0.5,none,green,red,1393.1854890131387,,,,,0,59,59,123,trial,,,,,,green,1.3931854890131388,1.4,0.3,0.3,1.7265154890131387,1.7333333333333334,trial_list_0.5_green.csv,2.3083210000186227,0.9972791000036523,3e-05,3e-05,,1.7335046000080183,1.766901199996937,1.3999266999890096,1.4330032999860123,1.9999347999691963,,2.3083210000186227,2.3083210000186227,0.0,2.3083210000186227,2.5083567000110634,3.6167088999645784,1.3083878999459557,1.3083878999459557,1.72881,-0.11124852816826347,0.09734246214723055,None,p12_base_02_cont,001,2023-05-10_11h09.03.874,expectation_shapes_perceived_time,2022.2.4,120.28483444436092,
-167,0.5,none,green,red,902.7371558591312,,,,,0,60,60,19,trial,,,,,,green,0.9027371558591313,0.9083333333333333,-0.167,-0.16666666666666666,0.7024071558591312,0.7,trial_list_0.5_green.csv,2.308405200019479,0.9974981999839656,3e-05,3e-05,0.03358,0.6999108999734744,0.7333803999936208,0.9084428999922238,0.941751700011082,1.9995436000172049,2.0329590999754146,2.308405200019479,2.35835340002086,0.04994820000138134,2.308405200019479,2.5081988999736495,3.7752592000178993,1.4668539999984205,1.4169057999970391,0.6154,0.13821461570017707,-0.052426233541446474,None,p12_base_02_cont,001,2023-05-10_11h09.03.874,expectation_shapes_perceived_time,2022.2.4,120.28483444436092,
-300,0.5,none,red,green,1162.475087855698,,,,,0,61,61,136,trial,,,,,,red,1.162475087855698,1.1666666666666667,-0.3,-0.3,0.8291450878556978,0.8333333333333334,trial_list_0.5_green.csv,2.3073769999900833,0.9970927000395022,5e-05,5e-05,,0.8330654000164941,0.8663959000259638,1.1660615000291727,1.199612500029616,1.999172699986957,,2.3073769999900833,2.3073769999900833,0.0,2.3073769999900833,2.5078754000132903,4.224310100020375,1.9169331000302918,1.9169331000302918,1.29716,-0.11881197280808171,-0.08795172013065788,None,p12_base_02_cont,001,2023-05-10_11h09.03.874,expectation_shapes_perceived_time,2022.2.4,120.28483444436092,
-100,0.5,none,red,green,291.7133053344964,,,,,0,62,62,280,trial,,,,,,red,0.2917133053344964,0.2916666666666667,-0.1,-0.1,0.1583833053344964,0.15833333333333333,trial_list_0.5_green.csv,2.3078619000152685,0.9977014999603853,4e-05,4e-05,0.03351,0.15833870001370087,0.1918629999854602,0.29195959999924526,0.3249872999731451,1.9995253999950364,2.032859399972949,2.3078619000152685,2.3078619000152685,0.0,2.3078619000152685,2.508137499971781,3.424734800006263,1.1168728999909945,1.1168728999909945,0.18012,0.07925367884290824,0.12478238796542998,None,p12_base_02_cont,001,2023-05-10_11h09.03.874,expectation_shapes_perceived_time,2022.2.4,120.28483444436092,
-167,0.5,none,red,green,1527.0870666595947,,,,,0,63,63,490,trial,,,,,,red,1.5270870666595948,1.5333333333333332,-0.167,-0.16666666666666666,1.3267570666595947,1.3333333333333333,trial_list_0.5_green.csv,2.3081112999934703,0.996385200007353,3e-05,3e-05,,1.3332837999914773,1.3665433999849483,1.5332970999879763,1.566654899972491,1.9998866999521852,,2.3081112999934703,2.316436799999792,0.008325500006321818,2.3081112999934703,2.5080326999886893,3.7166723999544047,1.4085610999609344,1.4002355999546126,1.6325,-0.13519994577169392,0.05977260760432784,None,p12_base_02_cont,001,2023-05-10_11h09.03.874,expectation_shapes_perceived_time,2022.2.4,120.28483444436092,
-233,0.5,none,green,red,476.4816862326503,,,,,0,64,64,153,trial,,,,,,green,0.4764816862326503,0.475,-0.233,-0.23333333333333334,0.21015168623265032,0.20833333333333334,trial_list_0.5_green.csv,2.308624299999792,0.9963923000032082,1e-05,1e-05,0.03329,0.2083124000346288,0.2416734000435099,0.4749458000296727,0.5084068000433035,2.0002317000180483,2.0335469000274315,2.308624299999792,2.308624299999792,0.0,2.308624299999792,2.5084676000406034,4.816793800040614,2.5081695000408217,2.5081695000408217,1.72266,-0.11310761926839438,0.0951759235307221,None,p12_base_02_cont,001,2023-05-10_11h09.03.874,expectation_shapes_perceived_time,2022.2.4,120.28483444436092,
-300,0.5,none,green,red,1745.8190932621103,,,,,0,65,65,395,trial,,,,,,green,1.7458190932621103,1.75,-0.3,-0.3,1.4124890932621104,1.4166666666666667,trial_list_0.5_green.csv,2.3084145999746397,0.9963398999534547,3e-05,3e-05,0.03337,1.4167878000298515,1.4501094000297599,1.7498522999812849,1.7831435999833047,1.9998131000320427,2.03310749999946,2.3084145999746397,2.3084145999746397,0.0,2.3084145999746397,2.5083977000322193,7.233384600025602,4.924970000050962,4.924970000050962,0.67877,0.12511657880940025,-0.07872503835198218,None,p12_base_02_cont,001,2023-05-10_11h09.03.874,expectation_shapes_perceived_time,2022.2.4,120.28483444436092,
300,0.5,none,green,red,1097.4259121838272,,,,,0,66,66,185,trial,,,,,,green,1.0974259121838272,1.1,0.3,0.3,1.4307559121838271,1.4333333333333333,trial_list_0.5_green.csv,2.3087169000064023,0.9971476000500843,3e-05,3e-05,0.03333,1.4333657000097446,1.466793500003405,1.0998881999985315,1.133279500005301,2.0002465000143275,2.0336200000019744,2.3087169000064023,2.650192099972628,0.3414751999662258,2.3087169000064023,2.508479100011755,8.76628989999881,6.457572999992408,6.116097800026182,1.19582,-0.08531051818861039,-0.12072243139897698,None,p12_base_02_cont,001,2023-05-10_11h09.03.874,expectation_shapes_perceived_time,2022.2.4,120.28483444436092,
33,0.5,none,green,red,1298.832004691251,,,,,0,67,67,91,trial,,,,,,green,1.2988320046912512,1.3,0.033,0.03333333333333333,1.365162004691251,1.3666666666666667,trial_list_0.5_green.csv,2.3082994999713264,0.999145999958273,3e-05,3e-05,0.03346,1.3667131999973208,1.4001729000010528,1.3000107999541797,1.3334389999508858,2.0001265999744646,2.0334392999648117,2.3082994999713264,2.3082994999713264,0.0,2.3082994999713264,2.5083797999541275,8.099921499961056,5.791621999989729,5.791621999989729,0.57426,0.14381889281396945,-0.03417478641124026,None,p12_base_02_cont,001,2023-05-10_11h09.03.874,expectation_shapes_perceived_time,2022.2.4,120.28483444436092,
-300,0.5,none,red,green,1133.2358656525764,,,,,0,68,68,126,trial,,,,,,red,1.1332358656525765,1.1333333333333333,-0.3,-0.3,0.7999058656525764,0.8,trial_list_0.5_green.csv,2.3088858000119217,0.9970744000165723,2e-05,2e-05,0.03335,0.8011185000068508,0.8344637000118382,1.1341573999961838,1.1675099999993108,2.0007503000088036,2.033944299968425,2.3088858000119217,2.3088858000119217,0.0,2.3088858000119217,2.5089417999843135,4.458811899996363,2.149926099984441,2.149926099984441,0.71181,0.11628739683735331,-0.0912635266318469,None,p12_base_02_cont,001,2023-05-10_11h09.03.874,expectation_shapes_perceived_time,2022.2.4,120.28483444436092,
100,0.5,none,red,green,936.895848692822,,,,,0,69,69,208,trial,,,,,,red,0.936895848692822,0.9416666666666667,0.1,0.1,1.070225848692822,1.075,trial_list_0.5_green.csv,2.3085145000368357,0.9965171000221744,3e-05,3e-05,0.03332,1.0752466000267304,1.1083242000313476,0.9418015999835916,0.9750880000065081,2.0000681999954395,2.0334638000349514,2.3085145000368357,2.3085145000368357,0.0,2.3085145000368357,2.5085189000237733,4.474608100019395,2.1660935999825597,2.1660935999825597,1.13794,-0.06207360258017884,-0.1341590765442575,None,p12_base_02_cont,001,2023-05-10_11h09.03.874,expectation_shapes_perceived_time,2022.2.4,120.28483444436092,
100,0.5,none,red,green,308.56691818229933,,,,,0,70,70,296,trial,,,,,,red,0.3085669181822993,0.30833333333333335,0.1,0.1,0.4418969181822993,0.44166666666666665,trial_list_0.5_green.csv,2.308191199961584,0.9992213000077754,5e-05,5e-05,,0.4416029999847524,0.4750892000156455,0.3079229000140913,0.34170170000288635,1.9996537999832071,2.032976799993776,2.308191199961584,2.3161219999892637,0.007930800027679652,2.308191199961584,2.5081093999906443,4.332725499989465,2.024534300027881,2.016603500000201,0.55319,0.14576446861963027,-0.02458677783945571,None,p12_base_02_cont,001,2023-05-10_11h09.03.874,expectation_shapes_perceived_time,2022.2.4,120.28483444436092,
33,0.5,none,red,green,269.9137079487409,,,,,0,71,71,430,trial,,,,,,red,0.2699137079487409,0.26666666666666666,0.033,0.03333333333333333,0.3362437079487409,0.3333333333333333,trial_list_0.5_green.csv,2.308572300011292,0.9965626000193879,3e-05,3e-05,,0.33327110001118854,0.3668393000261858,0.2669446000363678,0.30008060002001,2.000071900023613,,2.308572300011292,2.308572300011292,0.0,2.308572300011292,2.5085031000198796,3.7246054999995977,1.4160331999883056,1.4160331999883056,0.18907,0.08273056338896173,0.12250487271057794,None,p12_base_02_cont,001,2023-05-10_11h09.03.874,expectation_shapes_perceived_time,2022.2.4,120.28483444436092,
300,0.5,none,red,green,953.4543007028212,,,,,0,72,72,104,trial,,,,,,red,0.9534543007028212,0.9583333333333334,0.3,0.3,1.2867843007028212,1.2916666666666667,trial_list_0.5_green.csv,2.308577999996487,0.9986728999647312,4e-05,4e-05,0.03338,1.2917122000362724,1.3249911000020802,0.9584934000158682,0.9920647999970242,2.0002705000224523,2.0337172000436112,2.308577999996487,2.60015240003122,0.2915744000347331,2.308577999996487,2.508561599999666,4.049583400017582,1.7410054000210948,1.4494309999863617,0.69037,0.12216422025997327,-0.0832327654518499,None,p12_base_02_cont,001,2023-05-10_11h09.03.874,expectation_shapes_perceived_time,2022.2.4,120.28483444436092,
167,0.5,none,green,red,962.0546471517983,,,,,0,73,73,199,trial,,,,,,green,0.9620546471517983,0.9666666666666667,0.167,0.16666666666666666,1.1623846471517982,1.1666666666666667,trial_list_0.5_green.csv,2.308301199984271,0.9986350999679416,5e-05,5e-05,0.0334,1.1668486999697052,1.2000926000182517,0.9665153999812901,1.0001485999673605,1.999907199991867,2.033299300004728,2.308301199984271,2.7167285999748856,0.4084273999906145,2.308301199984271,2.5082736000185832,7.008304899965879,4.7000036999816075,4.291576299990993,1.10492,-0.04784864869617627,-0.13986528080420757,None,p12_base_02_cont,001,2023-05-10_11h09.03.874,expectation_shapes_perceived_time,2022.2.4,120.28483444436092,
33,0.5,none,red,green,1069.4665916551064,,,,,0,74,74,18,trial,,,,,,red,1.0694665916551065,1.075,0.033,0.03333333333333333,1.1357965916551063,1.1416666666666666,trial_list_0.5_green.csv,2.308596699964255,0.9971908999723382,3e-05,3e-05,0.03366,1.1419224999845028,1.175109599949792,1.074752799991984,1.1081189999822527,2.0002444999990985,2.0335513000027277,2.308596699964255,2.4586006999597885,0.15000399999553338,2.308596699964255,2.508449799963273,3.4417135999538004,1.1331168999895453,0.983112899994012,0.87639,0.05597083606073339,-0.13681759925957052,None,p12_base_02_cont,001,2023-05-10_11h09.03.874,expectation_shapes_perceived_time,2022.2.4,120.28483444436092,
-100,0.5,none,green,red,1123.0204807665268,0,0,0,0,0,75,75,143,fam,0.5562068999861367,0.5562068999861367,269.99999999999955,2.5645803999505006,2.5645803999505006,,,,,,,,,,,,,,,,,,,,,,,,,,,,,,,,p12_base_02_cont,001,2023-05-10_11h09.03.874,expectation_shapes_perceived_time,2022.2.4,120.28483444436092,
-100,0.5,none,green,red,1123.0204807665268,1,0,1,0,0,75,75,143,fam,0.49760060000699013,0.49760060000699013,269.99999999999955,2.5057980999699794,2.5057980999699794,,,,,,,,,,,,,,,,,,,,,,,,,,,,,,,,p12_base_02_cont,001,2023-05-10_11h09.03.874,expectation_shapes_perceived_time,2022.2.4,120.28483444436092,
-100,0.5,none,green,red,1123.0204807665268,2,0,2,0,0,75,75,143,fam,0.4980663000023924,0.4980663000023924,269.99999999999955,2.506289499986451,2.506289499986451,,,,,,,,,,,,,,,,,,,,,,,,,,,,,,,,p12_base_02_cont,001,2023-05-10_11h09.03.874,expectation_shapes_perceived_time,2022.2.4,120.28483444436092,
-100,0.5,none,green,red,1123.0204807665268,3,0,3,0,0,75,75,143,fam,0.49703209998551756,0.49703209998551756,269.99999999999955,2.505662099982146,2.505662099982146,,,,,,,,,,,,,,,,,,,,,,,,,,,,,,,,p12_base_02_cont,001,2023-05-10_11h09.03.874,expectation_shapes_perceived_time,2022.2.4,120.28483444436092,
-100,0.5,none,green,red,1123.0204807665268,,,,,0,75,75,143,trial,,,,,,green,1.1230204807665267,1.125,-0.1,-0.1,0.9896904807665268,0.9916666666666667,trial_list_0.5_green.csv,2.308594300004188,0.9982815999537706,3e-05,3e-05,0.03345,0.9919519000104629,1.0253454999765381,1.1251764000044204,1.1583619000157341,2.0003035999834538,2.033638599968981,2.308594300004188,2.308594300004188,0.0,2.308594300004188,2.5086814999813214,3.4747987000155263,1.1662044000113383,1.1662044000113383,1.09555,-0.04370900638111101,-0.14121371292358942,None,p12_base_02_cont,001,2023-05-10_11h09.03.874,expectation_shapes_perceived_time,2022.2.4,120.28483444436092,
-233,0.5,none,red,green,1248.662562483811,,,,,0,76,76,342,trial,,,,,,red,1.248662562483811,1.25,-0.233,-0.23333333333333334,0.9823325624838108,0.9833333333333333,trial_list_0.5_green.csv,2.3084709999966435,0.9976266999728978,3e-05,3e-05,,0.9833306000218727,1.0165664000087418,1.2503053999971598,1.2832308000070043,2.000196999986656,,2.3084709999966435,2.5085225999937393,0.20005159999709576,2.3084709999966435,2.5085225999937393,3.766359300003387,1.4578883000067435,1.2578367000096478,1.29147,-0.1172215818388485,-0.09006048360789579,None,p12_base_02_cont,001,2023-05-10_11h09.03.874,expectation_shapes_perceived_time,2022.2.4,120.28483444436092,
-100,0.5,none,green,red,1659.382164128408,,,,,0,77,77,283,trial,,,,,,green,1.659382164128408,1.6666666666666667,-0.1,-0.1,1.5260521641284082,1.5333333333333332,trial_list_0.5_green.csv,2.3085236999904737,0.9986973999766633,3e-05,3e-05,0.03311,1.533341099973768,1.5664808999863453,1.6667099999613129,1.699994099966716,1.999938299995847,2.033404399990104,2.3085236999904737,2.3085236999904737,0.0,2.3085236999904737,2.5080654000048526,3.8832290999707766,1.574705399980303,1.574705399980303,1.76116,-0.10079736257886977,0.10812807985733304,None,p12_base_02_cont,001,2023-05-10_11h09.03.874,expectation_shapes_perceived_time,2022.2.4,120.28483444436092,
-233,0.5,none,red,green,822.2545046405539,,,,,0,78,78,140,trial,,,,,,red,0.8222545046405539,0.825,-0.233,-0.23333333333333334,0.5559245046405539,0.5583333333333333,trial_list_0.5_green.csv,2.308365800010506,0.996881700004451,3e-05,3e-05,,0.5583421000046656,0.5917960000224411,0.8248225999996066,0.858358199999202,2.0001619000104256,,2.308365800010506,2.3165789999766275,0.008213199966121465,2.308365800010506,2.508658699982334,3.3582504999940284,1.0498846999835223,1.0416715000174008,0.29517,0.11825880758807587,0.0886941056910569,None,p12_base_02_cont,001,2023-05-10_11h09.03.874,expectation_shapes_perceived_time,2022.2.4,120.28483444436092,
-100,0.5,none,green,red,1550.65425214004,,,,,0,79,79,313,trial,,,,,,green,1.55065425214004,1.5583333333333333,-0.1,-0.1,1.41732425214004,1.4166666666666667,trial_list_0.5_green.csv,2.3085583000211045,0.9960567000089213,2e-05,2e-05,0.03357,1.417108699970413,1.4502204000018537,1.558830299996771,1.5919111000257544,2.0004475999739952,2.033589700004086,2.3085583000211045,2.3085583000211045,0.0,2.3085583000211045,2.5084953000186943,3.4169985000044107,1.1084401999833062,1.1084401999833062,1.19359,-0.08446174508201298,-0.12131777929961866,None,p12_base_02_cont,001,2023-05-10_11h09.03.874,expectation_shapes_perceived_time,2022.2.4,120.28483444436092,
33,0.5,none,red,green,1816.6014213071287,,,,,0,80,80,376,trial,,,,,,red,1.8166014213071286,1.825,0.033,0.03333333333333333,1.8829314213071286,1.8833333333333333,trial_list_0.5_green.csv,2.308329200022854,0.9970257999957539,4e-05,4e-05,0.03324,1.8834553000051528,1.9169423999846913,1.824988399981521,1.8583814000012353,2.0000068999943323,2.03329270001268,2.308329200022854,2.308329200022854,0.0,2.308329200022854,2.508389500027988,3.7667170999920927,1.4583878999692388,1.4583878999692388,1.96212,-0.01754955239133799,0.1467780745457359,None,p12_base_02_cont,001,2023-05-10_11h09.03.874,expectation_shapes_perceived_time,2022.2.4,120.28483444436092,
233,0.5,none,green,red,1445.092356811824,,,,,0,81,81,275,trial,,,,,,green,1.445092356811824,1.45,0.233,0.23333333333333334,1.7114223568118239,1.7166666666666666,trial_list_0.5_green.csv,2.3080452000140212,0.996454099949915,4e-05,4e-05,0.03326,1.7167393999989145,1.7502091000205837,1.44984650000697,1.4834776000352576,1.9997941000037827,,2.3080452000140212,2.3165085000218824,0.008463300007861108,2.3080452000140212,2.5079147000215016,3.908236399991438,1.6001911999774165,1.5917278999695554,1.90248,-0.04458311938017038,0.1409401838469902,None,p12_base_02_cont,001,2023-05-10_11h09.03.874,expectation_shapes_perceived_time,2022.2.4,120.28483444436092,
167,0.5,none,green,red,476.6627961712047,,,,,0,82,82,233,trial,,,,,,green,0.4766627961712047,0.475,0.167,0.16666666666666666,0.6769927961712048,0.675,trial_list_0.5_green.csv,2.3076768000028096,0.9969484999892302,4e-05,4e-05,,0.6738313999958336,0.7071956999716349,0.4742936999537051,0.5073458999977447,1.999432499986142,,2.3076768000028096,2.3827404999756254,0.07506369997281581,2.3076768000028096,2.5075522999977693,3.8412302999640815,1.5335534999612719,1.458489799988456,0.61461,0.13834446320738017,-0.05208262144277841,None,p12_base_02_cont,001,2023-05-10_11h09.03.874,expectation_shapes_perceived_time,2022.2.4,120.28483444436092,
-167,0.5,none,green,red,1073.5486938120348,,,,,0,83,83,115,trial,,,,,,green,1.0735486938120349,1.075,-0.167,-0.16666666666666666,0.8732186938120348,0.875,trial_list_0.5_green.csv,2.3080781000317074,0.9972514000255615,4e-05,4e-05,,0.8743013000348583,0.9076734000118449,1.0743148000328802,1.108108300017193,1.9996592000243254,,2.3080781000317074,2.3163316000136547,0.008253499981947243,2.3080781000317074,2.508055099984631,3.541291400033515,1.2332133000018075,1.2249598000198603,1.33059,-0.12737774237193428,-0.07501133717458353,None,p12_base_02_cont,001,2023-05-10_11h09.03.874,expectation_shapes_perceived_time,2022.2.4,120.28483444436092,
100,0.5,none,green,red,534.6447796355338,,,,,0,84,84,403,trial,,,,,,green,0.5346447796355338,0.5333333333333333,0.1,0.1,0.6679747796355339,0.6666666666666666,trial_list_0.5_green.csv,2.308147099975031,0.9974718999583274,4e-05,4e-05,0.03305,0.6664183000102639,0.6997382999979891,0.5332877999753691,0.5664545000181533,1.9995651000062935,2.033083999995142,2.308147099975031,2.308147099975031,0.0,2.308147099975031,2.5079052000073716,4.399747499963269,2.0916003999882378,2.0916003999882378,0.41915,0.1430803122786264,0.037145850303104924,None,p12_base_02_cont,001,2023-05-10_11h09.03.874,expectation_shapes_perceived_time,2022.2.4,120.28483444436092,
33,0.5,none,green,red,1171.5375932426257,,,,,0,85,85,11,trial,,,,,,green,1.1715375932426257,1.175,0.033,0.03333333333333333,1.2378675932426255,1.2416666666666667,trial_list_0.5_green.csv,2.308279999997467,0.9962857999489643,3e-05,3e-05,0.03335,1.2416755000012927,1.2749046999961138,1.1749221999780275,1.2084549000137486,2.0004076000186615,2.033244799997192,2.308279999997467,2.316648499981966,0.008368499984499067,2.308279999997467,2.508224999997765,5.283380999986548,2.975100999989081,2.966732500004582,1.01446,-0.006712319794504026,-0.14767103547908858,None,p12_base_02_cont,001,2023-05-10_11h09.03.874,expectation_shapes_perceived_time,2022.2.4,120.28483444436092,
33,0.5,none,red,green,1467.739003541505,,,,,0,86,86,410,trial,,,,,,red,1.467739003541505,1.475,0.033,0.03333333333333333,1.534069003541505,1.5416666666666667,trial_list_0.5_green.csv,2.3086569999577478,0.996156599954702,3e-05,3e-05,0.03335,1.5417047999799252,1.5750466999597847,1.4750039999489672,1.5086287999874912,2.0001567999715917,2.033292599953711,2.3086569999577478,2.3586528999730945,0.049995900015346706,2.3086569999577478,2.5084304999909364,3.391613999963738,1.0829570000059903,1.0329610999906436,1.82488,-0.07728635164682184,0.12601035594590518,None,p12_base_02_cont,001,2023-05-10_11h09.03.874,expectation_shapes_perceived_time,2022.2.4,120.28483444436092,
-100,0.5,none,red,green,277.7798776826188,,,,,0,87,87,250,trial,,,,,,red,0.2777798776826188,0.275,-0.1,-0.1,0.14444987768261883,0.14166666666666666,trial_list_0.5_green.csv,2.3080429999972694,0.9967476000310853,6e-05,6e-05,0.03281,0.1410419000312686,0.17443970002932474,0.27415660000406206,0.30748890002723783,1.9997655000188388,,2.3080429999972694,2.3080429999972694,0.0,2.3080429999972694,2.507970300037414,3.366278900008183,1.0582359000109136,1.0582359000109136,0.10919,0.04971842657183957,0.1392115944011508,None,p12_base_02_cont,001,2023-05-10_11h09.03.874,expectation_shapes_perceived_time,2022.2.4,120.28483444436092,
-233,0.5,none,green,red,876.9912217733349,,,,,0,88,88,95,trial,,,,,,green,0.8769912217733349,0.875,-0.233,-0.23333333333333334,0.6106612217733349,0.6083333333333333,trial_list_0.5_green.csv,2.308123200025875,0.996573599986732,4e-05,4e-05,0.03345,0.6085922000347637,0.6415519000147469,0.8743822000105865,0.9077704000519589,1.9997692000470124,2.0331881000311114,2.308123200025875,2.308123200025875,0.0,2.308123200025875,2.508147300046403,9.97503339999821,7.666910199972335,7.666910199972335,1.34154,-0.12988135852463414,-0.07058769485034463,None,p12_base_02_cont,001,2023-05-10_11h09.03.874,expectation_shapes_perceived_time,2022.2.4,120.28483444436092,
300,0.5,none,green,red,224.099079001653,,,,,0,89,89,355,trial,,,,,,green,0.224099079001653,0.225,0.3,0.3,0.5574290790016531,0.5583333333333333,trial_list_0.5_green.csv,2.3087128000333905,0.9969172999844886,3e-05,3e-05,,0.558805700042285,0.5921343000372872,0.2253838999895379,0.25899719999870285,2.000365399988368,,2.3087128000333905,2.7923669000156224,0.48365409998223186,2.3087128000333905,2.508907600014936,7.683712700032629,5.3749998999992386,4.891345800017007,0.90317,0.04427877404776543,-0.14103609511510468,None,p12_base_02_cont,001,2023-05-10_11h09.03.874,expectation_shapes_perceived_time,2022.2.4,120.28483444436092,
-33,0.5,none,green,red,930.565380960434,,,,,0,90,90,435,trial,,,,,,green,0.9305653809604341,0.9333333333333333,-0.033,-0.03333333333333333,0.864235380960434,0.8666666666666667,trial_list_0.5_green.csv,2.3083872999995947,0.9963201999780722,3e-05,3e-05,0.03352,0.8666480999672785,0.9002068999689072,0.9332684999681078,0.9667967999703251,2.0000534999999218,2.033405900001526,2.3083872999995947,2.3083872999995947,0.0,2.3083872999995947,2.5084350999677554,4.05833359999815,1.7499462999985553,1.7499462999985553,1.36368,-0.13447327326752417,-0.06138997257865235,None,p12_base_02_cont,001,2023-05-10_11h09.03.874,expectation_shapes_perceived_time,2022.2.4,120.28483444436092,
233,0.5,none,red,green,1309.689271290259,,,,,0,91,91,2,trial,,,,,,red,1.309689271290259,1.3166666666666667,0.233,0.23333333333333334,1.576019271290259,1.5833333333333333,trial_list_0.5_green.csv,2.308331799984444,0.9976722999708727,4e-05,4e-05,,1.583167799981311,1.6167141000041738,1.3163437999901362,1.3495017000241205,1.9998823999776505,,2.308331799984444,2.3166106999851763,0.008278900000732392,2.308331799984444,2.5082490000058897,4.166624500008766,1.8582927000243217,1.8500138000235893,1.77183,-0.09711683514814203,0.1114455485306548,None,p12_base_02_cont,001,2023-05-10_11h09.03.874,expectation_shapes_perceived_time,2022.2.4,120.28483444436092,
-33,0.5,none,red,green,1169.8151742347,,,,,0,92,92,256,trial,,,,,,red,1.1698151742347,1.175,-0.033,-0.03333333333333333,1.1034851742347,1.1083333333333334,trial_list_0.5_green.csv,2.308635500026867,0.9970551999867894,3e-05,3e-05,,1.108085600018967,1.141388200048823,1.1746991000254638,1.2080927000497468,2.000329000002239,,2.308635500026867,2.308635500026867,0.0,2.308635500026867,2.5083717000088654,4.6835698000504635,2.3749343000235967,2.3749343000235967,1.76535,-0.09936515386724112,0.10944567672333805,None,p12_base_02_cont,001,2023-05-10_11h09.03.874,expectation_shapes_perceived_time,2022.2.4,120.28483444436092,
-167,0.5,none,green,red,896.5398744401234,,,,,0,93,93,13,trial,,,,,,green,0.8965398744401234,0.9,-0.167,-0.16666666666666666,0.6962098744401234,0.7,trial_list_0.5_green.csv,2.308773300028406,0.996991700027138,3e-05,3e-05,,0.700471899996046,0.7337443000287749,0.9000157000264153,0.9336259000119753,2.0003609000123106,,2.308773300028406,2.308773300028406,0.0,2.308773300028406,2.508381100022234,4.791954200016335,2.4831808999879286,2.4831808999879286,1.34977,-0.13166421283959884,-0.06720360863687858,None,p12_base_02_cont,001,2023-05-10_11h09.03.874,expectation_shapes_perceived_time,2022.2.4,120.28483444436092,
-300,0.5,none,red,green,912.3834643690296,,,,,0,94,94,294,trial,,,,,,red,0.9123834643690296,0.9166666666666666,-0.3,-0.3,0.5790534643690296,0.5833333333333334,trial_list_0.5_green.csv,2.307930499955546,0.9965251000248827,0.00016,0.00016,0.03354,0.5833054999820888,0.6166513999924064,0.9167092999559827,0.9503357000066899,1.9995910999714397,2.0332283999887295,2.307930499955546,2.307930499955546,0.0,2.307930499955546,2.5080450999666937,3.3499059999594465,1.0419755000039004,1.0419755000039004,0.36307,0.13435619557612985,0.06164578385257723,None,p12_base_02_cont,001,2023-05-10_11h09.03.874,expectation_shapes_perceived_time,2022.2.4,120.28483444436092,
100,0.5,none,red,green,793.9821711528642,,,,,0,95,95,200,trial,,,,,,red,0.7939821711528642,0.8,0.1,0.1,0.9273121711528642,0.9333333333333333,trial_list_0.5_green.csv,2.3084251999971457,0.9969776999787427,3e-05,3e-05,0.03308,0.9331062999553978,0.9664446999668144,0.8001265999628231,0.8332560999551788,1.9997629999998026,2.0331058999872766,2.3084251999971457,2.3084251999971457,0.0,2.3084251999971457,2.5083491999539547,3.3164836999494582,1.0080584999523126,1.0080584999523126,0.76408,0.09980426326849118,-0.10904539875631444,None,p12_base_02_cont,001,2023-05-10_11h09.03.874,expectation_shapes_perceived_time,2022.2.4,120.28483444436092,
33,0.5,none,red,green,413.2964490247975,,,,,0,96,96,68,trial,,,,,,red,0.4132964490247975,0.4166666666666667,0.033,0.03333333333333333,0.47962644902479745,0.48333333333333334,trial_list_0.5_green.csv,2.3084133999655023,0.9973454999853857,4e-05,4e-05,,0.4830917000072077,0.5164751999545842,0.4162410999997519,0.44971829996211454,1.9999985999893397,,2.3084133999655023,2.3084133999655023,0.0,2.3084133999655023,2.50820099998964,3.791732499958016,1.4833190999925137,1.4833190999925137,0.2723,0.11158780968024307,0.09695334283693251,None,p12_base_02_cont,001,2023-05-10_11h09.03.874,expectation_shapes_perceived_time,2022.2.4,120.28483444436092,
100,0.5,none,green,red,277.5019581236835,,,,,0,97,97,175,trial,,,,,,green,0.2775019581236835,0.275,0.1,0.1,0.4108319581236835,0.4083333333333333,trial_list_0.5_green.csv,2.3083203000132926,0.9965087999589741,3e-05,3e-05,,0.40817840001545846,0.44160849996842444,0.2749724999885075,0.30836089997319505,1.9999249000102282,,2.3083203000132926,2.3083203000132926,0.0,2.3083203000132926,2.5082494000089355,3.7747303000069223,1.4664099999936298,1.4664099999936298,0.10581,0.0482403486078959,0.1397306649332157,None,p12_base_02_cont,001,2023-05-10_11h09.03.874,expectation_shapes_perceived_time,2022.2.4,120.28483444436092,
-33,0.5,none,green,red,1581.4037325777458,,,,,0,98,98,407,trial,,,,,,green,1.581403732577746,1.5833333333333333,-0.033,-0.03333333333333333,1.515073732577746,1.5166666666666666,trial_list_0.5_green.csv,2.308297399955336,0.9972821999690495,3e-05,3e-05,0.0335,1.51623099995777,1.5494886999949813,1.5828059999621473,1.6161953999544494,2.000369099958334,2.033521999954246,2.308297399955336,2.4415218999492936,0.13322449999395758,2.308297399955336,2.5085342999664135,3.458258799975738,1.149961400020402,1.0167369000264443,1.82742,-0.0762787984662499,0.1266228054539748,None,p12_base_02_cont,001,2023-05-10_11h09.03.874,expectation_shapes_perceived_time,2022.2.4,120.28483444436092,
300,0.5,none,red,green,254.4726689360832,,,,,0,99,99,218,trial,,,,,,red,0.2544726689360832,0.2583333333333333,0.3,0.3,0.5878026689360832,0.5916666666666667,trial_list_0.5_green.csv,2.3089277999824844,0.9961649000179023,4e-05,4e-05,0.03326,0.5917647999594919,0.6248488999553956,0.2586401999578811,0.29193969996413216,1.9993787999846973,2.0327781999949366,2.3089277999824844,2.3666996999527328,0.05777189997024834,2.3089277999824844,2.516561099968385,3.408388899988495,1.0994611000060104,1.041689200035762,0.25692,0.10677410499670545,0.10223052606067544,None,p12_base_02_cont,001,2023-05-10_11h09.03.874,expectation_shapes_perceived_time,2022.2.4,120.28483444436092,
-300,0.5,none,red,green,1333.78159252332,0,0,0,0,0,100,100,166,fam,0.5565602999995463,0.5565602999995463,269.99999999999955,2.564538899983745,2.564538899983745,,,,,,,,,,,,,,,,,,,,,,,,,,,,,,,,p12_base_02_cont,001,2023-05-10_11h09.03.874,expectation_shapes_perceived_time,2022.2.4,120.28483444436092,
-300,0.5,none,red,green,1333.78159252332,1,0,1,0,0,100,100,166,fam,0.4972732000169344,0.4972732000169344,269.99999999999955,2.5055559999891557,2.5055559999891557,,,,,,,,,,,,,,,,,,,,,,,,,,,,,,,,p12_base_02_cont,001,2023-05-10_11h09.03.874,expectation_shapes_perceived_time,2022.2.4,120.28483444436092,
-300,0.5,none,red,green,1333.78159252332,2,0,2,0,0,100,100,166,fam,0.49750729999504983,0.49750729999504983,269.99999999999955,2.5053522000089288,2.5053522000089288,,,,,,,,,,,,,,,,,,,,,,,,,,,,,,,,p12_base_02_cont,001,2023-05-10_11h09.03.874,expectation_shapes_perceived_time,2022.2.4,120.28483444436092,
-300,0.5,none,red,green,1333.78159252332,3,0,3,0,0,100,100,166,fam,0.4976804999751039,0.4976804999751039,269.99999999999955,2.5058053999673575,2.5058053999673575,,,,,,,,,,,,,,,,,,,,,,,,,,,,,,,,p12_base_02_cont,001,2023-05-10_11h09.03.874,expectation_shapes_perceived_time,2022.2.4,120.28483444436092,
-300,0.5,none,red,green,1333.78159252332,,,,,0,100,100,166,trial,,,,,,red,1.3337815925233198,1.3333333333333333,-0.3,-0.3,1.00045159252332,1.0,trial_list_0.5_green.csv,2.3086493000155315,0.9978963999892585,3e-05,3e-05,,1.0000325000146404,1.0334888000506908,1.3334089000127278,1.3667853000224568,2.0000879000290297,,2.3086493000155315,2.3086493000155315,0.0,2.3086493000155315,2.5085599000449292,4.150115900032688,1.8414666000171565,1.8414666000171565,1.13236,-0.05971074618153529,-0.13522727811700638,None,p12_base_02_cont,001,2023-05-10_11h09.03.874,expectation_shapes_perceived_time,2022.2.4,120.28483444436092,
300,0.5,none,red,green,357.4214788444612,,,,,0,101,101,468,trial,,,,,,red,0.3574214788444612,0.35833333333333334,0.3,0.3,0.6907514788444613,0.6916666666666667,trial_list_0.5_green.csv,2.308326300000772,0.995592100021895,3e-05,3e-05,,0.6915069000096992,0.7251637000008486,0.35785039997426793,0.39121229999000207,2.0003096999716945,,2.308326300000772,2.4669647999689914,0.15863849996821955,2.308326300000772,2.508372900018003,4.058190200012177,1.7498639000114053,1.5912254000431858,0.1506,0.06735890248447875,0.13158483276037708,None,p12_base_02_cont,001,2023-05-10_11h09.03.874,expectation_shapes_perceived_time,2022.2.4,120.28483444436092,
-33,0.5,none,red,green,754.5816614941027,,,,,0,102,102,40,trial,,,,,,red,0.7545816614941028,0.7583333333333333,-0.033,-0.03333333333333333,0.6882516614941027,0.6916666666666667,trial_list_0.5_green.csv,2.3083289000205696,0.9977033999748528,3e-05,3e-05,0.03313,0.6918017999851145,0.7249805000028573,0.7581911000306718,0.7914776999969035,1.9999614999978803,2.0332868000259623,2.3083289000205696,2.9085566999856383,0.6002277999650687,2.3083289000205696,2.5085223999922164,5.1162656000233255,2.807936700002756,2.2077089000376873,0.71899,0.11419969849582154,-0.0938627658869766,None,p12_base_02_cont,001,2023-05-10_11h09.03.874,expectation_shapes_perceived_time,2022.2.4,120.28483444436092,
-33,0.5,none,green,red,796.0547161147775,,,,,0,103,103,79,trial,,,,,,green,0.7960547161147775,0.8,-0.033,-0.03333333333333333,0.7297247161147775,0.7333333333333333,trial_list_0.5_green.csv,2.307885600021109,0.9985640000086278,4e-05,4e-05,0.03286,0.7332484999787994,0.7665038999984972,0.7996404999867082,0.8332232999964617,1.999630199978128,2.0331564000225626,2.307885600021109,2.307885600021109,0.0,2.307885600021109,2.508127200009767,5.566250499978196,3.258364899957087,3.258364899957087,1.31383,-0.1232522356664075,-0.08161296686018876,None,p12_base_02_cont,001,2023-05-10_11h09.03.874,expectation_shapes_perceived_time,2022.2.4,120.28483444436092,
-167,0.5,none,red,green,510.4438971703469,,,,,0,104,104,386,trial,,,,,,red,0.5104438971703469,0.5083333333333333,-0.167,-0.16666666666666666,0.3101138971703469,0.30833333333333335,trial_list_0.5_green.csv,2.3165542000206187,0.9974164000013843,4e-05,4e-05,0.0332,0.31648830004269257,0.35026730003301054,0.5166763000306673,0.5499664000235498,1.9997335000080056,,2.3165542000206187,2.6409495000261813,0.3243953000055626,2.3165542000206187,2.5161104000289924,3.4914823000435717,1.174928100022953,0.8505328000173904,0.23884,0.10079736257886977,0.10812807985733304,None,p12_base_02_cont,001,2023-05-10_11h09.03.874,expectation_shapes_perceived_time,2022.2.4,120.28483444436092,
-300,0.5,none,red,green,905.4150017792208,,,,,0,105,105,254,trial,,,,,,red,0.9054150017792209,0.9083333333333333,-0.3,-0.3,0.5720850017792207,0.575,trial_list_0.5_green.csv,2.3083395999856293,0.9966344999847934,3e-05,3e-05,0.03334,0.5750659999903291,0.6082419999875128,0.9083910000044852,0.9414994000107981,1.9997595999739133,2.0334460999583825,2.3083395999856293,2.3083395999856293,0.0,2.3083395999856293,2.508092099975329,3.4076628999901004,1.099323300004471,1.099323300004471,0.54477,0.14636360107659627,-0.020724049709960536,None,p12_base_02_cont,001,2023-05-10_11h09.03.874,expectation_shapes_perceived_time,2022.2.4,120.28483444436092,
-233,0.5,none,green,red,1839.6703468126016,,,,,0,106,106,207,trial,,,,,,green,1.8396703468126017,1.8416666666666666,-0.233,-0.23333333333333334,1.5733403468126017,1.575,trial_list_0.5_green.csv,2.3081630999804474,0.9987318000057712,5e-05,5e-05,,1.5749366999953054,1.6082630000310019,1.841634200012777,1.8749160000006668,1.9998224999872036,2.032974000030663,2.3081630999804474,2.316511499986518,0.008348400006070733,2.3081630999804474,2.5080721999984235,4.225055399991106,1.9168923000106588,1.908543900004588,1.92515,-0.03444137036337625,0.14375528499496176,None,p12_base_02_cont,001,2023-05-10_11h09.03.874,expectation_shapes_perceived_time,2022.2.4,120.28483444436092,
-100,0.5,none,red,green,1355.84788395553,,,,,0,107,107,8,trial,,,,,,red,1.3558478839555301,1.3583333333333334,-0.1,-0.1,1.2225178839555302,1.225,trial_list_0.5_green.csv,2.3081817000056617,0.9974368000403047,7e-05,7e-05,0.033,1.2248979000141844,1.2579144000192173,1.3579569000285119,1.391457099991385,1.9997000999865122,2.033047200005967,2.3081817000056617,2.316427699988708,0.008245999983046204,2.3081817000056617,2.5079154000268318,3.208020200021565,0.8998385000159033,0.8915925000328571,1.70415,-0.11844805450852185,0.08844121403302965,None,p12_base_02_cont,001,2023-05-10_11h09.03.874,expectation_shapes_perceived_time,2022.2.4,120.28483444436092,
233,0.5,none,green,red,883.0077146688006,,,,,0,108,108,161,trial,,,,,,green,0.8830077146688007,0.8833333333333333,0.233,0.23333333333333334,1.1493377146688006,1.15,trial_list_0.5_green.csv,2.308103499992285,0.9968965000007302,5e-05,5e-05,0.03331,1.1497866999707185,1.1828940999694169,0.8828881999943405,0.916404599964153,1.999593599990476,2.0329255999531597,2.308103499992285,2.7744612999958917,0.4663578000036068,2.308103499992285,2.5076518999994732,5.941231599950697,3.6331280999584123,3.1667702999548055,1.62975,-0.13571119902586554,0.058602563215714665,None,p12_base_02_cont,001,2023-05-10_11h09.03.874,expectation_shapes_perceived_time,2022.2.4,120.28483444436092,
233,0.5,none,red,green,372.3106889028686,,,,,0,109,109,252,trial,,,,,,red,0.3723106889028686,0.375,0.233,0.23333333333333334,0.6386406889028686,0.6416666666666666,trial_list_0.5_green.csv,2.307739500014577,0.9971250000526197,5e-05,5e-05,0.03329,0.6415384999709204,0.6749042000155896,0.37473049998516217,0.4082122999825515,1.999941400019452,2.032987000013236,2.307739500014577,2.949761199997738,0.6420216999831609,2.307739500014577,2.5076091999653727,4.2580529999686405,1.9503134999540634,1.3082917999709025,0.46896,0.14712121487270596,0.01439229275928645,None,p12_base_02_cont,001,2023-05-10_11h09.03.874,expectation_shapes_perceived_time,2022.2.4,120.28483444436092,
100,0.5,none,red,green,1743.151961477921,,,,,0,110,110,148,trial,,,,,,red,1.7431519614779212,1.75,0.1,0.1,1.876481961477921,1.8833333333333333,trial_list_0.5_green.csv,2.3075875000213273,0.996934800001327,3e-05,3e-05,0.03309,1.883361899992451,1.9169464000151493,1.7500800000270829,1.7834165000240318,1.9996174999978393,2.032685099984519,2.3075875000213273,2.3075875000213273,0.0,2.3075875000213273,2.5081266000051983,4.116311300022062,1.8087238000007346,1.8087238000007346,1.96516,-0.016147139167266657,0.1469389664221266,None,p12_base_02_cont,001,2023-05-10_11h09.03.874,expectation_shapes_perceived_time,2022.2.4,120.28483444436092,
-100,0.5,none,green,red,963.3233824561,,,,,0,111,111,265,trial,,,,,,green,0.9633233824561,0.9666666666666667,-0.1,-0.1,0.8299933824561,0.8333333333333334,trial_list_0.5_green.csv,2.307652599993162,0.9970496000023559,5e-05,5e-05,0.0331,0.833235300029628,0.8664143999922089,0.966728100029286,1.0000361000420526,1.9995986000285484,2.0326680000289343,2.307652599993162,2.307652599993162,0.0,2.307652599993162,2.508133099996485,5.03303719998803,2.725384599994868,2.725384599994868,1.39981,-0.14056115207148284,-0.045764096023273484,None,p12_base_02_cont,001,2023-05-10_11h09.03.874,expectation_shapes_perceived_time,2022.2.4,120.28483444436092,
-100,0.5,none,green,red,1525.2191744454078,,,,,0,112,112,135,trial,,,,,,green,1.5252191744454078,1.525,-0.1,-0.1,1.3918891744454078,1.3916666666666666,trial_list_0.5_green.csv,2.308360699971672,0.9974026000127196,3e-05,3e-05,0.03337,1.3914556999807246,1.424928899970837,1.524886199971661,1.5582915000268258,1.999958999978844,2.0333257999736816,2.308360699971672,2.308360699971672,0.0,2.308360699971672,2.5083039000164717,3.533280499977991,1.2249198000063188,1.2249198000063188,1.39948,-0.1405134546688394,-0.04591033667397723,None,p12_base_02_cont,001,2023-05-10_11h09.03.874,expectation_shapes_perceived_time,2022.2.4,120.28483444436092,
-100,0.5,none,red,green,1561.47604919352,,,,,0,113,113,292,trial,,,,,,red,1.56147604919352,1.5666666666666667,-0.1,-0.1,1.4281460491935203,1.4333333333333333,trial_list_0.5_green.csv,2.308148199983407,0.9975233999430202,4e-05,4e-05,,1.4330432999995537,1.4661339999875054,1.5660659999703057,1.5993807999766432,2.000017000013031,,2.308148199983407,2.4999615999986418,0.19181340001523495,2.308148199983407,2.5081332999980077,3.483565800008364,1.1754176000249572,0.9836042000097223,1.89948,-0.04591033667397723,0.1405134546688394,None,p12_base_02_cont,001,2023-05-10_11h09.03.874,expectation_shapes_perceived_time,2022.2.4,120.28483444436092,
-100,0.5,none,red,green,404.8618702837017,,,,,0,114,114,366,trial,,,,,,red,0.4048618702837017,0.4083333333333333,-0.1,-0.1,0.27153187028370174,0.275,trial_list_0.5_green.csv,2.3080412999843247,0.9960327000007965,3e-05,3e-05,0.03339,0.2751803999999538,0.3084824000252411,0.4084708000300452,0.4419491000007838,1.9997352000209503,,2.3080412999843247,2.3080412999843247,0.0,2.3080412999843247,2.5082308999844827,3.7252523000352085,1.4172110000508837,1.4172110000508837,0.23044,0.09790935952158156,0.11074993126211685,None,p12_base_02_cont,001,2023-05-10_11h09.03.874,expectation_shapes_perceived_time,2022.2.4,120.28483444436092,
-100,0.5,none,green,red,724.3738303654403,,,,,0,115,115,197,trial,,,,,,green,0.7243738303654403,0.725,-0.1,-0.1,0.5910438303654403,0.5916666666666667,trial_list_0.5_green.csv,2.3077707999618724,0.9962999999988824,3e-05,3e-05,0.03335,0.5916285999701358,0.6249128999770619,0.7247911999584176,0.7584475000039674,1.9999265999649651,2.0332997999503277,2.3077707999618724,2.3077707999618724,0.0,2.3077707999618724,2.507950200000778,4.108083600003738,1.8003128000418656,1.8003128000418656,0.93506,0.029949871429941967,-0.14475771191138614,None,p12_base_02_cont,001,2023-05-10_11h09.03.874,expectation_shapes_perceived_time,2022.2.4,120.28483444436092,
-100,0.5,none,green,red,1677.327952088972,,,,,0,116,116,317,trial,,,,,,green,1.6773279520889721,1.6833333333333333,-0.1,-0.1,1.5439979520889722,1.55,trial_list_0.5_green.csv,2.307669600006193,0.9965969999902882,4e-05,4e-05,0.03336,1.5498485999996774,1.5832222000462934,1.6834468000452034,1.7166411000071093,1.9996064000297338,2.033249300031457,2.307669600006193,2.307669600006193,0.0,2.307669600006193,2.507650600047782,3.7665545000345446,1.4588849000283517,1.4588849000283517,1.74451,-0.10631339527379471,0.10270955136620845,None,p12_base_02_cont,001,2023-05-10_11h09.03.874,expectation_shapes_perceived_time,2022.2.4,120.28483444436092,
167,0.5,none,green,red,267.84427650142857,,,,,0,117,117,333,trial,,,,,,green,0.26784427650142856,0.26666666666666666,0.167,0.16666666666666666,0.46817427650142857,0.4666666666666667,trial_list_0.5_green.csv,2.308519600017462,0.996418199967593,4e-05,4e-05,0.03347,0.4667804000200704,0.5002189999795519,0.2669865000061691,0.30009690002771094,2.000135699985549,2.0335063000093214,2.308519600017462,2.391538899973966,0.08301929995650426,2.308519600017462,2.5078931999742053,3.40000239998335,1.0914827999658883,1.008463500009384,0.25896,0.10742881510553244,0.10154230468879093,None,p12_base_02_cont,001,2023-05-10_11h09.03.874,expectation_shapes_perceived_time,2022.2.4,120.28483444436092,
-167,0.5,none,green,red,1442.649894744843,,,,,0,118,118,87,trial,,,,,,green,1.4426498947448432,1.45,-0.167,-0.16666666666666666,1.2423198947448433,1.2416666666666667,trial_list_0.5_green.csv,2.3083330999943428,0.9974059999804012,3e-05,3e-05,0.03314,1.2414434000384063,1.2751264999969862,1.4502012000302784,1.4829993000021204,2.000079400022514,2.0336252000415698,2.3083330999943428,2.3083330999943428,0.0,2.3083330999943428,2.5082620000466704,3.0911090000299737,0.7827759000356309,0.7827759000356309,1.503,-0.14781693180429042,0.0013944993566442493,None,p12_base_02_cont,001,2023-05-10_11h09.03.874,expectation_shapes_perceived_time,2022.2.4,120.28483444436092,
-300,0.5,none,red,green,1146.787547604593,,,,,0,119,119,258,trial,,,,,,red,1.146787547604593,1.15,-0.3,-0.3,0.8134575476045931,0.8166666666666667,trial_list_0.5_green.csv,2.3081891000038013,0.9981900000129826,3e-05,3e-05,0.03313,0.8171965000219643,0.8503759000450373,1.1500413000467233,1.1837435000343248,1.999973600031808,2.033378900028765,2.3081891000038013,2.3081891000038013,0.0,2.3081891000038013,2.508449200016912,3.4332050000084564,1.1250159000046551,1.1250159000046551,1.62541,-0.1364978020797021,0.05674627726908964,None,p12_base_02_cont,001,2023-05-10_11h09.03.874,expectation_shapes_perceived_time,2022.2.4,120.28483444436092,
33,0.5,none,red,green,546.2356448396038,,,,,0,120,120,72,trial,,,,,,red,0.5462356448396037,0.55,0.033,0.03333333333333333,0.6125656448396039,0.6166666666666667,trial_list_0.5_green.csv,2.308201299980283,0.9975337999640033,3e-05,3e-05,0.03313,0.6163476000074297,0.6497218000004068,0.5496010999777354,0.5830472999950871,1.999771500006318,2.033167499990668,2.308201299980283,2.317065699957311,0.00886439997702837,2.308201299980283,2.5081404999946244,3.566329399996903,1.25812810001662,1.2492637000395916,1.79372,-0.08923194417311127,0.11785351117203376,None,p12_base_02_cont,001,2023-05-10_11h09.03.874,expectation_shapes_perceived_time,2022.2.4,120.28483444436092,
-300,0.5,none,green,red,895.6532193783589,,,,,0,121,121,37,trial,,,,,,green,0.895653219378359,0.9,-0.3,-0.3,0.5623232193783589,0.5666666666666667,trial_list_0.5_green.csv,2.3086764000472613,0.9972778999945149,2e-05,2e-05,0.03333,0.5670449000317603,0.6004951000213623,0.9003099999972619,0.9335207000258379,2.000399300013669,2.0336606000200845,2.3086764000472613,2.3086764000472613,0.0,2.3086764000472613,2.5088449000031687,3.5422024000436068,1.2335259999963455,1.2335259999963455,1.29451,-0.11807454080483366,-0.08893926450234223,None,p12_base_02_cont,001,2023-05-10_11h09.03.874,expectation_shapes_perceived_time,2022.2.4,120.28483444436092,
-33,0.5,none,red,green,1674.9373294011325,,,,,0,122,122,244,trial,,,,,,red,1.6749373294011325,1.675,-0.033,-0.03333333333333333,1.6086073294011325,1.6083333333333334,trial_list_0.5_green.csv,2.3083027999964543,0.9971388999838382,4e-05,4e-05,0.03339,1.6082562999799848,1.6415838999673724,1.6748538999818265,1.7085302000050433,1.9999681999906898,2.0333314999588765,2.3083027999964543,2.3666469999589026,0.05834419996244833,2.3083027999964543,2.5083261000108905,4.766647499985993,2.4583446999895386,2.4000005000270903,1.74293,-0.10682345542439946,0.10217895736246904,None,p12_base_02_cont,001,2023-05-10_11h09.03.874,expectation_shapes_perceived_time,2022.2.4,120.28483444436092,
167,0.5,none,green,red,1030.9816786349395,,,,,0,123,123,131,trial,,,,,,green,1.0309816786349395,1.0333333333333332,0.167,0.16666666666666666,1.2313116786349394,1.2333333333333334,trial_list_0.5_green.csv,2.3083800000022165,0.9968669999507256,3e-05,3e-05,,1.233570399985183,1.2667082999832928,1.0334233000176027,1.0667243999778293,2.0000275999773294,,2.3083800000022165,2.483605900022667,0.17522590002045035,2.3083800000022165,2.5086801999714226,3.8750944000203162,1.5667144000180997,1.3914884999976493,0.75277,0.10361415820353019,-0.10543195045271496,None,p12_base_02_cont,001,2023-05-10_11h09.03.874,expectation_shapes_perceived_time,2022.2.4,120.28483444436092,
-300,0.5,none,red,green,1846.2606293321985,,,,,0,124,124,156,trial,,,,,,red,1.8462606293321986,1.8499999999999999,-0.3,-0.3,1.5129306293321987,1.5166666666666666,trial_list_0.5_green.csv,2.309117700031493,0.9969761000247672,4e-05,4e-05,0.03332,1.5171804000274278,1.5507121999980882,1.850383499986492,1.8839411999797449,2.000671899993904,2.033848399994895,2.309117700031493,2.3170588000211865,0.007941099989693612,2.309117700031493,2.508532900013961,3.583952600019984,1.274834899988491,1.2668937999987975,1.86368,-0.06138997257865235,0.13447327326752417,None,p12_base_02_cont,001,2023-05-10_11h09.03.874,expectation_shapes_perceived_time,2022.2.4,120.28483444436092,
300,0.5,none,green,red,1089.7005049869556,0,0,0,0,0,125,125,103,fam,0.5565896000480279,0.5565896000480279,269.99999999999955,2.56510549999075,2.56510549999075,,,,,,,,,,,,,,,,,,,,,,,,,,,,,,,,p12_base_02_cont,001,2023-05-10_11h09.03.874,expectation_shapes_perceived_time,2022.2.4,120.28483444436092,
300,0.5,none,green,red,1089.7005049869556,1,0,1,0,0,125,125,103,fam,0.49682749999919906,0.49682749999919906,269.99999999999955,2.505551300011575,2.505551300011575,,,,,,,,,,,,,,,,,,,,,,,,,,,,,,,,p12_base_02_cont,001,2023-05-10_11h09.03.874,expectation_shapes_perceived_time,2022.2.4,120.28483444436092,
300,0.5,none,green,red,1089.7005049869556,2,0,2,0,0,125,125,103,fam,0.49756560003152117,0.49756560003152117,269.99999999999955,2.505906899983529,2.505906899983529,,,,,,,,,,,,,,,,,,,,,,,,,,,,,,,,p12_base_02_cont,001,2023-05-10_11h09.03.874,expectation_shapes_perceived_time,2022.2.4,120.28483444436092,
300,0.5,none,green,red,1089.7005049869556,3,0,3,0,0,125,125,103,fam,0.49745580001035705,0.49745580001035705,269.99999999999955,2.505960199981928,2.505960199981928,,,,,,,,,,,,,,,,,,,,,,,,,,,,,,,,p12_base_02_cont,001,2023-05-10_11h09.03.874,expectation_shapes_perceived_time,2022.2.4,120.28483444436092,
300,0.5,none,green,red,1089.7005049869556,,,,,0,125,125,103,trial,,,,,,green,1.0897005049869557,1.0916666666666666,0.3,0.3,1.4230305049869556,1.425,trial_list_0.5_green.csv,2.3087897999794222,0.9978488000342622,4e-05,4e-05,0.03336,1.425456499971915,1.4588731999974698,1.0919725999701768,1.1256130000110716,2.000363099970855,2.033965500013437,2.3087897999794222,2.3172102000098675,0.008420400030445307,2.3087897999794222,2.508811899984721,4.475467899988871,2.166678100009449,2.1582576999790035,1.72793,-0.11151725155386638,0.0970344916118058,None,p12_base_02_cont,001,2023-05-10_11h09.03.874,expectation_shapes_perceived_time,2022.2.4,120.28483444436092,
100,0.5,none,green,red,1001.8296385953864,,,,,0,126,126,201,trial,,,,,,green,1.0018296385953864,1.0083333333333333,0.1,0.1,1.1351596385953862,1.1416666666666666,trial_list_0.5_green.csv,2.3084688000380993,0.9968872999888845,3e-05,3e-05,,1.141834900015965,1.1753287999890745,1.0085018000099808,1.0417436999850906,1.9999416000209749,,2.3084688000380993,2.3501114000100642,0.041642599971964955,2.3084688000380993,2.5086426000343636,3.1664456999860704,0.8579768999479711,0.8163342999760062,1.29517,-0.11825880758807587,-0.0886941056910569,None,p12_base_02_cont,001,2023-05-10_11h09.03.874,expectation_shapes_perceived_time,2022.2.4,120.28483444436092,
-300,0.5,none,red,green,893.7552824512234,,,,,0,127,127,74,trial,,,,,,red,0.8937552824512234,0.9,-0.3,-0.3,0.5604252824512234,0.5583333333333333,trial_list_0.5_green.csv,2.3083093999885023,0.9966086000204086,7e-05,7e-05,0.03298,0.5585218999767676,0.5917299999855459,0.8999882999924012,0.9332337999949232,1.9999368999851868,2.033219699980691,2.3083093999885023,2.3083093999885023,0.0,2.3083093999885023,2.5079958999995142,3.675199799996335,1.3668904000078328,1.3668904000078328,0.26645,0.1097868122719829,0.09898810942555834,None,p12_base_02_cont,001,2023-05-10_11h09.03.874,expectation_shapes_perceived_time,2022.2.4,120.28483444436092,
-233,0.5,none,red,green,798.85188012397,,,,,0,128,128,362,trial,,,,,,red,0.79885188012397,0.8,-0.233,-0.23333333333333334,0.53252188012397,0.5333333333333333,trial_list_0.5_green.csv,2.308166600007098,0.996426599973347,3e-05,3e-05,,0.5326812000130303,0.5659371000365354,0.7996909000212327,0.8329762000357732,1.9999446000438184,,2.308166600007098,2.3167981000151485,0.008631500008050352,2.308166600007098,2.5082442000275478,5.449423800047953,3.1412572000408545,3.132625700032804,0.81795,0.08000888163189265,-0.12429951253526184,None,p12_base_02_cont,001,2023-05-10_11h09.03.874,expectation_shapes_perceived_time,2022.2.4,120.28483444436092,
233,0.5,none,green,red,469.7824492103277,,,,,0,129,129,473,trial,,,,,,green,0.4697824492103277,0.475,0.233,0.23333333333333334,0.7361124492103278,0.7416666666666667,trial_list_0.5_green.csv,2.3083618999808095,0.9976832999964245,4e-05,4e-05,,0.7417031999793835,0.7752209999598563,0.4749026999925263,0.5082807999569923,2.000034299970139,,2.3083618999808095,2.3083618999808095,0.0,2.3083618999808095,2.508262699993793,3.5415029999567196,1.23314109997591,1.23314109997591,0.38495,0.1382723758535846,0.05227370306659905,None,p12_base_02_cont,001,2023-05-10_11h09.03.874,expectation_shapes_perceived_time,2022.2.4,120.28483444436092,
-233,0.5,none,green,red,411.2555411026537,,,,,0,130,130,263,trial,,,,,,green,0.4112555411026537,0.4083333333333333,-0.233,-0.23333333333333334,0.1449255411026537,0.14166666666666666,trial_list_0.5_green.csv,2.308498300029896,0.9974119000253268,3e-05,3e-05,0.03336,0.1415687000262551,0.17520420002983883,0.4083023000275716,0.4416855000308715,2.000018500024453,2.0333810000447556,2.308498300029896,2.3336051999940537,0.025106899964157492,2.308498300029896,2.508524800010491,3.383056100050453,1.074557800020557,1.0494509000563994,0.09887,0.045179099491855855,0.14075027149385863,None,p12_base_02_cont,001,2023-05-10_11h09.03.874,expectation_shapes_perceived_time,2022.2.4,120.28483444436092,
300,0.5,none,green,red,1532.2643521045532,,,,,0,131,131,229,trial,,,,,,green,1.5322643521045531,1.5333333333333332,0.3,0.3,1.865594352104553,1.8666666666666667,trial_list_0.5_green.csv,2.3086488000117242,0.9952944999677129,2e-05,2e-05,0.0333,1.8669427999993786,1.900303200003691,1.533721300016623,1.5669885000097565,2.0003575999871828,2.033621900016442,2.3086488000117242,2.3086488000117242,0.0,2.3086488000117242,2.5086919000023045,4.117119000002276,1.808470199990552,1.808470199990552,1.74753,-0.10533412799349606,0.1037136029474423,None,p12_base_02_cont,001,2023-05-10_11h09.03.874,expectation_shapes_perceived_time,2022.2.4,120.28483444436092,
-33,0.5,none,red,green,361.401455270725,,,,,0,132,132,48,trial,,,,,,red,0.36140145527072504,0.35833333333333334,-0.033,-0.03333333333333333,0.29507145527072504,0.2916666666666667,trial_list_0.5_green.csv,2.308746599999722,0.9966644999803975,2e-05,2e-05,0.0333,0.2915712999529205,0.3253326999838464,0.35869679995812476,0.3920512999757193,2.000400199962314,2.0343307000002824,2.308746599999722,2.850535499979742,0.5417888999800198,2.308746599999722,2.5087096999632195,4.383452699985355,2.074706099985633,1.5329172000056133,0.20483,0.0886941056910569,0.11825880758807587,None,p12_base_02_cont,001,2023-05-10_11h09.03.874,expectation_shapes_perceived_time,2022.2.4,120.28483444436092,
-233,0.5,none,green,red,1289.1190254707467,,,,,0,133,133,489,trial,,,,,,green,1.2891190254707467,1.2916666666666667,-0.233,-0.23333333333333334,1.0227890254707466,1.025,trial_list_0.5_green.csv,2.3085025000036694,0.9966762000112794,1e-05,1e-05,0.0333,1.0251020999858156,1.0583614999777637,1.2916750999866053,1.3250449000042863,1.9999493000213988,2.0331833999953233,2.3085025000036694,2.3085025000036694,0.0,2.3085025000036694,2.5082743000239134,4.966166300000623,2.6576637999969535,2.6576637999969535,1.3413,-0.12982869414943304,-0.07068451125913577,None,p12_base_02_cont,001,2023-05-10_11h09.03.874,expectation_shapes_perceived_time,2022.2.4,120.28483444436092,
233,0.5,none,red,green,445.8087108874741,,,,,0,134,134,20,trial,,,,,,red,0.4458087108874741,0.45,0.233,0.23333333333333334,0.712138710887474,0.7166666666666667,trial_list_0.5_green.csv,2.308326099999249,0.998628799978178,4e-05,4e-05,0.03323,0.7166176000027917,0.74982570001157,0.4498467000084929,0.48316740000154823,2.0002159000141546,2.033816699986346,2.308326099999249,2.316638799966313,0.008312699967063963,2.308326099999249,2.508217099995818,4.366043699963484,2.057717599964235,2.049404899997171,1.34806,-0.131299449197892,-0.06791350820580619,None,p12_base_02_cont,001,2023-05-10_11h09.03.874,expectation_shapes_perceived_time,2022.2.4,120.28483444436092,
33,0.5,none,green,red,838.6764813673345,,,,,0,135,135,457,trial,,,,,,green,0.8386764813673345,0.8416666666666667,0.033,0.03333333333333333,0.9050064813673345,0.9083333333333333,trial_list_0.5_green.csv,2.308184700028505,0.9980790999834426,3e-05,3e-05,,0.9082493000314571,0.9415637000347488,0.8416006000479683,0.8751477000187151,1.9999204000341706,,2.308184700028505,2.308184700028505,0.0,2.308184700028505,2.5084423000225797,4.658368400007021,2.3501836999785155,2.3501836999785155,0.75482,0.10293144923428428,-0.10609857074918534,None,p12_base_02_cont,001,2023-05-10_11h09.03.874,expectation_shapes_perceived_time,2022.2.4,120.28483444436092,
33,0.5,none,red,green,1036.8704056493978,,,,,0,136,136,56,trial,,,,,,red,1.0368704056493978,1.0416666666666667,0.033,0.03333333333333333,1.1032004056493976,1.1083333333333334,trial_list_0.5_green.csv,2.3083005999797024,0.9972824999713339,3e-05,3e-05,0.03354,1.1087185999494977,1.1417914999765344,1.041965899989009,1.07535109994933,2.000134799978696,2.033474199997727,2.3083005999797024,3.0749567999737337,0.7666561999940313,2.3083005999797024,2.508360799984075,4.5250178999849595,2.216717300005257,1.4500611000112258,1.61236,-0.13870917262908752,0.051103379389663826,None,p12_base_02_cont,001,2023-05-10_11h09.03.874,expectation_shapes_perceived_time,2022.2.4,120.28483444436092,
-233,0.5,none,green,red,1497.1669915274972,,,,,0,137,137,167,trial,,,,,,green,1.4971669915274972,1.5,-0.233,-0.23333333333333334,1.2308369915274973,1.2333333333333334,trial_list_0.5_green.csv,2.3076606999966316,0.9972888000193052,4e-05,4e-05,0.03348,1.2333632000372745,1.2665670000133105,1.4996131000225432,1.5332379000028595,1.9996027000015602,2.032755399995949,2.3076606999966316,2.3160118000232615,0.008351100026629865,2.3076606999966316,2.5084139000391588,3.224753500020597,0.9170928000239655,0.9087416999973357,1.36452,-0.13463497680978584,-0.061034522820436254,None,p12_base_02_cont,001,2023-05-10_11h09.03.874,expectation_shapes_perceived_time,2022.2.4,120.28483444436092,
-300,0.5,none,red,green,992.5328474517509,,,,,0,138,138,310,trial,,,,,,red,0.9925328474517509,0.9916666666666667,-0.3,-0.3,0.6592028474517508,0.6583333333333333,trial_list_0.5_green.csv,2.308341500000097,0.9975578000303358,4e-05,4e-05,0.03328,0.658296599984169,0.6916589000029489,0.9917954999837093,1.0250648999935947,2.000047200010158,2.033182699989993,2.308341500000097,2.308341500000097,0.0,2.308341500000097,2.5084368000389077,4.016530300024897,1.7081888000248,1.7081888000248,0.45671,0.1464585952314735,0.02004170250535953,None,p12_base_02_cont,001,2023-05-10_11h09.03.874,expectation_shapes_perceived_time,2022.2.4,120.28483444436092,
