id,delay,expectation,congruency,trial_num,stim_color,distractor_color,block,targetTimeMs,famLoop.thisRepN,famLoop.thisTrialN,famLoop.thisN,famLoop.thisIndex,trialss.thisRepN,trialss.thisTrialN,trialss.thisN,trialss.thisIndex,isTrial,handMove.started,audioCue2Start.started,handOri,handMove.ended,audioCue2End.started,target_color,expected_target_onset,expected_target_onset_in_frames,fixationPoint.started,fixationPoint.stopped,audCueStart.started,placeholder.started,audCueStart.stopped,target.started,target.stopped,audCueEnd.started,audCueEnd.stopped,responsePointer.started,cueForRep.started,space2pass.started,responseStarted,rtUntillMotionTreshold,responsePointer.stopped,rTAfterMotionTreshold,rtDurationBtwRespMotion,perceivedTime,resp_x_coord,resp_y_coord,feedbackPointer.stopped,actualTime_x_coord,actualTime_y_coord,space2pass.keys,space2pass.rt,expected_delay,expected_delays_frame,expected_distractor,expected_distractor_frame,expBlockFiles,distractor.started,distractor.stopped,participant,session,date,expName,psychopyVersion,frameRate,
,,,,,,,,,0,0,0,0,,,,,fam,1.3311902000568807,1.3311902000568807,270.0000000000009,3.3228767999680713,3.3228767999680713,,,,,,,,,,,,,,,,,,,,,,,,,,,,,,,,,,,,p13_base_01,001,2023-05-10_15h24.17.119,expectation_shapes_perceived_time,2022.2.4,119.57474437053165,
,,,,,,,,,1,0,1,0,,,,,fam,0.49751429993193597,0.49751429993193597,270.0000000000009,2.489304699935019,2.489304699935019,,,,,,,,,,,,,,,,,,,,,,,,,,,,,,,,,,,,p13_base_01,001,2023-05-10_15h24.17.119,expectation_shapes_perceived_time,2022.2.4,119.57474437053165,
,,,,,,,,,2,0,2,0,,,,,fam,0.4971275000134483,0.4971275000134483,270.0000000000009,2.4883640999905765,2.4883640999905765,,,,,,,,,,,,,,,,,,,,,,,,,,,,,,,,,,,,p13_base_01,001,2023-05-10_15h24.17.119,expectation_shapes_perceived_time,2022.2.4,119.57474437053165,
,,,,,,,,,3,0,3,0,,,,,fam,0.49776569998357445,0.49776569998357445,270.0000000000009,2.4896917999722064,2.4896917999722064,,,,,,,,,,,,,,,,,,,,,,,,,,,,,,,,,,,,p13_base_01,001,2023-05-10_15h24.17.119,expectation_shapes_perceived_time,2022.2.4,119.57474437053165,
,,,,,,,,,4,0,4,0,,,,,fam,0.49921099992934614,0.49921099992934614,270.0000000000009,2.4910250999964774,2.4910250999964774,,,,,,,,,,,,,,,,,,,,,,,,,,,,,,,,,,,,p13_base_01,001,2023-05-10_15h24.17.119,expectation_shapes_perceived_time,2022.2.4,119.57474437053165,
,,,,,,,,,,,,,0,0,0,0,test,,,,,,green,1.7845677090797092,1.7603305785123968,2.2920404000906274,0.9983202000148594,3.15000070258975e-05,3e-05,0.03337190009187907,1.774774800054729,1.808059300063178,1.9997033000690863,2.0332130000460893,2.2920404000906274,2.2920404000906274,2.591994700022042,4.141900300048292,1.8498598999576643,8.641819100012071,6.349778699921444,4.49991879996378,1.61339,-0.13854342318944562,0.051551041186770466,8.641819100012071,-0.09258215489058977,0.11524033387796466,space,6.044879299937747,,,,,,,,p13_base_01,001,2023-05-10_15h24.17.119,expectation_shapes_perceived_time,2022.2.4,119.57474437053165,
,,,,,,,,,,,,,1,0,1,0,test,,,,,,green,1.3490538504735903,1.3305785123966942,2.291161499917507,0.9971837000921369,3.909994848072529e-05,4e-05,0.03322899993509054,1.3417037999024615,1.3748131999745965,1.9996319999918342,2.0328137999167666,2.291161499917507,2.291161499917507,2.591431299922988,2.6582901999354362,0.3671287000179291,5.674780600005761,3.3836191000882536,3.0164904000703245,0.77336,0.09658046392390197,-0.11191069629277532,5.674780600005761,-0.13151164956165945,-0.06750167395006736,space,3.083146799937822,,,,,,,,p13_base_01,001,2023-05-10_15h24.17.119,expectation_shapes_perceived_time,2022.2.4,119.57474437053165,
,,,,,,,,,,,,,2,0,2,0,test,,,,,,green,1.3826350595755392,1.3636363636363638,2.2916948000201955,0.997141300002113,3.890006337314844e-05,4e-05,,1.3749296000460163,1.4083911000052467,1.9999927000608295,,2.2916948000201955,2.2916948000201955,2.591820599976927,2.583209100062959,0.29151430004276335,5.216487099998631,2.924792299978435,2.6332779999356717,1.0615,-0.02838382951779835,-0.14507290642430268,5.216487099998631,-0.13788859179036655,-0.05327782100048366,space,2.6244060000171885,,,,,,,,p13_base_01,001,2023-05-10_15h24.17.119,expectation_shapes_perceived_time,2022.2.4,119.57474437053165,
,,,,,,,,,,,,,3,0,3,0,test,,,,,,green,0.5574734947389,0.5537190082644629,2.2918599999975413,0.9973014000570402,3.909994848072529e-05,4e-05,0.03340419998858124,0.5582016999833286,0.591785499942489,1.9998811999103054,2.033322299947031,2.2918599999975413,2.2918599999975413,2.591441399999894,2.2918599999975413,0.0,4.416041199932806,2.124181199935265,2.124181199935265,0.51304,0.14769951933604863,-0.006053258989182321,4.416041199932806,0.14542042926602156,-0.02654597349083192,space,1.8224290000507608,,,,,,,,p13_base_01,001,2023-05-10_15h24.17.119,expectation_shapes_perceived_time,2022.2.4,119.57474437053165,
,,,,,,,,,,,,,4,0,4,0,test,,,,,,red,1.7012375061392975,1.677685950413223,2.2916569999651983,0.9989662000443786,3.860006108880043e-05,4e-05,0.03331219998653978,1.691848500049673,1.7250064000254497,2.0000132999848574,2.033336100052111,2.2916569999651983,2.2916569999651983,2.5918199999723583,2.7668392000487074,0.4751822000835091,5.199758299975656,2.9081013000104576,2.4329190999269485,1.65655,-0.13030346271047077,0.06980542645203792,5.199758299975656,-0.11925302857596927,0.0873527625891075,space,2.6056462000124156,,,,,,,,p13_base_01,001,2023-05-10_15h24.17.119,expectation_shapes_perceived_time,2022.2.4,119.57474437053165,
,,,,,,,,,0,0,0,0,0,-1,-1,0,fam,0.5572569000069052,0.5572569000069052,270.0000000000009,2.5489046000875533,2.5489046000875533,,,,,,,,,,,,,,,,,,,,,,,,,,,,,,,,,,,,p13_base_01,001,2023-05-10_15h24.17.119,expectation_shapes_perceived_time,2022.2.4,119.57474437053165,
,,,,,,,,,1,0,1,0,0,-1,-1,0,fam,0.4974651000229642,0.4974651000229642,270.0000000000009,2.4891169000184163,2.4891169000184163,,,,,,,,,,,,,,,,,,,,,,,,,,,,,,,,,,,,p13_base_01,001,2023-05-10_15h24.17.119,expectation_shapes_perceived_time,2022.2.4,119.57474437053165,
,,,,,,,,,2,0,2,0,0,-1,-1,0,fam,0.4975918000563979,0.4975918000563979,270.0000000000009,2.4892614000709727,2.4892614000709727,,,,,,,,,,,,,,,,,,,,,,,,,,,,,,,,,,,,p13_base_01,001,2023-05-10_15h24.17.119,expectation_shapes_perceived_time,2022.2.4,119.57474437053165,
,,,,,,,,,3,0,3,0,0,-1,-1,0,fam,0.4985249999444932,0.4985249999444932,270.0000000000009,2.490063500008546,2.490063500008546,,,,,,,,,,,,,,,,,,,,,,,,,,,,,,,,,,,,p13_base_01,001,2023-05-10_15h24.17.119,expectation_shapes_perceived_time,2022.2.4,119.57474437053165,
1,-500,0.5,none,59,green,red,no_Expectation,,,,,,0,0,0,0,train_doubleStim,,,,,,green,0.904526706540455,0.8925619834710744,2.2917178999632597,0.9978025000309572,4e-05,4e-05,,0.9002513999585062,0.9336860999464989,2.0001859000185505,,2.2917178999632597,2.2917178999632597,2.4915629000170156,3.0414156999904662,0.7496978000272065,3.9333184000570327,1.641600500093773,0.8919027000665665,1.05257,-0.02430203525927347,-0.1458122115556408,,,,None,,-0.5,-0.49586776859504134,0.37119670654045495,0.36363636363636365,training_double_stim.csv,0.3666609999490902,0.40012420003768057,p13_base_01,001,2023-05-10_15h24.17.119,expectation_shapes_perceived_time,2022.2.4,119.57474437053165,
1,500,0.5,none,98,red,green,no_Expectation,,,,,,0,1,1,5,train_doubleStim,,,,,,red,0.25047693149031086,0.24793388429752067,2.2917652999749407,0.9954874999821186,3e-05,3e-05,0.03327,0.2500398999545723,0.2835055999457836,2.0003457999555394,2.0334453999530524,2.2917652999749407,2.2917652999749407,2.4918627999722958,2.7080411999486387,0.41627589997369796,4.12528159993235,1.8335162999574095,1.4172403999837115,0.19384,0.08455693424917395,0.12125145288560793,,,,None,,0.5,0.49586776859504134,0.7838069314903108,0.7768595041322315,training_double_stim.csv,0.7834160999627784,0.8169196000089869,p13_base_01,001,2023-05-10_15h24.17.119,expectation_shapes_perceived_time,2022.2.4,119.57474437053165,
1,500,0.5,none,25,green,red,no_Expectation,,,,,,0,2,2,6,train_doubleStim,,,,,,green,0.5692498829068313,0.5619834710743802,2.2915912000462413,0.9963230999419466,4e-05,4e-05,0.03329,0.5669075000332668,0.5999022000469267,2.0001360999885947,2.033331700018607,2.2915912000462413,2.2915912000462413,2.491256200009957,2.51622959994711,0.22463839990086854,4.383312799967825,2.091721599921584,1.8670832000207156,0.97354,0.012276074278853584,-0.14731289134624298,,,,None,,0.5,0.49586776859504134,1.1025798829068312,1.0909090909090908,training_double_stim.csv,1.1002638000063598,1.133444600040093,p13_base_01,001,2023-05-10_15h24.17.119,expectation_shapes_perceived_time,2022.2.4,119.57474437053165,
1,-500,0.5,none,23,green,red,no_Expectation,,,,,,0,3,3,2,train_doubleStim,,,,,,green,1.1663698542133776,1.1487603305785123,2.29127189994324,0.9973487999523059,3e-05,3e-05,,1.1582424999214709,1.1915917999576777,1.9999358999775723,,2.29127189994324,2.29127189994324,2.491236099973321,2.7917587999254465,0.5004868999822065,4.216633499949239,1.9253616000059992,1.4248747000237927,1.36458,-0.13464552345468078,-0.06101125281540224,,,,None,,-0.5,-0.49586776859504134,0.6330398542133775,0.628099173553719,training_double_stim.csv,0.6334161999402568,0.6668115999782458,p13_base_01,001,2023-05-10_15h24.17.119,expectation_shapes_perceived_time,2022.2.4,119.57474437053165,
1,500,0.5,none,60,red,green,no_Expectation,,,,,,0,4,4,8,train_doubleStim,,,,,,red,1.3332282917887628,1.3140495867768596,2.291112900013104,0.9976559000788257,4e-05,4e-05,0.0333,1.3249264999758452,1.3582731999922544,1.9996039000106975,2.03271970001515,2.291112900013104,2.291112900013104,2.4915433999849483,2.833367699990049,0.5422547999769449,4.45827449997887,2.167161599965766,1.6249067999888211,1.45141,-0.14610457302245528,-0.022477626618839276,,,,None,,0.5,0.49586776859504134,1.8665582917887626,1.8429752066115703,training_double_stim.csv,1.858320500003174,1.8915697999764234,p13_base_01,001,2023-05-10_15h24.17.119,expectation_shapes_perceived_time,2022.2.4,119.57474437053165,
1,500,0.5,none,33,green,red,no_Expectation,,,,,,0,5,5,7,train_doubleStim,,,,,,green,1.2444809455348924,1.231404958677686,2.291558500030078,0.9962469000602141,3e-05,3e-05,0.03324,1.241547100013122,1.2749495999887586,1.9999053999781609,2.033321400056593,2.291558500030078,2.291558500030078,2.4915887999814004,2.874969399999827,0.5834108999697492,3.891678199986927,1.6001196999568492,1.0167087999871,1.79014,-0.09055249339585139,0.11684192696238889,,,,None,,0.5,0.49586776859504134,1.7778109455348925,1.7603305785123968,training_double_stim.csv,1.7744406999554485,1.8077829000540078,p13_base_01,001,2023-05-10_15h24.17.119,expectation_shapes_perceived_time,2022.2.4,119.57474437053165,
1,-500,0.5,none,46,red,green,no_Expectation,,,,,,0,6,6,4,train_doubleStim,,,,,,red,0.9392002331318972,0.9256198347107438,2.291952100000344,0.9966418000403792,4e-05,4e-05,0.03329,0.9336747999768704,0.9667282999726012,1.9999077999964356,2.0332767999498174,2.291952100000344,2.291952100000344,2.492185699986294,2.675190699985251,0.3832385999849066,4.133729499997571,1.841777399997227,1.4585388000123203,0.51248,0.147709973746774,-0.005792547990069568,,,,None,,-0.5,-0.49586776859504134,0.40587023313189713,0.4049586776859504,training_double_stim.csv,0.4084094000281766,0.44186300004366785,p13_base_01,001,2023-05-10_15h24.17.119,expectation_shapes_perceived_time,2022.2.4,119.57474437053165,
1,-500,0.5,none,77,green,red,no_Expectation,,,,,,0,7,7,1,train_doubleStim,,,,,,green,1.3222771586394269,1.3057851239669422,2.2914043999044225,0.9962312000570819,4e-05,4e-05,,1.3165246999124065,1.349897199892439,1.9996982999145985,,2.2914043999044225,2.2914043999044225,2.4914397998945788,2.641441599931568,0.35003720002714545,4.616549799917266,2.3251454000128433,1.9751081999856979,1.00612,-0.002842234285298913,-0.14779618283554347,,,,None,,-0.5,-0.49586776859504134,0.7889471586394269,0.7768595041322315,training_double_stim.csv,0.7831518999300897,0.8165502999909222,p13_base_01,001,2023-05-10_15h24.17.119,expectation_shapes_perceived_time,2022.2.4,119.57474437053165,
1,-500,0.5,none,68,red,green,no_Expectation,,,,,,0,8,8,3,train_doubleStim,,,,,,red,0.7925882822666863,0.7851239669421488,2.2920397999696434,0.9962927000597119,3e-05,3e-05,0.0333,0.7914466999936849,0.8247513000387698,2.0000618000049144,2.0334647999843583,2.2920397999696434,2.2920397999696434,2.492077899980359,2.7000492999795824,0.4080095000099391,4.78326970001217,2.4912299000425264,2.0832204000325873,0.72817,0.1114455485306548,-0.09711683514814203,,,,None,,-0.5,-0.49586776859504134,0.2592582822666863,0.25619834710743805,training_double_stim.csv,0.2585361000383273,0.2914003999903798,p13_base_01,001,2023-05-10_15h24.17.119,expectation_shapes_perceived_time,2022.2.4,119.57474437053165,
1,500,0.5,none,88,red,green,no_Expectation,,,,,,0,9,9,9,train_doubleStim,,,,,,red,1.2084499350474283,1.1983471074380165,2.291665499913506,0.9969513000687584,7e-05,7e-05,,1.2083912999369204,1.2416436999337748,1.999850899912417,,2.291665499913506,2.291665499913506,2.491507999948226,2.799825599999167,0.5081601000856608,3.6333425999619067,1.3416771000484005,0.8335169999627396,1.56283,-0.14495287681389743,0.028990575362779485,,,,None,,0.5,0.49586776859504134,1.7417799350474281,1.71900826446281,training_double_stim.csv,1.733304399996996,1.766525899991393,p13_base_01,001,2023-05-10_15h24.17.119,expectation_shapes_perceived_time,2022.2.4,119.57474437053165,
,,,,,,,,,0,0,0,0,0,-1,-1,0,fam,0.5647860000608489,0.5647860000608489,270.0000000000009,2.556643099989742,2.556643099989742,,,,,,,,,,,,,,,,,,,,,,,,,,,,,,,,,,,,p13_base_01,001,2023-05-10_15h24.17.119,expectation_shapes_perceived_time,2022.2.4,119.57474437053165,
,,,,,,,,,1,0,1,0,0,-1,-1,0,fam,0.4993814999470487,0.4993814999470487,270.0000000000009,2.490883699967526,2.490883699967526,,,,,,,,,,,,,,,,,,,,,,,,,,,,,,,,,,,,p13_base_01,001,2023-05-10_15h24.17.119,expectation_shapes_perceived_time,2022.2.4,119.57474437053165,
,,,,,,,,,2,0,2,0,0,-1,-1,0,fam,0.4982235999777913,0.4982235999777913,270.0000000000009,2.489802199997939,2.489802199997939,,,,,,,,,,,,,,,,,,,,,,,,,,,,,,,,,,,,p13_base_01,001,2023-05-10_15h24.17.119,expectation_shapes_perceived_time,2022.2.4,119.57474437053165,
,,,,,,,,,3,0,3,0,0,-1,-1,0,fam,0.4975228999974206,0.4975228999974206,270.0000000000009,2.4892419999232516,2.4892419999232516,,,,,,,,,,,,,,,,,,,,,,,,,,,,,,,,,,,,p13_base_01,001,2023-05-10_15h24.17.119,expectation_shapes_perceived_time,2022.2.4,119.57474437053165,
,167,0.5,none,,red,green,,963.98668149932,,,,,0,0,0,88,trial,,,,,,red,0.96398668149932,0.9504132231404959,2.2915994999930263,0.9976979000493884,4e-05,4e-05,0.03309,0.9580590999685228,0.9916506999870762,1.999635300016962,2.0332271999213845,2.2915994999930263,2.2915994999930263,2.4915100999642164,2.599715600023046,0.3081161000300199,3.7745151999406517,1.4829156999476254,1.1747995999176055,0.98974,0.004766021231040589,-0.14774665816225824,,,,None,,0.167,0.1652892561983471,1.16431668149932,1.1487603305785123,trial_list_0.5_green.csv,1.1582174999639392,1.191453699953854,p13_base_01,001,2023-05-10_15h24.17.119,expectation_shapes_perceived_time,2022.2.4,119.57474437053165,
,300,0.5,none,,green,red,,1133.500122543268,,,,,0,1,1,211,trial,,,,,,green,1.133500122543268,1.1239669421487604,2.2916695000603795,0.996053000097163,4e-05,4e-05,,1.133163999998942,1.166553100105375,1.9994323001010343,,2.2916695000603795,2.2916695000603795,2.491592300008051,2.6581873000832275,0.36651780002284795,4.658020200091414,2.3663507000310346,1.9998329000081867,1.52177,-0.14747798166584017,0.010101231620947955,,,,None,,0.3,0.2975206611570248,1.4668301225432678,1.4462809917355373,trial_list_0.5_green.csv,1.458198800100945,1.4915476000169292,p13_base_01,001,2023-05-10_15h24.17.119,expectation_shapes_perceived_time,2022.2.4,119.57474437053165,
,-167,0.5,none,,green,red,,1482.6068886076157,,,,,0,2,2,159,trial,,,,,,green,1.4826068886076158,1.462809917355372,2.2916442999849096,0.9965459000086412,3e-05,3e-05,,1.4750555000500754,1.5081871000584215,2.000063500017859,,2.2916442999849096,2.2916442999849096,2.4918025999795645,2.975051200017333,0.6834069000324234,4.07499180000741,1.7833475000225008,1.0999405999900773,1.73436,-0.1095352916439285,0.09926635805231021,,,,None,,-0.167,-0.1652892561983471,1.2822768886076157,1.2644628099173554,trial_list_0.5_green.csv,1.2747642999747768,1.3079143000068143,p13_base_01,001,2023-05-10_15h24.17.119,expectation_shapes_perceived_time,2022.2.4,119.57474437053165,
,100,0.5,none,,red,green,,1273.4507679821947,,,,,0,3,3,66,trial,,,,,,red,1.2734507679821947,1.256198347107438,2.2916261999635026,0.9974758999887854,3e-05,3e-05,0.03321,1.2662172999698669,1.2998418000061065,1.999852600041777,2.033368800068274,2.2916261999635026,2.2916261999635026,2.4916224000044167,2.7165982000296935,0.42497200006619096,4.216444900026545,1.9248187000630423,1.4998466999968514,1.518,-0.14758726471273484,0.008353996115815181,,,,None,,0.1,0.09917355371900827,1.4067807679821946,1.3884297520661157,trial_list_0.5_green.csv,1.3999493999872357,1.4332849000347778,p13_base_01,001,2023-05-10_15h24.17.119,expectation_shapes_perceived_time,2022.2.4,119.57474437053165,
,300,0.5,none,,red,green,,362.581726625014,,,,,0,4,4,476,trial,,,,,,red,0.36258172662501403,0.3553719008264463,2.2916662000352517,0.9968540000263602,3e-05,3e-05,,0.35827580001205206,0.39144430006854236,1.999735299963504,,2.2916662000352517,2.2916662000352517,2.4915122999809682,2.649817500030622,0.3581512999953702,3.7997676000231877,1.508101399987936,1.1499500999925658,0.98951,0.004870656453013514,-0.14774324574140993,,,,None,,0.3,0.2975206611570248,0.695911726625014,0.6859504132231405,trial_list_0.5_green.csv,0.6911987999919802,0.7244252000236884,p13_base_01,001,2023-05-10_15h24.17.119,expectation_shapes_perceived_time,2022.2.4,119.57474437053165,
,-300,0.5,none,,green,red,,608.2642701428937,,,,,0,5,5,73,trial,,,,,,green,0.6082642701428936,0.6033057851239669,2.2917918000603095,0.9965079999528825,6e-05,6e-05,,0.6087269000709057,0.6418896000832319,2.0001996000064537,,2.2917918000603095,2.2917918000603095,2.4919494000496343,2.583636000053957,0.29184419999364763,4.033255500020459,1.7414636999601498,1.4496194999665022,0.60655,0.1396188311865346,-0.04856307171705551,,,,None,,-0.3,-0.2975206611570248,0.2749342701428937,0.2727272727272727,trial_list_0.5_green.csv,0.27527990005910397,0.3084127000765875,p13_base_01,001,2023-05-10_15h24.17.119,expectation_shapes_perceived_time,2022.2.4,119.57474437053165,
,-100,0.5,none,,red,green,,636.4160134587902,,,,,0,6,6,274,trial,,,,,,red,0.6364160134587902,0.628099173553719,2.2916845000581816,0.9974616999970749,3e-05,3e-05,0.03346,0.6333786000031978,0.6668193000368774,2.0001452000578865,2.0334747000597417,2.2916845000581816,2.2916845000581816,2.4918859000317752,2.550094100064598,0.25840960000641644,3.8335812999866903,1.5418967999285087,1.2834871999220923,1.0,0.0,-0.14782350948509485,,,,None,,-0.1,-0.09917355371900827,0.5030860134587902,0.49586776859504134,trial_list_0.5_green.csv,0.5000557000748813,0.533367200056091,p13_base_01,001,2023-05-10_15h24.17.119,expectation_shapes_perceived_time,2022.2.4,119.57474437053165,
,33,0.5,none,,red,green,,1240.0542488040312,,,,,0,7,7,58,trial,,,,,,red,1.2400542488040311,1.2231404958677685,2.291472499957308,0.9966303999535739,6e-05,6e-05,0.03325,1.232600299990736,1.2658800999633968,1.9996671999106184,2.033319699927233,2.291472499957308,2.291472499957308,2.491356899961829,2.68303700000979,0.3915645000524819,3.808258599950932,1.5167860999936238,1.125221599941142,1.49104,-0.14776489587871242,-0.0041623914332031674,,,,None,,0.033,0.03305785123966942,1.3063842488040311,1.2892561983471076,trial_list_0.5_green.csv,1.2992980999406427,1.3326248999219388,p13_base_01,001,2023-05-10_15h24.17.119,expectation_shapes_perceived_time,2022.2.4,119.57474437053165,
,100,0.5,none,,green,red,,1050.420933161426,,,,,0,8,8,315,trial,,,,,,green,1.050420933161426,1.0413223140495869,2.2917840000009164,0.99630709993653,4e-05,4e-05,0.03314,1.0500146000413224,1.0835489999735728,2.000239899964072,2.033279399969615,2.2917840000009164,2.2917840000009164,2.4916337999748066,2.6748522999696434,0.38306829996872693,4.141456800047308,1.8496728000463918,1.4666045000776649,1.14316,-0.06426613265653094,-0.13312270335995696,,,,None,,0.1,0.09917355371900827,1.183750933161426,1.1735537190082646,trial_list_0.5_green.csv,1.1834626999916509,1.2164978999644518,p13_base_01,001,2023-05-10_15h24.17.119,expectation_shapes_perceived_time,2022.2.4,119.57474437053165,
,-233,0.5,none,,green,red,,743.5994025027173,,,,,0,9,9,31,trial,,,,,,green,0.7435994025027174,0.7355371900826446,2.2919850000180304,0.9963739999802783,3e-05,3e-05,0.03323,0.7417079999577254,0.7749486999819055,2.0003842000151053,2.0334665999980643,2.2919850000180304,2.2919850000180304,2.4918839000165462,2.550036499975249,0.25805149995721877,4.650008199969307,2.358023199951276,2.0999716999940574,0.79798,0.08764413572728745,-0.11903905001765909,,,,None,,-0.233,-0.23140495867768596,0.4772694025027174,0.47107438016528924,trial_list_0.5_green.csv,0.4748808000003919,0.5082906000316143,p13_base_01,001,2023-05-10_15h24.17.119,expectation_shapes_perceived_time,2022.2.4,119.57474437053165,
,-233,0.5,none,,red,green,,636.2167987088169,,,,,0,10,10,202,trial,,,,,,red,0.6362167987088169,0.628099173553719,2.291857699980028,0.996690799947828,3e-05,3e-05,0.03339,0.6327050999971107,0.6660400999244303,1.999946599942632,2.033216799958609,2.291857699980028,2.291857699980028,2.4916004999540746,2.5415454999310896,0.2496877999510616,4.26644309994299,1.9745853999629617,1.7248976000119,0.53173,0.14708988952502844,-0.014708988952502843,,,,None,,-0.233,-0.23140495867768596,0.3698867987088169,0.36363636363636365,trial_list_0.5_green.csv,0.366619799984619,0.39984410000033677,p13_base_01,001,2023-05-10_15h24.17.119,expectation_shapes_perceived_time,2022.2.4,119.57474437053165,
,300,0.5,none,,red,green,,254.4726689360832,,,,,0,11,11,218,trial,,,,,,red,0.2544726689360832,0.24793388429752067,2.291899299947545,0.9963929000077769,6e-05,6e-05,0.03352,0.24971189990174025,0.28300479997415096,2.000036899931729,2.0336659000022337,2.291899299947545,2.291899299947545,2.4918260999256745,2.666914699948393,0.3750154000008479,4.458546999958344,2.166647700010799,1.791632300009951,0.19519,0.08507145498626252,0.12089101498047831,,,,None,,0.3,0.2975206611570248,0.5878026689360832,0.578512396694215,trial_list_0.5_green.csv,0.5828707999316975,0.6162773999385536,p13_base_01,001,2023-05-10_15h24.17.119,expectation_shapes_perceived_time,2022.2.4,119.57474437053165,
,-233,0.5,none,,green,red,,714.8656642997069,,,,,0,12,12,269,trial,,,,,,green,0.7148656642997069,0.7024793388429752,2.292096799938008,0.9958675999660045,4e-05,4e-05,0.03333,0.7087390999076888,0.7420568999368697,2.00037139991764,2.033665700000711,2.292096799938008,2.292096799938008,2.4922153999796137,2.600480999913998,0.30838419997598976,3.9585063999984413,1.6664096000604331,1.3580254000844434,0.62544,0.13649241910043633,-0.056759223784339854,,,,None,,-0.233,-0.23140495867768596,0.44853566429970687,0.4462809917355372,trial_list_0.5_green.csv,0.45033799996599555,0.48379779991228133,p13_base_01,001,2023-05-10_15h24.17.119,expectation_shapes_perceived_time,2022.2.4,119.57474437053165,
,-100,0.5,none,,green,red,,916.3663673235078,,,,,0,13,13,43,trial,,,,,,green,0.9163663673235078,0.9090909090909092,2.2922866999870166,0.996554399956949,2e-05,2e-05,,0.9172699999762699,0.9505154999205843,2.000493000028655,,2.2922866999870166,2.2922866999870166,2.4923139999154955,2.7256307000061497,0.4333440000191331,3.7171079999534413,1.4248212999664247,0.9914772999472916,0.23864,0.10072967822513043,0.10819113587143636,,,,None,,-0.1,-0.09917355371900827,0.7830363673235078,0.7768595041322315,trial_list_0.5_green.csv,0.7836663000052795,0.8173763999948278,p13_base_01,001,2023-05-10_15h24.17.119,expectation_shapes_perceived_time,2022.2.4,119.57474437053165,
,33,0.5,none,,red,green,,546.2356448396038,,,,,0,14,14,72,trial,,,,,,red,0.5462356448396037,0.5371900826446281,2.291857200092636,0.9965222999453545,4e-05,4e-05,0.03322,0.5414963000221178,0.5748221999965608,1.9999222999904305,2.0331882000900805,2.291857200092636,2.291857200092636,2.492252800031565,2.591730499989353,0.29987329989671707,4.274746700073592,1.9828894999809563,1.6830162000842392,0.67028,0.12717131368211815,-0.07536077847829223,,,,None,,0.033,0.03305785123966942,0.6125656448396039,0.6033057851239669,trial_list_0.5_green.csv,0.6080714000854641,0.6415278000058606,p13_base_01,001,2023-05-10_15h24.17.119,expectation_shapes_perceived_time,2022.2.4,119.57474437053165,
,33,0.5,none,,red,green,,1707.4603680529945,,,,,0,15,15,404,trial,,,,,,red,1.7074603680529945,1.6859504132231407,2.292331900098361,0.9963697000639513,2e-05,2e-05,0.03332,1.700507500092499,1.7341674000490457,2.0006275000050664,2.034035100019537,2.292331900098361,2.292331900098361,2.492173200007528,2.4341130000539124,0.14178109995555133,3.450056300032884,1.1577243999345228,1.0159432999789715,1.64345,-0.13306469963971704,0.06438614498695985,,,,None,,0.033,0.03305785123966942,1.7737903680529943,1.7520661157024793,trial_list_0.5_green.csv,1.767380200093612,1.8007536000804976,p13_base_01,001,2023-05-10_15h24.17.119,expectation_shapes_perceived_time,2022.2.4,119.57474437053165,
,300,0.5,none,,red,green,,389.0619721873292,,,,,0,16,16,130,trial,,,,,,red,0.38906197218732924,0.38842975206611574,2.2917171999579296,0.998849599971436,3e-05,3e-05,0.0335,0.39135509997140616,0.42470770003274083,2.0001910000573844,2.033240200020373,2.2917171999579296,2.2917171999579296,2.4915297999978065,2.6000800000038,0.30836280004587024,4.5250455000204965,2.233328300062567,1.9249655000166968,0.13667,0.061535596436905746,0.1344066974806099,,,,None,,0.3,0.2975206611570248,0.7223919721873293,0.7107438016528926,trial_list_0.5_green.csv,0.7161738000577316,0.7495460000354797,p13_base_01,001,2023-05-10_15h24.17.119,expectation_shapes_perceived_time,2022.2.4,119.57474437053165,
,-167,0.5,none,,green,red,,1618.5142828267778,,,,,0,17,17,343,trial,,,,,,green,1.6185142828267778,1.603305785123967,2.2921028999844566,0.9968556000385433,2e-05,2e-05,0.03334,1.617187700001523,1.650485199992545,2.0007905999664217,2.0337904000189155,2.2921028999844566,2.2921028999844566,2.492219000007026,2.6586529000196606,0.366550000035204,3.7840482000028715,1.4919453000184149,1.1253952999832109,0.56917,0.14434736984027524,-0.03186889983486597,,,,None,,-0.167,-0.1652892561983471,1.4181842828267779,1.4049586776859504,trial_list_0.5_green.csv,1.4173755999654531,1.450463299988769,p13_base_01,001,2023-05-10_15h24.17.119,expectation_shapes_perceived_time,2022.2.4,119.57474437053165,
,-100,0.5,none,,red,green,,269.3802445349048,,,,,0,18,18,498,trial,,,,,,red,0.26938024453490483,0.2644628099173554,2.2919743999373168,0.9959614999825135,3e-05,3e-05,,0.26635629998054355,0.29972100001759827,2.000324000022374,,2.2919743999373168,2.2919743999373168,2.492020000005141,2.2919743999373168,0.0,4.350439099944197,2.05846470000688,2.05846470000688,0.08568,0.03931055777681295,0.14250077194094696,,,,None,,-0.1,-0.09917355371900827,0.13605024453490483,0.1322314049586777,trial_list_0.5_green.csv,0.13312100002076477,0.1666877999668941,p13_base_01,001,2023-05-10_15h24.17.119,expectation_shapes_perceived_time,2022.2.4,119.57474437053165,
,300,0.5,none,,green,red,,756.7626427635706,,,,,0,19,19,119,trial,,,,,,green,0.7567626427635706,0.743801652892562,2.2922046999447048,0.9960782999405637,1e-05,1e-05,,0.7507149999728426,0.7838382999179885,2.000541999936104,,2.2922046999447048,2.2922046999447048,2.492028299951926,2.516853699926287,0.22464899998158216,4.150571099948138,1.8583664000034332,1.633717400021851,1.83711,-0.07238829647138043,0.12888647908318956,,,,None,,0.3,0.2975206611570248,1.0900926427635704,1.0743801652892562,trial_list_0.5_green.csv,1.0838550999760628,1.1169437998905778,p13_base_01,001,2023-05-10_15h24.17.119,expectation_shapes_perceived_time,2022.2.4,119.57474437053165,
,167,0.5,none,,green,red,,616.2976003768565,,,,,0,20,20,279,trial,,,,,,green,0.6162976003768565,0.6115702479338843,2.2920344000449404,0.9956504999427125,2e-05,2e-05,,0.6171925000380725,0.6504715000046417,2.0003041999880224,,2.2920344000449404,2.2920344000449404,2.491917100036517,2.4423300999915227,0.15029569994658232,3.3837618000106886,1.0917273999657482,0.9414317000191659,0.71417,0.1156067875207053,-0.09212415880556205,,,,None,,0.167,0.1652892561983471,0.8166276003768566,0.8099173553719008,trial_list_0.5_green.csv,0.8172692999942228,0.8504524999298155,p13_base_01,001,2023-05-10_15h24.17.119,expectation_shapes_perceived_time,2022.2.4,119.57474437053165,
,-167,0.5,none,,red,green,,816.4080945386564,,,,,0,21,21,108,trial,,,,,,red,0.8164080945386565,0.8099173553719008,2.291748399962671,0.9962778999470174,4e-05,4e-05,0.03358,0.8162871999666095,0.8496470999671146,2.000099499942735,2.0336562000447884,2.291748399962671,2.291748399962671,2.49185720004607,2.4500106000341475,0.1582622000714764,4.224952299962752,1.9332039000000805,1.774941699928604,1.17066,-0.0755121794486718,-0.12708147273069156,,,,None,,-0.167,-0.1652892561983471,0.6160780945386564,0.6115702479338843,trial_list_0.5_green.csv,0.6162440000334755,0.6495379999978468,p13_base_01,001,2023-05-10_15h24.17.119,expectation_shapes_perceived_time,2022.2.4,119.57474437053165,
,167,0.5,none,,green,red,,433.9478798429844,,,,,0,22,22,171,trial,,,,,,green,0.4339478798429844,0.4297520661157025,2.291543500032276,0.9966492999810725,7e-05,7e-05,,0.4327580000972375,0.46634799998719245,1.9998849000548944,,2.291543500032276,2.291543500032276,2.491461700061336,2.499805700033903,0.2082622000016272,3.349972900003195,1.058429399970919,0.8501671999692917,0.57631,0.14359561025068807,-0.03510114917239042,,,,None,,0.167,0.1652892561983471,0.6342778798429843,0.628099173553719,trial_list_0.5_green.csv,0.633263900061138,0.6666775000048801,p13_base_01,001,2023-05-10_15h24.17.119,expectation_shapes_perceived_time,2022.2.4,119.57474437053165,
,100,0.5,none,,green,red,,238.94186292510253,,,,,0,23,23,331,trial,,,,,,green,0.23894186292510253,0.2396694214876033,2.2915809999685735,0.9966476999688894,4e-05,4e-05,,0.2415472000138834,0.2750434000045061,2.000285799964331,,2.2915809999685735,2.2915809999685735,2.49161159992218,2.5581244999775663,0.26654350000899285,3.308383799972944,1.0168028000043705,0.7502592999953777,0.21074,0.09087351184525386,0.11659243029202382,,,,None,,0.1,0.09917355371900827,0.37227186292510256,0.371900826446281,trial_list_0.5_green.csv,0.3748185000149533,0.4085642999270931,p13_base_01,001,2023-05-10_15h24.17.119,expectation_shapes_perceived_time,2022.2.4,119.57474437053165,
,233,0.5,none,,green,red,,839.6081220303297,,,,,0,24,24,253,trial,,,,,,green,0.8396081220303298,0.8264462809917356,2.2925082999281585,0.9969372999621555,2e-05,2e-05,0.03327,0.8337411999236792,0.8668528000125661,2.0001749999355525,2.033502099919133,2.2925082999281585,2.2925082999281585,2.4920777999795973,2.6252087999600917,0.3327005000319332,4.81671079993248,2.5242025000043213,2.191501999972388,0.4304,0.14430339715032942,0.03206742158896209,,,,None,,0.233,0.23140495867768596,1.1059381220303297,1.0909090909090908,trial_list_0.5_green.csv,1.1002236999338493,1.133622599998489,p13_base_01,001,2023-05-10_15h24.17.119,expectation_shapes_perceived_time,2022.2.4,119.57474437053165,
,-233,0.5,none,,red,green,,798.85188012397,0,0,0,0,0,25,25,362,fam,0.5566768000135198,0.5566768000135198,270.0000000000009,2.548041999922134,2.548041999922134,,,,,,,,,,,,,,,,,,,,,,,,,,,,,,,,,,,,p13_base_01,001,2023-05-10_15h24.17.119,expectation_shapes_perceived_time,2022.2.4,119.57474437053165,
,-233,0.5,none,,red,green,,798.85188012397,1,0,1,0,0,25,25,362,fam,0.4979637999786064,0.4979637999786064,270.0000000000009,2.489599799970165,2.489599799970165,,,,,,,,,,,,,,,,,,,,,,,,,,,,,,,,,,,,p13_base_01,001,2023-05-10_15h24.17.119,expectation_shapes_perceived_time,2022.2.4,119.57474437053165,
,-233,0.5,none,,red,green,,798.85188012397,2,0,2,0,0,25,25,362,fam,0.4975747999269515,0.4975747999269515,270.0000000000009,2.4892403999110684,2.4892403999110684,,,,,,,,,,,,,,,,,,,,,,,,,,,,,,,,,,,,p13_base_01,001,2023-05-10_15h24.17.119,expectation_shapes_perceived_time,2022.2.4,119.57474437053165,
,-233,0.5,none,,red,green,,798.85188012397,3,0,3,0,0,25,25,362,fam,0.4973783999448642,0.4973783999448642,270.0000000000009,2.489276499953121,2.489276499953121,,,,,,,,,,,,,,,,,,,,,,,,,,,,,,,,,,,,p13_base_01,001,2023-05-10_15h24.17.119,expectation_shapes_perceived_time,2022.2.4,119.57474437053165,
,-233,0.5,none,,red,green,,798.85188012397,,,,,0,25,25,362,trial,,,,,,red,0.79885188012397,0.7933884297520661,2.291422300040722,0.9990539000136778,5e-05,5e-05,,0.7993507999926805,0.8327027000486851,1.9996969000203535,,2.291422300040722,2.291422300040722,2.491145099978894,2.408046399941668,0.11662409990094602,3.807806900003925,1.516384599963203,1.399760500062257,0.48233,0.14759591349255144,0.008199772971808413,,,,None,,-0.233,-0.23140495867768596,0.53252188012397,0.5289256198347108,trial_list_0.5_green.csv,0.5323426999384537,0.5656377000268549,p13_base_01,001,2023-05-10_15h24.17.119,expectation_shapes_perceived_time,2022.2.4,119.57474437053165,
,-100,0.5,none,,red,green,,710.0725886348112,,,,,0,26,26,360,trial,,,,,,red,0.7100725886348112,0.7024793388429752,2.291559400036931,0.9957835000241175,6e-05,6e-05,0.03336,0.7077914000255987,0.7411612999858335,2.000247100018896,2.0332857000175864,2.291559400036931,2.291559400036931,2.491929900017567,2.7415819000452757,0.45002250000834465,3.9917276999913156,1.7001682999543846,1.25014579994604,0.63607,0.13452233239522982,-0.06128239586893802,,,,None,,-0.1,-0.09917355371900827,0.5767425886348111,0.5702479338842975,trial_list_0.5_green.csv,0.5744355999631807,0.6077559000113979,p13_base_01,001,2023-05-10_15h24.17.119,expectation_shapes_perceived_time,2022.2.4,119.57474437053165,
,-233,0.5,none,,green,red,,876.9912217733349,,,,,0,27,27,95,trial,,,,,,green,0.8769912217733349,0.8677685950413223,2.2917938999598846,0.9966498999856412,4e-05,4e-05,,0.875175999943167,0.9084777999669313,2.000051800045185,,2.2917938999598846,2.2917938999598846,2.491671900032088,2.591740599949844,0.2999466999899596,4.991846499964595,2.7000526000047103,2.4001059000147507,0.86037,0.06278363219702668,-0.1338282686305042,,,,None,,-0.233,-0.23140495867768596,0.6106612217733349,0.6033057851239669,trial_list_0.5_green.csv,0.6078915999969468,0.6412265000399202,p13_base_01,001,2023-05-10_15h24.17.119,expectation_shapes_perceived_time,2022.2.4,119.57474437053165,
,300,0.5,none,,red,green,,1455.8110551853456,,,,,0,28,28,238,trial,,,,,,red,1.4558110551853456,1.43801652892562,2.292143899947405,0.9961540999356657,3e-05,3e-05,,1.4502144999569282,1.4835213999031112,2.0001237998949364,,2.292143899947405,2.292143899947405,2.4919602998998016,2.441822599968873,0.1496787000214681,3.5417422999162227,1.2495983999688178,1.0999196999473497,1.59834,-0.14082542794564792,0.04494428551456848,,,,None,,0.3,0.2975206611570248,1.7891410551853455,1.7685950413223142,trial_list_0.5_green.csv,1.7834488999797031,1.816908499924466,p13_base_01,001,2023-05-10_15h24.17.119,expectation_shapes_perceived_time,2022.2.4,119.57474437053165,
,33,0.5,none,,red,green,,610.2178752567263,,,,,0,29,29,132,trial,,,,,,red,0.6102178752567263,0.6033057851239669,2.2920541999628767,0.996592800016515,5e-05,5e-05,0.03307,0.6086694999830797,0.6417695999844,2.000380599987693,2.033521999954246,2.2920541999628767,2.2920541999628767,2.4919326999224722,2.2920541999628767,0.0,3.5747792000183836,1.2827250000555068,1.2827250000555068,0.99602,0.00184764952658256,-0.1478119621266048,,,,None,,0.033,0.03305785123966942,0.6765478752567263,0.6694214876033058,trial_list_0.5_green.csv,0.6751548999454826,0.70850009995047,p13_base_01,001,2023-05-10_15h24.17.119,expectation_shapes_perceived_time,2022.2.4,119.57474437053165,
,-167,0.5,none,,red,green,,366.5571130524975,,,,,0,30,30,28,trial,,,,,,red,0.36655711305249755,0.36363636363636365,2.291688200086355,0.9973341999575496,3e-05,3e-05,0.03305,0.36632630007807165,0.3994829000439495,1.9996124000754207,2.033140200073831,2.291688200086355,2.291688200086355,2.4917617000173777,2.649996100110002,0.35830790002364665,3.7079710999969393,1.416282899910584,1.0579749998869374,0.40831,0.1417329019082393,0.041994933898737576,,,,None,,-0.167,-0.1652892561983471,0.16622711305249754,0.1652892561983471,trial_list_0.5_green.csv,0.16651180002372712,0.1999364000512287,p13_base_01,001,2023-05-10_15h24.17.119,expectation_shapes_perceived_time,2022.2.4,119.57474437053165,
,233,0.5,none,,red,green,,457.2492750520218,,,,,0,31,31,368,trial,,,,,,red,0.4572492750520218,0.4545454545454546,2.291520999977365,0.9968841000227258,3e-05,3e-05,0.03315,0.4582739999750629,0.4915565999690443,1.9999103000154719,2.0334498999873176,2.291520999977365,2.291520999977365,2.4917850999627262,2.5332637999672443,0.24174279998987913,4.099913400015794,1.8083924000384286,1.5666496000485495,0.88988,0.050127956587244185,-0.1390646537581613,,,,None,,0.233,0.23140495867768596,0.7235792750520219,0.71900826446281,trial_list_0.5_green.csv,0.7245960000436753,0.7577813999960199,p13_base_01,001,2023-05-10_15h24.17.119,expectation_shapes_perceived_time,2022.2.4,119.57474437053165,
,-33,0.5,none,,green,red,,1364.3060652748593,,,,,0,32,32,359,trial,,,,,,green,1.3643060652748593,1.3471074380165289,2.2917630000738427,0.9960895999101922,4e-05,4e-05,0.03334,1.3581645999802276,1.3915404999861494,2.000009300070815,2.0332635999657214,2.2917630000738427,2.2917630000738427,2.4915311000077054,2.7167768999934196,0.42501389991957694,3.3665709000779316,1.0748079000040889,0.6497940000845119,1.26645,-0.1097868122719829,-0.09898810942555834,,,,None,,-0.033,-0.03305785123966942,1.2979760652748593,1.28099173553719,trial_list_0.5_green.csv,1.2917597000487149,1.3251736999955028,p13_base_01,001,2023-05-10_15h24.17.119,expectation_shapes_perceived_time,2022.2.4,119.57474437053165,
,233,0.5,none,,red,green,,833.6463214316756,,,,,0,33,33,334,trial,,,,,,red,0.8336463214316756,0.8264462809917356,2.291656499961391,0.9974207000341266,4e-05,4e-05,0.03348,0.8333214999875054,0.8666715999133885,2.0002257999731228,2.0336276999441907,2.291656499961391,2.291656499961391,2.491971099982038,3.1916706999763846,0.9000142000149935,5.766528999898583,3.4748724999371916,2.574858299922198,1.33859,-0.1292209963982168,-0.07178944244345378,,,,None,,0.233,0.23140495867768596,1.0999763214316753,1.0909090909090908,trial_list_0.5_green.csv,1.0999569999985397,1.1334527999861166,p13_base_01,001,2023-05-10_15h24.17.119,expectation_shapes_perceived_time,2022.2.4,119.57474437053165,
,-33,0.5,none,,green,red,,716.3338535359721,,,,,0,34,34,491,trial,,,,,,green,0.7163338535359721,0.7107438016528926,2.2920139000052586,0.9974063000408933,3e-05,3e-05,,0.7166991999838501,0.7503163999645039,2.0002104999730363,,2.2920139000052586,2.2920139000052586,2.491925199981779,2.516767999972217,0.22475409996695817,5.799833199940622,3.5078192999353632,3.283065199968405,0.57877,0.1433206862897426,-0.036207331273198126,,,,None,,-0.033,-0.03305785123966942,0.6500038535359721,0.6446280991735538,trial_list_0.5_green.csv,0.6501284999540076,0.6836779000004753,p13_base_01,001,2023-05-10_15h24.17.119,expectation_shapes_perceived_time,2022.2.4,119.57474437053165,
,-233,0.5,none,,green,red,,1289.1190254707467,,,,,0,35,35,489,trial,,,,,,green,1.2891190254707467,1.2727272727272727,2.291908400016837,0.9976971000432968,4e-05,4e-05,,1.2834610999561846,1.3169067000271752,2.0004651999333873,,2.291908400016837,2.291908400016837,2.4919770000269637,2.7331314999610186,0.44122309994418174,4.733399500022642,2.4414911000058055,2.0002680000616238,0.98646,0.006284674616244259,-0.1476898534817401,,,,None,,-0.233,-0.23140495867768596,1.0227890254707466,1.0082644628099173,trial_list_0.5_green.csv,1.0167852999875322,1.0504223000025377,p13_base_01,001,2023-05-10_15h24.17.119,expectation_shapes_perceived_time,2022.2.4,119.57474437053165,
,233,0.5,none,,green,red,,1445.092356811824,,,,,0,36,36,275,trial,,,,,,green,1.445092356811824,1.4297520661157026,2.291062399977818,0.9975196999730542,4e-05,4e-05,0.03322,1.4414850999601185,1.4751293000299484,1.9994408000493422,2.0326808999525383,2.291062399977818,2.291062399977818,2.491320100030862,2.7747359999921173,0.48367360001429915,4.008347800001502,1.717285400023684,1.2336118000093848,0.91097,0.04080982999962306,-0.1420786674060951,,,,None,,0.233,0.23140495867768596,1.7114223568118239,1.694214876033058,trial_list_0.5_green.csv,1.708253400051035,1.741531900013797,p13_base_01,001,2023-05-10_15h24.17.119,expectation_shapes_perceived_time,2022.2.4,119.57474437053165,
,-233,0.5,none,,red,green,,984.0166811829276,,,,,0,37,37,444,trial,,,,,,red,0.9840166811829276,0.975206611570248,2.2912525000283495,0.9971504000714049,3e-05,3e-05,,0.9833857000339776,1.016825299942866,1.9998186000157148,,2.2912525000283495,2.2912525000283495,2.491844999953173,2.700092599960044,0.40884009993169457,3.4585069000022486,1.1672543999738991,0.7584143000422046,1.17429,-0.07695801651879719,-0.1262111470908274,,,,None,,-0.233,-0.23140495867768596,0.7176866811829276,0.7107438016528926,trial_list_0.5_green.csv,0.7166152000427246,0.7498324000043795,p13_base_01,001,2023-05-10_15h24.17.119,expectation_shapes_perceived_time,2022.2.4,119.57474437053165,
,-100,0.5,none,,green,red,,639.9111960172876,,,,,0,38,38,293,trial,,,,,,green,0.6399111960172876,0.6363636363636364,2.2916464000009,0.9965629000216722,4e-05,4e-05,,0.6417915000347421,0.6750198000809178,1.9999500000849366,,2.2916464000009,2.2916464000009,2.4910567000042647,2.5411014000419527,0.2494550000410527,3.6415948000503704,1.3499484000494704,1.1004934000084177,0.82163,0.07856687538466292,-0.12521595764430654,,,,None,,-0.1,-0.09917355371900827,0.5065811960172876,0.5041322314049587,trial_list_0.5_green.csv,0.5081470999866724,0.5414761999854818,p13_base_01,001,2023-05-10_15h24.17.119,expectation_shapes_perceived_time,2022.2.4,119.57474437053165,
,100,0.5,none,,green,red,,452.26077636665656,,,,,0,39,39,391,trial,,,,,,green,0.45226077636665657,0.4462809917355372,2.2916360999224707,0.9964925000676885,3e-05,3e-05,,0.44967310002539307,0.48295560001861304,1.9997078999876976,,2.2916360999224707,2.2916360999224707,2.4915192000335082,2.499682000023313,0.20804590010084212,4.2330172000220045,1.9413811000995338,1.7333351999986917,0.22829,0.09715890299448904,0.11140887543368075,,,,None,,0.1,0.09917355371900827,0.5855907763666566,0.578512396694215,trial_list_0.5_green.csv,0.5829928999301046,0.6163840999361128,p13_base_01,001,2023-05-10_15h24.17.119,expectation_shapes_perceived_time,2022.2.4,119.57474437053165,
,-33,0.5,none,,green,red,,372.74245772426207,,,,,0,40,40,387,trial,,,,,,green,0.37274245772426207,0.371900826446281,2.291810299968347,0.9971412000013515,4e-05,4e-05,0.03323,0.37493589997757226,0.4085205999435857,1.9999805999686942,2.03327110002283,2.291810299968347,2.291810299968347,2.49170450004749,2.291810299968347,0.0,3.7833686999510974,1.4915583999827504,1.4915583999827504,0.18377,0.08068188050329167,0.12386373204026466,,,,None,,-0.033,-0.03305785123966942,0.30641245772426207,0.30578512396694213,trial_list_0.5_green.csv,0.3084010999882594,0.34159419999923557,p13_base_01,001,2023-05-10_15h24.17.119,expectation_shapes_perceived_time,2022.2.4,119.57474437053165,
,100,0.5,none,,green,red,,1168.1875265062672,,,,,0,41,41,217,trial,,,,,,green,1.1681875265062671,1.15702479338843,2.291479100007564,0.9971593999071047,4e-05,4e-05,0.03346,1.1676961000775918,1.1998523999936879,1.9998869000701234,2.0334656999912113,2.291479100007564,2.291479100007564,2.4915753999957815,2.6082510000560433,0.31677190004847944,3.6000980000244454,1.3086189000168815,0.9918469999684021,1.3867,-0.13855692054302454,-0.05151475250958606,,,,None,,0.1,0.09917355371900827,1.301517526506267,1.2892561983471076,trial_list_0.5_green.csv,1.2999980000313371,1.3331741000292823,p13_base_01,001,2023-05-10_15h24.17.119,expectation_shapes_perceived_time,2022.2.4,119.57474437053165,
,167,0.5,none,,red,green,,1571.706662699831,,,,,0,42,42,352,trial,,,,,,red,1.571706662699831,1.553719008264463,2.2918425999814644,0.9961357000283897,3e-05,3e-05,0.0333,1.5668342999415472,1.6001932999351993,2.000342099927366,2.033503199927509,2.2918425999814644,2.2918425999814644,2.49197329999879,2.5753205999499187,0.28347799996845424,4.108767200028524,1.8169246000470594,1.5334466000786051,1.71378,-0.11571968082459232,0.09198231039903493,,,,None,,0.167,0.1652892561983471,1.772036662699831,1.7520661157024793,trial_list_0.5_green.csv,1.766780599951744,1.8003075999440625,p13_base_01,001,2023-05-10_15h24.17.119,expectation_shapes_perceived_time,2022.2.4,119.57474437053165,
,167,0.5,none,,green,red,,1150.6717406571163,,,,,0,43,43,57,trial,,,,,,green,1.1506717406571163,1.140495867768595,2.2915977999800816,0.9964198999805376,7e-05,7e-05,0.03341,1.1496954000322148,1.1831916000228375,2.000120099983178,2.033115900005214,2.2915977999800816,2.2915977999800816,2.4913756999885663,2.891465099994093,0.5998673000140116,4.141459499951452,1.8498616999713704,1.2499943999573588,1.36074,-0.13389994559626398,-0.06263061971438152,,,,None,,0.167,0.1652892561983471,1.3510017406571162,1.3388429752066116,trial_list_0.5_green.csv,1.349821800016798,1.3832135000266135,p13_base_01,001,2023-05-10_15h24.17.119,expectation_shapes_perceived_time,2022.2.4,119.57474437053165,
,100,0.5,none,,red,green,,1680.6362258149536,,,,,0,44,44,64,trial,,,,,,red,1.6806362258149536,1.6611570247933884,2.291655500070192,0.9963662000373006,4e-05,4e-05,0.03338,1.6749261000659317,1.7084232000634074,2.0000931000104174,2.0333885001018643,2.291655500070192,2.291655500070192,2.4916136000538245,2.7332108000991866,0.4415553000289947,3.7999014001106843,1.5082459000404924,1.0666906000114977,1.71827,-0.1144090841598405,0.09360743249441497,,,,None,,0.1,0.09917355371900827,1.8139662258149536,1.7933884297520661,trial_list_0.5_green.csv,1.8083400001050904,1.8419707000721246,p13_base_01,001,2023-05-10_15h24.17.119,expectation_shapes_perceived_time,2022.2.4,119.57474437053165,
,33,0.5,none,,red,green,,447.78213318721953,,,,,0,45,45,272,trial,,,,,,red,0.44778213318721954,0.4462809917355372,2.291913800057955,0.9967309999046847,4e-05,4e-05,0.03338,0.4500309000723064,0.48347239999566227,1.999874999979511,2.0332918000640348,2.291913800057955,2.291913800057955,2.491758599993773,2.5498692999826744,0.25795549992471933,3.6746063999598846,1.3826925999019295,1.1247370999772102,0.15967,0.07107836406347905,0.12961348740987358,,,,None,,0.033,0.03305785123966942,0.5141121331872196,0.5041322314049587,trial_list_0.5_green.csv,0.508498499984853,0.5418176000239328,p13_base_01,001,2023-05-10_15h24.17.119,expectation_shapes_perceived_time,2022.2.4,119.57474437053165,
,-300,0.5,none,,green,red,,893.671182068906,,,,,0,46,46,319,trial,,,,,,green,0.893671182068906,0.8842975206611571,2.291474499972537,0.9969191999407485,4e-05,4e-05,0.03314,0.8913141000084579,0.9247813000110909,1.9998218000400811,2.033152800053358,2.291474499972537,2.291474499972537,2.4914741000393406,2.522012999979779,0.23053850000724196,4.466601900057867,2.17512740008533,1.944588900078088,0.78982,0.09066884415029586,-0.11675166233051795,,,,None,,-0.3,-0.2975206611570248,0.5603411820689059,0.5537190082644629,trial_list_0.5_green.csv,0.5581362000666559,0.5913784999866039,p13_base_01,001,2023-05-10_15h24.17.119,expectation_shapes_perceived_time,2022.2.4,119.57474437053165,
,167,0.5,none,,green,red,,393.34261111828096,,,,,0,47,47,295,trial,,,,,,green,0.39334261111828095,0.38842975206611574,2.2915170000633225,0.9967619000235572,4e-05,4e-05,,0.39169670001138,0.4247987000271678,1.9999213999835774,,2.2915170000633225,2.2915170000633225,2.49127540003974,2.5830501000164077,0.2915330999530852,3.641266299993731,1.3497492999304086,1.0582161999773234,1.39406,-0.13971165185600526,-0.04829538582676724,,,,None,,0.167,0.1652892561983471,0.593672611118281,0.5867768595041323,trial_list_0.5_green.csv,0.5915854000486434,0.6246571000665426,p13_base_01,001,2023-05-10_15h24.17.119,expectation_shapes_perceived_time,2022.2.4,119.57474437053165,
,300,0.5,none,,green,red,,1494.2085016799167,,,,,0,48,48,89,trial,,,,,,green,1.4942085016799167,1.4793388429752066,2.291585800005123,0.9975721000228077,6e-05,6e-05,,1.4918605000711977,1.5249214000068605,2.00023320002947,,2.291585800005123,2.291585800005123,2.491476600058377,2.50807680003345,0.2164910000283271,5.6331265000626445,3.3415407000575215,3.1250497000291944,1.15399,-0.0687568426428792,-0.13085979728806046,,,,None,,0.3,0.2975206611570248,1.8275385016799166,1.8099173553719008,trial_list_0.5_green.csv,1.8249888999853283,1.8582690000766888,p13_base_01,001,2023-05-10_15h24.17.119,expectation_shapes_perceived_time,2022.2.4,119.57474437053165,
,167,0.5,none,,green,red,,411.3095503922232,,,,,0,49,49,379,trial,,,,,,green,0.41130955039222317,0.4049586776859504,2.2912805000087246,0.9975570999085903,3e-05,3e-05,0.03309,0.40817189996596426,0.4417384999105707,1.9993655999423936,2.0327227999223396,2.2912805000087246,2.2912805000087246,2.4916464999550954,2.7080755999777466,0.416795099969022,3.65819059999194,1.3669100999832153,0.9501150000141934,0.84431,0.06945474014760783,-0.13049072391368743,,,,None,,0.167,0.1652892561983471,0.6116395503922232,0.6033057851239669,trial_list_0.5_green.csv,0.6083376000169665,0.6415002999128774,p13_base_01,001,2023-05-10_15h24.17.119,expectation_shapes_perceived_time,2022.2.4,119.57474437053165,
,300,0.5,none,,green,red,,864.4476833527744,0,0,0,0,0,50,50,85,fam,0.5561332000652328,0.5561332000652328,270.0000000000009,2.5479370000539348,2.5479370000539348,,,,,,,,,,,,,,,,,,,,,,,,,,,,,,,,,,,,p13_base_01,001,2023-05-10_15h24.17.119,expectation_shapes_perceived_time,2022.2.4,119.57474437053165,
,300,0.5,none,,green,red,,864.4476833527744,1,0,1,0,0,50,50,85,fam,0.4975472000660375,0.4975472000660375,270.0000000000009,2.489190199994482,2.489190199994482,,,,,,,,,,,,,,,,,,,,,,,,,,,,,,,,,,,,p13_base_01,001,2023-05-10_15h24.17.119,expectation_shapes_perceived_time,2022.2.4,119.57474437053165,
,300,0.5,none,,green,red,,864.4476833527744,2,0,2,0,0,50,50,85,fam,0.497107999981381,0.497107999981381,270.0000000000009,2.4888294000411406,2.4888294000411406,,,,,,,,,,,,,,,,,,,,,,,,,,,,,,,,,,,,p13_base_01,001,2023-05-10_15h24.17.119,expectation_shapes_perceived_time,2022.2.4,119.57474437053165,
,300,0.5,none,,green,red,,864.4476833527744,3,0,3,0,0,50,50,85,fam,0.49744409997947514,0.49744409997947514,270.0000000000009,2.4892928999615833,2.4892928999615833,,,,,,,,,,,,,,,,,,,,,,,,,,,,,,,,,,,,p13_base_01,001,2023-05-10_15h24.17.119,expectation_shapes_perceived_time,2022.2.4,119.57474437053165,
,300,0.5,none,,green,red,,864.4476833527744,,,,,0,50,50,85,trial,,,,,,green,0.8644476833527744,0.8512396694214877,2.2916607999941334,0.9988445999333635,4e-05,4e-05,0.03298,0.858293000026606,0.8915136000141501,2.000008200062439,2.033099799999036,2.2916607999941334,2.2916607999941334,2.4914523999905214,2.374947000062093,0.08328620006795973,3.291469100047834,0.9998083000537008,0.9165220999857411,0.9416,0.026970726938092902,-0.14534225072194512,,,,None,,0.3,0.2975206611570248,1.1977776833527745,1.1818181818181819,trial_list_0.5_green.csv,1.1915421000448987,1.2249517000745982,p13_base_01,001,2023-05-10_15h24.17.119,expectation_shapes_perceived_time,2022.2.4,119.57474437053165,
,233,0.5,none,,green,red,,1482.0130268479816,,,,,0,51,51,227,trial,,,,,,green,1.4820130268479816,1.462809917355372,2.291899799951352,0.9954894999973476,4e-05,4e-05,0.03362,1.4752591999713331,1.5086358999833465,2.00002279994078,2.0333644999191165,2.291899799951352,2.291899799951352,2.4915179000236094,2.349992699921131,0.058092899969778955,3.709792400011793,1.4178926000604406,1.3597997000906616,1.82996,-0.07526251630464345,0.12722949184832583,,,,None,,0.233,0.23140495867768596,1.7483430268479816,1.7272727272727273,trial_list_0.5_green.csv,1.7416317999595776,1.7750192999374121,p13_base_01,001,2023-05-10_15h24.17.119,expectation_shapes_perceived_time,2022.2.4,119.57474437053165,
,100,0.5,none,,red,green,,1338.1415882357237,,,,,0,52,52,480,trial,,,,,,red,1.3381415882357237,1.322314049586777,2.2918854999588802,0.9960138999158517,3e-05,3e-05,0.03335,1.3337812999961898,1.367086699930951,2.000329199945554,2.0335672999499366,2.2918854999588802,2.2918854999588802,2.4918192999903113,2.4750320999883115,0.18314660002943128,3.9667401999467984,1.6748546999879181,1.4917080999584869,1.07,-0.03224710193518399,-0.14426335076266522,,,,None,,0.1,0.09917355371900827,1.4714715882357237,1.4545454545454546,trial_list_0.5_green.csv,1.4671251999679953,1.500378099968657,p13_base_01,001,2023-05-10_15h24.17.119,expectation_shapes_perceived_time,2022.2.4,119.57474437053165,
,-100,0.5,none,,red,green,,1726.6397685290929,,,,,0,53,53,380,trial,,,,,,red,1.7266397685290928,1.7024793388429753,2.29198809992522,0.9962852000026032,3e-05,3e-05,,1.7167046000249684,1.7501342999748886,2.0001284999307245,,2.29198809992522,2.29198809992522,2.4920528000220656,2.7168274000287056,0.4248393001034856,4.183300799923018,1.8913126999977976,1.466473399894312,1.63256,-0.13518982317556627,0.059795498712269704,,,,None,,-0.1,-0.09917355371900827,1.593309768529093,1.578512396694215,trial_list_0.5_green.csv,1.5919801000272855,1.6253215000033379,p13_base_01,001,2023-05-10_15h24.17.119,expectation_shapes_perceived_time,2022.2.4,119.57474437053165,
,-33,0.5,none,,green,red,,1581.4037325777458,,,,,0,54,54,407,trial,,,,,,green,1.581403732577746,1.5619834710743803,2.2917252000188455,0.9963934000115842,4e-05,4e-05,0.03306,1.5749609000049531,1.6081697000190616,1.9999914000509307,2.033095500082709,2.2917252000188455,2.2917252000188455,2.4914938000729308,2.6498223000671715,0.35809710004832596,3.8997120000422,1.6079868000233546,1.2498896999750286,1.87532,-0.05643312580790553,0.1366275677454555,,,,None,,-0.033,-0.03305785123966942,1.515073732577746,1.4958677685950414,trial_list_0.5_green.csv,1.5083603000966832,1.5416766999987885,p13_base_01,001,2023-05-10_15h24.17.119,expectation_shapes_perceived_time,2022.2.4,119.57474437053165,
,-167,0.5,none,,green,red,,695.0497175528234,,,,,0,55,55,157,trial,,,,,,green,0.6950497175528234,0.6859504132231405,2.29192830005195,0.9964319999562576,3e-05,3e-05,0.03329,0.6917283999500796,0.7249782000435516,2.0000588999828324,2.0334861000301316,2.29192830005195,2.29192830005195,2.491743199992925,2.5751376999542117,0.2832093999022618,3.5498771000420675,1.2579487999901175,0.9747394000878558,0.41809,0.1429563520318385,0.03762009263995751,,,,None,,-0.167,-0.1652892561983471,0.4947197175528234,0.487603305785124,trial_list_0.5_green.csv,0.4919198000570759,0.5251953999977559,p13_base_01,001,2023-05-10_15h24.17.119,expectation_shapes_perceived_time,2022.2.4,119.57474437053165,
,33,0.5,none,,red,green,,269.9137079487409,,,,,0,56,56,430,trial,,,,,,red,0.2699137079487409,0.2644628099173554,2.2917679999955,0.9962190999649465,2e-05,2e-05,0.03321,0.26654650003183633,0.29981220001354814,2.0003569000400603,2.0336057000095025,2.2917679999955,2.2917679999955,2.4919790000421926,2.5585261000087485,0.2667581000132486,3.6004293999867514,1.3086613999912515,1.041903299978003,0.34641,0.13094672635768217,0.06859114237783352,,,,None,,0.033,0.03305785123966942,0.3362437079487409,0.3305785123966942,trial_list_0.5_green.csv,0.3331395999994129,0.3664949999656528,p13_base_01,001,2023-05-10_15h24.17.119,expectation_shapes_perceived_time,2022.2.4,119.57474437053165,
,-100,0.5,none,,green,red,,1427.573930289183,,,,,0,57,57,235,trial,,,,,,green,1.427573930289183,1.4132231404958677,2.291488900082186,0.997482500039041,4e-05,4e-05,0.03338,1.4244983000680804,1.45777179999277,2.0000010000076145,2.033040300011635,2.291488900082186,2.291488900082186,2.4914221999933943,2.5011114000808448,0.2096224999986589,3.6831998000852764,1.3917109000030905,1.1820884000044316,1.09154,-0.04192695166548457,-0.14175302705949544,,,,None,,-0.1,-0.09917355371900827,1.294243930289183,1.28099173553719,trial_list_0.5_green.csv,1.2912884000688791,1.3248140000505373,p13_base_01,001,2023-05-10_15h24.17.119,expectation_shapes_perceived_time,2022.2.4,119.57474437053165,
,-33,0.5,none,,red,green,,932.7860388342152,,,,,0,58,58,44,trial,,,,,,red,0.9327860388342152,0.9256198347107438,2.291542000020854,0.9963184999069199,3e-05,3e-05,0.03336,0.9326988001121208,0.9660870000952855,1.9997249000007287,2.033219400094822,2.291542000020854,2.291542000020854,2.4914899000432342,2.533842100063339,0.2423001000424847,4.041656100074761,1.7501141000539064,1.5078140000114217,1.21626,-0.09288299630940403,-0.11499799543069071,,,,None,,-0.033,-0.03305785123966942,0.8664560388342152,0.859504132231405,trial_list_0.5_green.csv,0.8660309000406414,0.8993155000498518,p13_base_01,001,2023-05-10_15h24.17.119,expectation_shapes_perceived_time,2022.2.4,119.57474437053165,
,167,0.5,none,,green,red,,392.14409369123655,,,,,0,59,59,117,trial,,,,,,green,0.39214409369123654,0.38842975206611574,2.2917854000115767,0.9964907000539824,3e-05,3e-05,,0.39197770005557686,0.4249648000113666,2.0002358000492677,,2.2917854000115767,2.2917854000115767,2.491874400060624,2.3001030000159517,0.008317600004374981,3.5917511000297964,1.2999657000182196,1.2916481000138447,0.70922,0.11702645292547834,-0.09031389301857567,,,,None,,0.167,0.1652892561983471,0.5924740936912366,0.5867768595041323,trial_list_0.5_green.csv,0.5917200000258163,0.6247969000833109,p13_base_01,001,2023-05-10_15h24.17.119,expectation_shapes_perceived_time,2022.2.4,119.57474437053165,
,33,0.5,none,,red,green,,1494.6931833743952,,,,,0,60,60,278,trial,,,,,,red,1.4946931833743953,1.4793388429752066,2.2919682000065222,0.9967153000179678,4e-05,4e-05,,1.491682599997148,1.5248664999380708,1.9999954999657348,2.0331513999262825,2.2919682000065222,2.2919682000065222,2.491577100008726,2.6501099999295548,0.3581417999230325,3.7832001999486238,1.4912319999421015,1.133090200019069,1.30463,-0.12084312220783477,-0.08513947246461087,,,,None,,0.033,0.03305785123966942,1.561023183374395,1.5454545454545454,trial_list_0.5_green.csv,1.558179699932225,1.5916811999632046,p13_base_01,001,2023-05-10_15h24.17.119,expectation_shapes_perceived_time,2022.2.4,119.57474437053165,
,-167,0.5,none,,red,green,,905.4156378598458,,,,,0,61,61,116,trial,,,,,,red,0.9054156378598458,0.8925619834710744,2.2914502999046817,0.9968206000048667,4e-05,4e-05,0.03297,0.8998460998991504,0.9329652999294922,1.9995940999360755,2.0330039999680594,2.2914502999046817,2.2914502999046817,2.4912657999666408,2.5578671999974176,0.2664169000927359,3.6578485999489203,1.3663983000442386,1.0999813999515027,0.83295,0.07406493989079822,-0.12793035072046965,,,,None,,-0.167,-0.1652892561983471,0.7050856378598458,0.6942148760330579,trial_list_0.5_green.csv,0.69978759996593,0.7330743999918923,p13_base_01,001,2023-05-10_15h24.17.119,expectation_shapes_perceived_time,2022.2.4,119.57474437053165,
,-233,0.5,none,,red,green,,822.2545046405539,,,,,0,62,62,140,trial,,,,,,red,0.8222545046405539,0.8099173553719008,2.291898100054823,0.9975121000315994,8e-05,8e-05,0.03332,0.8168717999942601,0.8499959000619128,1.9995864999946207,2.0328552999999374,2.291898100054823,2.291898100054823,2.4916585000464693,2.6084545000921935,0.3165564000373706,3.7831634000176564,1.4912652999628335,1.174708899925463,1.18145,-0.07977533902816004,-0.12444952888392968,,,,None,,-0.233,-0.23140495867768596,0.5559245046405539,0.5454545454545454,trial_list_0.5_green.csv,0.5502463000593707,0.5835495000937954,p13_base_01,001,2023-05-10_15h24.17.119,expectation_shapes_perceived_time,2022.2.4,119.57474437053165,
,300,0.5,none,,green,red,,944.8804001849516,,,,,0,63,63,163,trial,,,,,,green,0.9448804001849516,0.9338842975206612,2.2913045999594033,0.9971836999757215,0.0001,0.0001,0.03311,0.9413217999972403,0.9747602000134066,1.9991843999596313,2.032522900030017,2.2913045999594033,2.2913045999594033,2.491476000053808,2.832849600003101,0.5415450000436977,5.616056700004265,3.3247521000448614,2.783207100001164,0.98646,0.006284674616244259,-0.1476898534817401,,,,None,,0.3,0.2975206611570248,1.2782104001849517,1.2644628099173554,trial_list_0.5_green.csv,1.2745792999630794,1.308136299951002,p13_base_01,001,2023-05-10_15h24.17.119,expectation_shapes_perceived_time,2022.2.4,119.57474437053165,
,-167,0.5,none,,red,green,,824.6029843288134,,,,,0,64,64,304,trial,,,,,,red,0.8246029843288134,0.8181818181818182,2.291608600062318,0.9977723000338301,4e-05,4e-05,0.03329,0.8249971000477672,0.8583533000200987,2.0001883000368252,2.0334202999947593,2.291608600062318,2.291608600062318,2.4920142999617383,2.508576099993661,0.2169674999313429,4.624867400038056,2.333258799975738,2.116291300044395,1.09564,-0.04375221538321883,-0.1412003314640244,,,,None,,-0.167,-0.1652892561983471,0.6242729843288133,0.6198347107438017,trial_list_0.5_green.csv,0.6244781999848783,0.6579124999698251,p13_base_01,001,2023-05-10_15h24.17.119,expectation_shapes_perceived_time,2022.2.4,119.57474437053165,
,233,0.5,none,,green,red,,1593.9271636669791,,,,,0,65,65,345,trial,,,,,,green,1.5939271636669792,1.578512396694215,2.292140700039454,0.9964794999687001,1e-05,1e-05,0.0339,1.5921143000014126,1.6255519000114873,2.000503099989146,2.0339608000358567,2.292140700039454,2.292140700039454,2.492314300034195,2.9337627000641078,0.641622000024654,4.600101200048812,2.307960500009358,1.666338499984704,1.64758,-0.1322173663525028,0.0661086831762514,,,,None,,0.233,0.23140495867768596,1.8602571636669791,1.834710743801653,trial_list_0.5_green.csv,1.8507118000416085,1.884093299973756,p13_base_01,001,2023-05-10_15h24.17.119,expectation_shapes_perceived_time,2022.2.4,119.57474437053165,
,-33,0.5,none,,green,red,,1587.1614996487494,,,,,0,66,66,347,trial,,,,,,green,1.5871614996487495,1.5702479338842976,2.291512200026773,0.9980612000217661,5e-05,5e-05,,1.5832117000827566,1.6162608000449836,1.9998854000587016,,2.291512200026773,2.291512200026773,2.4916098000248894,2.9162214000243694,0.6247091999975964,4.240681400056928,1.9491692000301555,1.324460000032559,1.87112,-0.05823053316987949,0.13587124406305215,,,,None,,-0.033,-0.03305785123966942,1.5208314996487495,1.5041322314049588,trial_list_0.5_green.csv,1.5164094000356272,1.5495116000529379,p13_base_01,001,2023-05-10_15h24.17.119,expectation_shapes_perceived_time,2022.2.4,119.57474437053165,
,-233,0.5,none,,green,red,,871.0356970575361,,,,,0,67,67,459,trial,,,,,,green,0.8710356970575361,0.859504132231405,2.291782299987972,0.9908464999170974,8e-05,8e-05,,0.8667011000216007,0.9002188000595197,2.0000568000832573,,2.291782299987972,2.291782299987972,2.4917950000381097,2.949804599978961,0.6580222999909893,4.224514800007455,1.9327325000194833,1.274710200028494,1.66395,-0.12864442247012473,0.07281759762459891,,,,None,,-0.233,-0.23140495867768596,0.6047056970575361,0.5950413223140496,trial_list_0.5_green.csv,0.5998046000022441,0.6333154999883845,p13_base_01,001,2023-05-10_15h24.17.119,expectation_shapes_perceived_time,2022.2.4,119.57474437053165,
,167,0.5,none,,red,green,,1138.1309364505123,,,,,0,68,68,22,trial,,,,,,red,1.1381309364505123,1.1239669421487604,2.2918409999692813,0.9979920999612659,3e-05,3e-05,0.03341,1.1335690999403596,1.1666915999958292,2.0002257999731228,2.0337023999309167,2.2918409999692813,2.2918409999692813,2.492000099970028,2.725013199960813,0.43317219999153167,3.8161720999050885,1.5243310999358073,1.0911588999442756,1.40895,-0.1418167753211935,-0.04171081627093926,,,,None,,0.167,0.1652892561983471,1.3384609364505122,1.322314049586777,trial_list_0.5_green.csv,1.3335326999658719,1.3668409999227151,p13_base_01,001,2023-05-10_15h24.17.119,expectation_shapes_perceived_time,2022.2.4,119.57474437053165,
,300,0.5,none,,green,red,,224.099079001653,,,,,0,69,69,355,trial,,,,,,green,0.224099079001653,0.2231404958677686,2.2917611999437213,0.9991032000398263,3e-05,3e-05,0.03323,0.2249659999506548,0.2582342999521643,2.0000469000078738,2.0333161000162363,2.2917611999437213,2.2917611999437213,2.4919385999673977,2.5251612999709323,0.233400100027211,4.3914832000155,2.099722000071779,1.8663219000445679,0.14758,0.06610868317625139,0.13221736635250278,,,,None,,0.3,0.2975206611570248,0.5574290790016531,0.5537190082644629,trial_list_0.5_green.csv,0.5583491999423131,0.5917961000232026,p13_base_01,001,2023-05-10_15h24.17.119,expectation_shapes_perceived_time,2022.2.4,119.57474437053165,
,33,0.5,none,,green,red,,1171.5375932426257,,,,,0,70,70,11,trial,,,,,,green,1.1715375932426257,1.15702479338843,2.291355299996212,0.9979734999360517,4e-05,4e-05,0.03294,1.166287099942565,1.1996456000488251,1.9997688999865204,2.0329362000338733,2.291355299996212,2.291355299996212,2.49140980001539,2.5411362999584526,0.24978099996224046,4.657764800009318,2.3664095000131056,2.116628500050865,1.20871,-0.0901295844396289,-0.11716845977151755,,,,None,,0.033,0.03305785123966942,1.2378675932426255,1.2231404958677685,trial_list_0.5_green.csv,1.233104299986735,1.2663994999602437,p13_base_01,001,2023-05-10_15h24.17.119,expectation_shapes_perceived_time,2022.2.4,119.57474437053165,
,33,0.5,none,,green,red,,838.6764813673345,,,,,0,71,71,457,trial,,,,,,green,0.8386764813673345,0.8264462809917356,2.291497999918647,0.9975884000305086,4e-05,4e-05,0.03331,0.8334940999047831,0.8666347999824211,1.9998378999298438,2.033173399977386,2.291497999918647,2.291497999918647,2.4913919999962673,2.774567099986598,0.4830691000679508,3.6167149000102654,1.3252169000916183,0.8421478000236675,0.93433,0.030283590406602418,-0.14468826527598933,,,,None,,0.033,0.03305785123966942,0.9050064813673345,0.8925619834710744,trial_list_0.5_green.csv,0.9000517999520525,0.933385799988173,p13_base_01,001,2023-05-10_15h24.17.119,expectation_shapes_perceived_time,2022.2.4,119.57474437053165,
,-100,0.5,none,,green,red,,1246.3627825411577,,,,,0,72,72,415,trial,,,,,,green,1.2463627825411576,1.231404958677686,2.291621300042607,0.9964280999265611,5e-05,5e-05,,1.2417727999854833,1.2753181000007316,2.000235000043176,,2.291621300042607,2.291621300042607,2.4918014000868425,2.383388000074774,0.09176670003216714,3.966700499993749,1.675079199951142,1.583312499918975,1.17075,-0.07554895818657395,-0.12705961149560163,,,,None,,-0.1,-0.09917355371900827,1.1130327825411577,1.0991735537190084,trial_list_0.5_green.csv,1.1083595000673085,1.1418122000759467,p13_base_01,001,2023-05-10_15h24.17.119,expectation_shapes_perceived_time,2022.2.4,119.57474437053165,
,-100,0.5,none,,red,green,,588.1555148362081,,,,,0,73,73,120,trial,,,,,,red,0.5881555148362081,0.578512396694215,2.291961199953221,0.9973964999662712,4e-05,4e-05,0.03353,0.5835705000208691,0.6168920999625698,1.9999971999786794,2.033342399983667,2.291961199953221,2.291961199953221,2.4918595999479294,2.441596999997273,0.1496358000440523,3.7082052000332624,1.4162440000800416,1.2666082000359893,0.39871,0.14040199782530682,0.04625006987186577,,,,None,,-0.1,-0.09917355371900827,0.45482551483620814,0.4462809917355372,trial_list_0.5_green.csv,0.449949000030756,0.483581000007689,p13_base_01,001,2023-05-10_15h24.17.119,expectation_shapes_perceived_time,2022.2.4,119.57474437053165,
,300,0.5,none,,green,red,,1103.0804407197245,,,,,0,74,74,477,trial,,,,,,green,1.1030804407197246,1.0909090909090908,2.2921625000890344,0.9964035999728367,3e-05,3e-05,0.03354,1.1004666000371799,1.1336746000451967,2.0002675000578165,2.03382800007239,2.2921625000890344,2.2921625000890344,2.4919392000883818,2.50024010008201,0.2080775999929756,4.016989200026728,1.7248266999376938,1.5167490999447182,0.88401,0.05268368484249808,-0.13811668728979226,,,,None,,0.3,0.2975206611570248,1.4364104407197245,1.4214876033057853,trial_list_0.5_green.csv,1.4335225000977516,1.4668173000682145,p13_base_01,001,2023-05-10_15h24.17.119,expectation_shapes_perceived_time,2022.2.4,119.57474437053165,
,-167,0.5,none,,green,red,,1659.215146053672,0,0,0,0,0,75,75,373,fam,0.5411376999691129,0.5411376999691129,270.0000000000009,2.532837999984622,2.532837999984622,,,,,,,,,,,,,,,,,,,,,,,,,,,,,,,,,,,,p13_base_01,001,2023-05-10_15h24.17.119,expectation_shapes_perceived_time,2022.2.4,119.57474437053165,
,-167,0.5,none,,green,red,,1659.215146053672,1,0,1,0,0,75,75,373,fam,0.499322299961932,0.499322299961932,270.0000000000009,2.4907970000058413,2.4907970000058413,,,,,,,,,,,,,,,,,,,,,,,,,,,,,,,,,,,,p13_base_01,001,2023-05-10_15h24.17.119,expectation_shapes_perceived_time,2022.2.4,119.57474437053165,
,-167,0.5,none,,green,red,,1659.215146053672,2,0,2,0,0,75,75,373,fam,0.4974080000538379,0.4974080000538379,270.0000000000009,2.488791999989189,2.488791999989189,,,,,,,,,,,,,,,,,,,,,,,,,,,,,,,,,,,,p13_base_01,001,2023-05-10_15h24.17.119,expectation_shapes_perceived_time,2022.2.4,119.57474437053165,
,-167,0.5,none,,green,red,,1659.215146053672,3,0,3,0,0,75,75,373,fam,0.49748390004970133,0.49748390004970133,270.0000000000009,2.488770900061354,2.488770900061354,,,,,,,,,,,,,,,,,,,,,,,,,,,,,,,,,,,,p13_base_01,001,2023-05-10_15h24.17.119,expectation_shapes_perceived_time,2022.2.4,119.57474437053165,
,-167,0.5,none,,green,red,,1659.215146053672,,,,,0,75,75,373,trial,,,,,,green,1.659215146053672,1.6363636363636365,2.291413600090891,0.9981233000289649,4e-05,4e-05,0.03311,1.6499178000958636,1.6832607000833377,2.0000714000780135,2.0332397000165656,2.291413600090891,2.291413600090891,2.4913341000210494,2.574665400083177,0.28325179999228567,3.8164819000521675,1.5250682999612764,1.2418164999689907,1.76817,-0.09839352264277525,0.1103200102358389,,,,None,,-0.167,-0.1652892561983471,1.458885146053672,1.43801652892562,trial_list_0.5_green.csv,1.4497248000698164,1.4828927000053227,p13_base_01,001,2023-05-10_15h24.17.119,expectation_shapes_perceived_time,2022.2.4,119.57474437053165,
,-100,0.5,none,,green,red,,1653.448596922668,,,,,0,76,76,303,trial,,,,,,green,1.653448596922668,1.6363636363636365,2.2913733000168577,0.9956650999374688,4e-05,4e-05,0.03326,1.649453500052914,1.6828771999571472,1.9996871000621468,,2.2913733000168577,2.2913733000168577,2.491492300061509,2.691454599960707,0.40008129994384944,4.024728000047617,1.733354700030759,1.3332734000869095,1.34522,-0.130690016792412,-0.0690790088759892,,,,None,,-0.1,-0.09917355371900827,1.520118596922668,1.5041322314049588,trial_list_0.5_green.csv,1.5167587000178173,1.5499238000484183,p13_base_01,001,2023-05-10_15h24.17.119,expectation_shapes_perceived_time,2022.2.4,119.57474437053165,
,-33,0.5,none,,green,red,,1551.8491921073576,,,,,0,77,77,61,trial,,,,,,green,1.5518491921073576,1.537190082644628,2.291246199980378,0.9977730000391603,5e-05,5e-05,0.03344,1.5496913000242785,1.5829893000191078,1.9997465000487864,2.0332844000076875,2.291246199980378,2.291246199980378,2.4912515999749303,2.641489199944772,0.3502429999643937,3.6249713000142947,1.3337251000339165,0.9834821000695229,1.1057,-0.048189086867718486,-0.13974835191638363,,,,None,,-0.033,-0.03305785123966942,1.4855191921073576,1.4710743801652892,trial_list_0.5_green.csv,1.4830149000044912,1.5162475999677554,p13_base_01,001,2023-05-10_15h24.17.119,expectation_shapes_perceived_time,2022.2.4,119.57474437053165,
,-300,0.5,none,,green,red,,895.6532193783589,,,,,0,78,78,37,trial,,,,,,green,0.895653219378359,0.8842975206611571,2.2921153999632224,0.995798800024204,1e-05,1e-05,,0.8922454999992624,0.925392400007695,2.000054799951613,,2.2921153999632224,2.2921153999632224,2.4920017999829724,2.7336493999464437,0.4415339999832213,4.758840500027873,2.46672510006465,2.025191100081429,1.2595,-0.10759928669414938,-0.1013616468857929,,,,None,,-0.3,-0.2975206611570248,0.5623232193783589,0.5537190082644629,trial_list_0.5_green.csv,0.5587350999703631,0.5923257999820635,p13_base_01,001,2023-05-10_15h24.17.119,expectation_shapes_perceived_time,2022.2.4,119.57474437053165,
,-100,0.5,none,,red,green,,1355.84788395553,,,,,0,79,79,8,trial,,,,,,red,1.3558478839555301,1.3388429752066116,2.2916617000009865,0.9972977999132127,4e-05,4e-05,,1.3497644000453874,1.3834354999708012,1.9997161000501364,,2.2916617000009865,2.2916617000009865,2.491830399958417,2.5917459999909624,0.300084299989976,4.374386099982075,2.082724399981089,1.782640099991113,1.51515,-0.14765619363126742,0.00703124731577464,,,,None,,-0.1,-0.09917355371900827,1.2225178839555302,1.2066115702479339,trial_list_0.5_green.csv,1.2162410999881104,1.2496729999547824,p13_base_01,001,2023-05-10_15h24.17.119,expectation_shapes_perceived_time,2022.2.4,119.57474437053165,
,-233,0.5,none,,green,red,,540.2354931134145,,,,,0,80,80,53,trial,,,,,,green,0.5402354931134145,0.5371900826446281,2.291861500008963,0.9989089000737295,3e-05,3e-05,0.03329,0.5419210999971256,0.5751007000217214,2.0003308999584988,2.033426300040446,2.291861500008963,2.291861500008963,2.4918188999872655,2.550001300056465,0.2581398000475019,4.891683700028807,2.599822200019844,2.341682399972342,1.18803,-0.08233075149450172,-0.12277392766723941,,,,None,,-0.233,-0.23140495867768596,0.2739054931134145,0.2727272727272727,trial_list_0.5_green.csv,0.27555430005304515,0.30869209999218583,p13_base_01,001,2023-05-10_15h24.17.119,expectation_shapes_perceived_time,2022.2.4,119.57474437053165,
,233,0.5,none,,red,green,,249.19267745137944,,,,,0,81,81,282,trial,,,,,,red,0.24919267745137944,0.24793388429752067,2.2917835999978706,0.9961846000514925,4e-05,4e-05,0.03341,0.2500929000088945,0.28324000001884997,2.0001099000219256,2.033647399977781,2.2917835999978706,2.2917835999978706,2.491768099949695,2.67503449996002,0.38325089996214956,3.3830511999549344,1.0912675999570638,0.7080166999949142,0.26214,0.1084376295899699,0.10046427447306035,,,,None,,0.233,0.23140495867768596,0.5155226774513795,0.5123966942148761,trial_list_0.5_green.csv,0.5168738999636844,0.5500831999816,p13_base_01,001,2023-05-10_15h24.17.119,expectation_shapes_perceived_time,2022.2.4,119.57474437053165,
,-300,0.5,none,,red,green,,598.679956488402,,,,,0,82,82,384,trial,,,,,,red,0.598679956488402,0.5950413223140496,2.291763799963519,0.997449400019832,4e-05,4e-05,,0.6000263999449089,0.6332162999315187,1.999950799974613,,2.291763799963519,2.291763799963519,2.49172039993573,2.6833981999661773,0.39163440000265837,4.016692999983206,1.7249292000196874,1.333294800017029,0.35508,0.13276592858617342,0.06499998587031407,,,,None,,-0.3,-0.2975206611570248,0.26534995648840204,0.2644628099173554,trial_list_0.5_green.csv,0.26667199993971735,0.2998647999484092,p13_base_01,001,2023-05-10_15h24.17.119,expectation_shapes_perceived_time,2022.2.4,119.57474437053165,
,100,0.5,none,,green,red,,1121.0012458754509,,,,,0,83,83,105,trial,,,,,,green,1.1210012458754508,1.1074380165289257,2.291657399968244,0.9965892999898642,4e-05,4e-05,0.03348,1.116539999959059,1.1501139999600127,2.0000160000054166,2.0331802000291646,2.291657399968244,2.291657399968244,2.491456100018695,2.7748737999936566,0.48321640002541244,5.466483399970457,3.174826000002213,2.6916095999768004,1.72171,-0.11339199499077157,0.09483694126500895,,,,None,,0.1,0.09917355371900827,1.2543312458754508,1.2396694214876034,trial_list_0.5_green.csv,1.2500105999642983,1.2831833999371156,p13_base_01,001,2023-05-10_15h24.17.119,expectation_shapes_perceived_time,2022.2.4,119.57474437053165,
,-300,0.5,none,,green,red,,499.8907665076944,,,,,0,84,84,67,trial,,,,,,green,0.49989076650769443,0.49586776859504134,2.2911853999830782,0.9961662999121472,3e-05,3e-05,0.0332,0.5002439999952912,0.5332329999655485,1.9995240999851376,2.0331446999916807,2.2911853999830782,2.2911853999830782,2.4915901999920607,2.533173199975863,0.24198779999278486,4.5332886999240145,2.2421032999409363,2.0001154999481514,1.00974,-0.004523090654612606,-0.14775429471734514,,,,None,,-0.3,-0.2975206611570248,0.16656076650769444,0.1652892561983471,trial_list_0.5_green.csv,0.16670179995708168,0.20011499989777803,p13_base_01,001,2023-05-10_15h24.17.119,expectation_shapes_perceived_time,2022.2.4,119.57474437053165,
,233,0.5,none,,red,green,,435.65146702171216,,,,,0,85,85,328,trial,,,,,,red,0.43565146702171215,0.4297520661157025,2.2917775000678375,0.9975957000860944,4e-05,4e-05,0.03321,0.4333272000076249,0.4665796000044793,1.9999808000866324,2.0332754000555724,2.2917775000678375,2.2917775000678375,2.4915687000611797,2.533119300031103,0.24134179996326566,3.9416941000381485,1.649916599970311,1.4085748000070453,0.20066,0.08713738666909912,0.11941049284283953,,,,None,,0.233,0.23140495867768596,0.7019814670217122,0.6942148760330579,trial_list_0.5_green.csv,0.699926600093022,0.7332949000410736,p13_base_01,001,2023-05-10_15h24.17.119,expectation_shapes_perceived_time,2022.2.4,119.57474437053165,
,-33,0.5,none,,green,red,,199.3764937912792,,,,,0,86,86,29,trial,,,,,,green,0.1993764937912792,0.19834710743801653,2.2914962000213563,0.9973936999449506,4e-05,4e-05,,0.1996233999961987,0.23329390003345907,1.9997103000059724,,2.2914962000213563,2.2914962000213563,2.4914889000356197,2.616360199986957,0.32486399996560067,3.4413477000780404,1.149851500056684,0.8249875000910833,0.20572,0.0890250135984509,0.11800990174678376,,,,None,,-0.033,-0.03305785123966942,0.1330464937912792,0.1322314049586777,trial_list_0.5_green.csv,0.1333137999754399,0.1667987999971956,p13_base_01,001,2023-05-10_15h24.17.119,expectation_shapes_perceived_time,2022.2.4,119.57474437053165,
,-233,0.5,none,,red,green,,621.3610439554776,,,,,0,87,87,402,trial,,,,,,red,0.6213610439554776,0.6115702479338843,2.2910626999801025,0.9970604000845924,3e-05,3e-05,,0.6167004000162706,0.6501570999389514,1.9998751999810338,,2.2910626999801025,2.2910626999801025,2.4915092999581248,2.6247351999627426,0.33367249998264015,4.016731899930164,1.7256691999500617,1.3919966999674216,1.02051,-0.009517214282304199,-0.1475168213757151,,,,None,,-0.233,-0.23140495867768596,0.35503104395547763,0.34710743801652894,trial_list_0.5_green.csv,0.3498571999371052,0.38333969993982464,p13_base_01,001,2023-05-10_15h24.17.119,expectation_shapes_perceived_time,2022.2.4,119.57474437053165,
,-167,0.5,none,,green,red,,1585.465545224517,,,,,0,88,88,495,trial,,,,,,green,1.585465545224517,1.5702479338842976,2.291485400055535,0.9974856999469921,3e-05,3e-05,0.03327,1.5834427999798208,1.6167670000577345,2.0001040999777615,2.0334065000060946,2.291485400055535,2.291485400055535,2.491406499990262,2.76650010002777,0.47501469997223467,3.874999099993147,1.5835136999376118,1.1084989999653772,1.70075,-0.11938610042935734,0.08717080348810219,,,,None,,-0.167,-0.1652892561983471,1.385135545224517,1.371900826446281,trial_list_0.5_green.csv,1.3835196000291035,1.416835300042294,p13_base_01,001,2023-05-10_15h24.17.119,expectation_shapes_perceived_time,2022.2.4,119.57474437053165,
,167,0.5,none,,red,green,,1496.3000855789176,,,,,0,89,89,428,trial,,,,,,red,1.4963000855789175,1.4793388429752066,2.2913113000104204,0.9965276999864727,4e-05,4e-05,,1.4917465000180528,1.5249645999865606,1.9999804999679327,2.033598499954678,2.2913113000104204,2.2913113000104204,2.4911473999964073,2.8415949000045657,0.5502835999941453,4.241341699962504,1.9500303999520838,1.3997467999579385,1.53622,-0.1468674864601756,0.01678485559544864,,,,None,,0.167,0.1652892561983471,1.6966300855789176,1.677685950413223,trial_list_0.5_green.csv,1.6917969000060111,1.725018099998124,p13_base_01,001,2023-05-10_15h24.17.119,expectation_shapes_perceived_time,2022.2.4,119.57474437053165,
,-167,0.5,none,,red,green,,999.415276991584,,,,,0,90,90,248,trial,,,,,,red,0.9994152769915841,0.9917355371900827,2.291247099987231,0.9970355000114068,4e-05,4e-05,0.03329,1.000071999966167,1.033422000007704,1.999559300020337,2.0330889999167994,2.291247099987231,2.291247099987231,2.491682799998671,2.558261499973014,0.2670143999857828,3.508112799958326,1.2168656999710947,0.9498512999853119,1.1368,-0.06159136154860301,-0.1343811524696793,,,,None,,-0.167,-0.1652892561983471,0.799085276991584,0.7933884297520661,trial_list_0.5_green.csv,0.8000401000026613,0.8333109000232071,p13_base_01,001,2023-05-10_15h24.17.119,expectation_shapes_perceived_time,2022.2.4,119.57474437053165,
,233,0.5,none,,red,green,,1309.689271290259,,,,,0,91,91,2,trial,,,,,,red,1.309689271290259,1.297520661157025,2.291747600072995,0.9968913999618962,3e-05,3e-05,0.03339,1.3083184000570327,1.341706300037913,2.00014890008606,2.0337155000306666,2.291747600072995,2.291747600072995,2.4913174000103027,2.857914200052619,0.5661665999796242,3.8332595000974834,1.5415119000244886,0.9753453000448644,1.38826,-0.13880904339547018,-0.050831480680031335,,,,None,,0.233,0.23140495867768596,1.576019271290259,1.553719008264463,trial_list_0.5_green.csv,1.5668634000467137,1.6002520000329241,p13_base_01,001,2023-05-10_15h24.17.119,expectation_shapes_perceived_time,2022.2.4,119.57474437053165,
,100,0.5,none,,red,green,,1200.201737373202,,,,,0,92,92,80,trial,,,,,,red,1.200201737373202,1.1900826446280992,2.2911615000339225,0.9968881999375299,4e-05,4e-05,0.03306,1.1998071999987587,1.233254799968563,1.9998990999301895,2.0335337999276817,2.2911615000339225,2.2911615000339225,2.491379900020547,2.765969199943356,0.4748076999094337,3.724613899947144,1.4334523999132216,0.9586447000037879,1.29241,-0.11748536748044609,-0.08971609880324972,,,,None,,0.1,0.09917355371900827,1.3335317373732019,1.3140495867768596,trial_list_0.5_green.csv,1.3246608999324962,1.3579604999395087,p13_base_01,001,2023-05-10_15h24.17.119,expectation_shapes_perceived_time,2022.2.4,119.57474437053165,
,300,0.5,none,,green,red,,920.1967392638628,,,,,0,93,93,133,trial,,,,,,green,0.9201967392638628,0.9090909090909092,2.291331300046295,0.9972821999108419,5e-05,5e-05,,0.9163585000205785,0.9499871000880376,2.0000169000122696,,2.291331300046295,2.291331300046295,2.491524300072342,2.682793300016783,0.39146199997048825,4.6578439000295475,2.3665125999832526,1.9750506000127643,0.8144,0.08139084763222687,-0.12339902705531172,,,,None,,0.3,0.2975206611570248,1.2535267392638627,1.2396694214876034,trial_list_0.5_green.csv,1.2499667000956833,1.282878200057894,p13_base_01,001,2023-05-10_15h24.17.119,expectation_shapes_perceived_time,2022.2.4,119.57474437053165,
,-300,0.5,none,,red,green,,1146.787547604593,,,,,0,94,94,258,trial,,,,,,red,1.146787547604593,1.1322314049586777,2.291075799963437,0.997581799980253,4e-05,4e-05,,1.1415546999778599,1.1749290999723598,1.9998628000030294,,2.291075799963437,2.291075799963437,2.4911790000041947,2.9830379999475554,0.6919621999841183,3.883307099924423,1.5922312999609858,0.9002690999768674,1.38523,-0.13831805669041022,-0.052152709899662864,,,,None,,-0.3,-0.2975206611570248,0.8134575476045931,0.8016528925619835,trial_list_0.5_green.csv,0.808177400031127,0.8415373000316322,p13_base_01,001,2023-05-10_15h24.17.119,expectation_shapes_perceived_time,2022.2.4,119.57474437053165,
,167,0.5,none,,red,green,,1479.1773346320008,,,,,0,95,95,174,trial,,,,,,red,1.4791773346320007,1.462809917355372,2.2916263000806794,0.9965061000548303,8e-05,8e-05,0.03328,1.4747904000105336,1.508344600093551,1.9998679000418633,2.033166000037454,2.2916263000806794,2.2916263000806794,2.491132099996321,2.7576008000178263,0.4659744999371469,3.6746904000174254,1.383064099936746,0.9170895999995992,1.6358,-0.13457356761610573,0.06116980346186625,,,,None,,0.167,0.1652892561983471,1.6795073346320006,1.6611570247933884,trial_list_0.5_green.csv,1.6748825000831857,1.7082900000968948,p13_base_01,001,2023-05-10_15h24.17.119,expectation_shapes_perceived_time,2022.2.4,119.57474437053165,
,-233,0.5,none,,green,red,,641.5305626394193,,,,,0,96,96,497,trial,,,,,,green,0.6415305626394192,0.6363636363636364,2.2913088999921456,0.9967604000121355,5e-05,5e-05,0.03327,0.6414546000305563,0.6747852000407875,2.000043100095354,2.033094000071287,2.2913088999921456,2.2913088999921456,2.491377199999988,2.549643100006506,0.25833420001436025,4.349345399998128,2.058036500005983,1.7997022999916226,0.1725,0.0762445238929079,0.12664344646618603,,,,None,,-0.233,-0.23140495867768596,0.37520056263941926,0.371900826446281,trial_list_0.5_green.csv,0.3747922000475228,0.4082447000546381,p13_base_01,001,2023-05-10_15h24.17.119,expectation_shapes_perceived_time,2022.2.4,119.57474437053165,
,-167,0.5,none,,green,red,,1689.9147783477792,,,,,0,97,97,101,trial,,,,,,green,1.6899147783477793,1.6694214876033058,2.2916411999613047,0.9972993000410497,4e-05,4e-05,0.03335,1.68299899995327,1.7163988000247627,1.9997542999917641,2.0332349999807775,2.2916411999613047,2.2916411999613047,2.4910041999537498,2.665922399959527,0.3742811999982223,5.791605600039475,3.49996440007817,3.1256832000799477,1.87315,-0.057363947628850845,0.13623937561852073,,,,None,,-0.167,-0.1652892561983471,1.4895847783477794,1.4710743801652892,trial_list_0.5_green.csv,1.4832884999923408,1.5167059999657795,p13_base_01,001,2023-05-10_15h24.17.119,expectation_shapes_perceived_time,2022.2.4,119.57474437053165,
,-33,0.5,none,,red,green,,576.8734801255061,,,,,0,98,98,60,trial,,,,,,red,0.5768734801255061,0.5702479338842975,2.291665800032206,0.997219100012444,4e-05,4e-05,,0.5749544999562204,0.6081833000062034,1.9999625999480486,,2.291665800032206,2.291665800032206,2.491529199993238,2.374941000016406,0.0832751999842003,3.516649099998176,1.2249832999659702,1.14170809998177,0.96978,0.014015012803367718,-0.14715763443536106,,,,None,,-0.033,-0.03305785123966942,0.5105434801255062,0.5041322314049587,trial_list_0.5_green.csv,0.5083425999619067,0.5416623000055552,p13_base_01,001,2023-05-10_15h24.17.119,expectation_shapes_perceived_time,2022.2.4,119.57474437053165,
,100,0.5,none,,red,green,,1182.8307647028616,,,,,0,99,99,0,trial,,,,,,red,1.1828307647028617,1.1652892561983472,2.29158939991612,0.9966058999998495,5e-05,5e-05,0.03309,1.174452199949883,1.207507099956274,1.9997101998887956,2.0330614999402314,2.29158939991612,2.29158939991612,2.491406699991785,2.5161948999157175,0.22460549999959767,3.5079080999130383,1.2163186999969184,0.9917131999973208,1.31673,-0.12399135328043795,-0.08048561528730183,,,,None,,0.1,0.09917355371900827,1.3161607647028615,1.297520661157025,trial_list_0.5_green.csv,1.3074915999313816,1.340795199968852,p13_base_01,001,2023-05-10_15h24.17.119,expectation_shapes_perceived_time,2022.2.4,119.57474437053165,
,-100,0.5,none,,red,green,,869.9310040203023,0,0,0,0,0,100,100,100,fam,0.5731807000702247,0.5731807000702247,270.0000000000009,2.564904800034128,2.564904800034128,,,,,,,,,,,,,,,,,,,,,,,,,,,,,,,,,,,,p13_base_01,001,2023-05-10_15h24.17.119,expectation_shapes_perceived_time,2022.2.4,119.57474437053165,
,-100,0.5,none,,red,green,,869.9310040203023,1,0,1,0,0,100,100,100,fam,0.49745549994986504,0.49745549994986504,270.0000000000009,2.488829299923964,2.488829299923964,,,,,,,,,,,,,,,,,,,,,,,,,,,,,,,,,,,,p13_base_01,001,2023-05-10_15h24.17.119,expectation_shapes_perceived_time,2022.2.4,119.57474437053165,
,-100,0.5,none,,red,green,,869.9310040203023,2,0,2,0,0,100,100,100,fam,0.49744449998252094,0.49744449998252094,270.0000000000009,2.4891410999698564,2.4891410999698564,,,,,,,,,,,,,,,,,,,,,,,,,,,,,,,,,,,,p13_base_01,001,2023-05-10_15h24.17.119,expectation_shapes_perceived_time,2022.2.4,119.57474437053165,
,-100,0.5,none,,red,green,,869.9310040203023,3,0,3,0,0,100,100,100,fam,0.4974332000128925,0.4974332000128925,270.0000000000009,2.4893351999344304,2.4893351999344304,,,,,,,,,,,,,,,,,,,,,,,,,,,,,,,,,,,,p13_base_01,001,2023-05-10_15h24.17.119,expectation_shapes_perceived_time,2022.2.4,119.57474437053165,
,-100,0.5,none,,red,green,,869.9310040203023,,,,,0,100,100,100,trial,,,,,,red,0.8699310040203023,0.859504132231405,2.291721099987626,0.997994999983348,4e-05,4e-05,0.03324,0.8666401000227779,0.8998830000637099,1.9993682999629527,2.0326665999600664,2.291721099987626,2.291721099987626,2.491408700007014,2.4667632000055164,0.17504210001789033,4.2330384000670165,1.9413173000793904,1.7662752000615,1.06743,-0.031079441810262322,-0.14451940441771977,,,,None,,-0.1,-0.09917355371900827,0.7366010040203023,0.7272727272727273,trial_list_0.5_green.csv,0.7333613999653608,0.766806700034067,p13_base_01,001,2023-05-10_15h24.17.119,expectation_shapes_perceived_time,2022.2.4,119.57474437053165,
,-167,0.5,none,,green,red,,1434.6473098489023,,,,,0,101,101,251,trial,,,,,,green,1.4346473098489023,1.4214876033057853,2.291819700039923,0.9974473000038415,4e-05,4e-05,0.03327,1.433293899986893,1.4666283000260592,2.0000447999918833,2.0332823999924585,2.291819700039923,2.291819700039923,2.491547600016929,2.7659945000195876,0.4741747999796644,4.2081392999971285,1.9163195999572054,1.442144799977541,1.53096,-0.1471249892883776,0.014353657491549035,,,,None,,-0.167,-0.1652892561983471,1.2343173098489024,1.2231404958677685,trial_list_0.5_green.csv,1.233460700022988,1.2666764999739826,p13_base_01,001,2023-05-10_15h24.17.119,expectation_shapes_perceived_time,2022.2.4,119.57474437053165,
,-300,0.5,none,,green,red,,550.5318426207796,,,,,0,102,102,237,trial,,,,,,green,0.5505318426207796,0.5454545454545454,2.291913300054148,0.9963670000433922,3e-05,3e-05,0.03331,0.550023699994199,0.5833968000952154,2.0000377000542358,2.033469000016339,2.291913300054148,2.291913300054148,2.491955100093037,2.4250654000788927,0.13315210002474487,5.175111300079152,2.883198000025004,2.7500459000002593,0.82328,0.07791704215195985,-0.12562135367356791,,,,None,,-0.3,-0.2975206611570248,0.2172018426207796,0.21487603305785125,trial_list_0.5_green.csv,0.2167197000235319,0.25000700005330145,p13_base_01,001,2023-05-10_15h24.17.119,expectation_shapes_perceived_time,2022.2.4,119.57474437053165,
,233,0.5,none,,red,green,,1465.0851345512915,,,,,0,103,103,114,trial,,,,,,red,1.4650851345512914,1.4462809917355373,2.291397099965252,0.997716199955903,4e-05,4e-05,,1.4580158999888226,1.4913853999460116,1.999735499965027,,2.291397099965252,2.291397099965252,2.4915881999768317,2.6413835999555886,0.3499864999903366,3.849712499999441,1.5583154000341892,1.2083289000438526,1.57153,-0.14410700569285181,0.03293874415836613,,,,None,,0.233,0.23140495867768596,1.7314151345512914,1.7107438016528926,trial_list_0.5_green.csv,1.7247398999752477,1.7580799999414012,p13_base_01,001,2023-05-10_15h24.17.119,expectation_shapes_perceived_time,2022.2.4,119.57474437053165,
,167,0.5,none,,green,red,,604.1403637860444,,,,,0,104,104,151,trial,,,,,,green,0.6041403637860444,0.5950413223140496,2.2912080000387505,0.9976550999563187,4e-05,4e-05,,0.5993417999707162,0.6326244999654591,1.9998023000080138,,2.2912080000387505,2.2912080000387505,2.4915590999880806,2.557942399987951,0.26673439994920045,3.574580100015737,1.2833720999769866,1.0166377000277862,0.56719,0.14454218443192057,-0.030973325235411554,,,,None,,0.167,0.1652892561983471,0.8044703637860444,0.7933884297520661,trial_list_0.5_green.csv,0.799783100024797,0.8330655000172555,p13_base_01,001,2023-05-10_15h24.17.119,expectation_shapes_perceived_time,2022.2.4,119.57474437053165,
,-33,0.5,none,,green,red,,436.4747734382936,,,,,0,105,105,329,trial,,,,,,green,0.4364747734382936,0.4297520661157025,2.2916045000310987,0.996574200107716,4e-05,4e-05,0.03299,0.43340229999739677,0.4667753999819979,2.0000751999905333,2.0331229000585154,2.2916045000310987,2.2916045000310987,2.4918296000687405,2.6998447000514716,0.40824020002037287,5.0751279999967664,2.7835234999656677,2.375283299945295,0.62639,0.13632200994933102,-0.05716729449488074,,,,None,,-0.033,-0.03305785123966942,0.3701447734382936,0.36363636363636365,trial_list_0.5_green.csv,0.36661250004544854,0.3999665000010282,p13_base_01,001,2023-05-10_15h24.17.119,expectation_shapes_perceived_time,2022.2.4,119.57474437053165,
,100,0.5,none,,green,red,,985.5193414133902,,,,,0,106,106,285,trial,,,,,,green,0.9855193414133901,0.975206611570248,2.2920809999341145,0.995949300006032,1e-05,1e-05,0.03332,0.9838172999443486,1.0171091998927295,2.0004775999113917,,2.2920809999341145,2.2920809999341145,2.491597899934277,2.5332862999057397,0.2412052999716252,3.6502087999833748,1.3581278000492603,1.116922500077635,1.33523,-0.1284563963329232,-0.07314878124513682,,,,None,,0.1,0.09917355371900827,1.11884934141339,1.1074380165289257,trial_list_0.5_green.csv,1.1170962000032887,1.1504710000008345,p13_base_01,001,2023-05-10_15h24.17.119,expectation_shapes_perceived_time,2022.2.4,119.57474437053165,
,100,0.5,none,,red,green,,340.1620627989024,,,,,0,107,107,394,trial,,,,,,red,0.34016206279890243,0.33884297520661155,2.292143400060013,0.9961701999418437,2e-05,2e-05,0.03319,0.34158070001285523,0.3749087000032887,2.000369600020349,,2.292143400060013,2.292143400060013,2.4921415999997407,2.558839999954216,0.26669659989420325,3.4587467999663204,1.1666033999063075,0.8999068000121042,0.8322,0.07436539339244325,-0.12775593223829992,,,,None,,0.1,0.09917355371900827,0.4734920627989024,0.47107438016528924,trial_list_0.5_green.csv,0.4753501999657601,0.5088949999772012,p13_base_01,001,2023-05-10_15h24.17.119,expectation_shapes_perceived_time,2022.2.4,119.57474437053165,
,-167,0.5,none,,green,red,,1094.8003358244855,,,,,0,108,108,35,trial,,,,,,green,1.0948003358244855,1.0826446280991735,2.291503999964334,0.9975471999496222,4e-05,4e-05,0.03317,1.0913441999582574,1.124936499982141,1.9997207999695092,2.033299700007774,2.291503999964334,2.291503999964334,2.4916147999465466,2.7498397999443114,0.4583357999799773,4.599722699960694,2.3082186999963596,1.8498829000163823,1.08295,-0.038088597269059964,-0.14283223975897488,,,,None,,-0.167,-0.1652892561983471,0.8944703358244854,0.8842975206611571,trial_list_0.5_green.csv,0.8909886999754235,0.9242958999238908,p13_base_01,001,2023-05-10_15h24.17.119,expectation_shapes_perceived_time,2022.2.4,119.57474437053165,
,-100,0.5,none,,red,green,,1153.524648013195,,,,,0,109,109,112,trial,,,,,,red,1.153524648013195,1.140495867768595,2.2918160000117496,0.9975848998874426,2e-05,2e-05,0.03287,1.149910300038755,1.1834355000173673,2.000023400061764,2.03346700000111,2.2918160000117496,2.2918160000117496,2.4919420999940485,2.5500730000203475,0.25825700000859797,5.107875199988484,2.816059199976735,2.557802199968137,1.36458,-0.13464552345468078,-0.06101125281540224,,,,None,,-0.1,-0.09917355371900827,1.020194648013195,1.0082644628099173,trial_list_0.5_green.csv,1.0164924000855535,1.0501119000837207,p13_base_01,001,2023-05-10_15h24.17.119,expectation_shapes_perceived_time,2022.2.4,119.57474437053165,
,-233,0.5,none,,red,green,,1311.0962474371745,,,,,0,110,110,92,trial,,,,,,red,1.3110962474371746,1.297520661157025,2.2915946999564767,0.9909322999883443,4e-05,4e-05,0.03306,1.3077709999633953,1.3411917999619618,1.9997167999390513,2.033011000021361,2.2915946999564767,2.2915946999564767,2.4913394999457523,2.791318199946545,0.4997234999900684,3.7080637000035495,1.4164690000470728,0.9167455000570044,1.1506,-0.06735890248447875,-0.13158483276037708,,,,None,,-0.233,-0.23140495867768596,1.0447662474371746,1.0330578512396695,trial_list_0.5_green.csv,1.0413570000091568,1.074584599933587,p13_base_01,001,2023-05-10_15h24.17.119,expectation_shapes_perceived_time,2022.2.4,119.57474437053165,
,167,0.5,none,,red,green,,946.6578503461096,,,,,0,111,111,364,trial,,,,,,red,0.9466578503461096,0.9338842975206612,2.2918207000475377,0.9966646999819204,4e-05,4e-05,0.0335,0.9417900999542326,0.9749887000070885,1.9999987999908626,2.033596400055103,2.2918207000475377,2.2918207000475377,2.491713299998082,2.7166736000217497,0.42485289997421205,4.174658600008115,1.8828378999605775,1.4579849999863654,0.76791,0.09848199477019984,-0.11024103892186547,,,,None,,0.167,0.1652892561983471,1.1469878503461095,1.1322314049586777,trial_list_0.5_green.csv,1.1416408000513911,1.1751849999418482,p13_base_01,001,2023-05-10_15h24.17.119,expectation_shapes_perceived_time,2022.2.4,119.57474437053165,
,-300,0.5,none,,red,green,,1520.139406983686,,,,,0,112,112,192,trial,,,,,,red,1.520139406983686,1.5041322314049588,2.2918645000318065,0.9978383999550715,3e-05,3e-05,,1.5169754000380635,1.5500647999579087,2.0001031999709085,,2.2918645000318065,2.2918645000318065,2.492078799987212,2.6752130000386387,0.3833485000068322,3.7416806999826804,1.4498161999508739,1.0664676999440417,1.48209,-0.14758947251348759,-0.008314899859914794,,,,None,,-0.3,-0.2975206611570248,1.186809406983686,1.1735537190082646,trial_list_0.5_green.csv,1.18340460001491,1.2169211000436917,p13_base_01,001,2023-05-10_15h24.17.119,expectation_shapes_perceived_time,2022.2.4,119.57474437053165,
,33,0.5,none,,red,green,,241.0676692671824,,,,,0,113,113,52,trial,,,,,,red,0.2410676692671824,0.2396694214876033,2.2913111000088975,0.996858699945733,4e-05,4e-05,0.03295,0.24139640002977103,0.2748859999701381,1.9998519000364468,2.0333821000531316,2.2913111000088975,2.2913111000088975,2.491373799974099,2.5752464999677613,0.28393539995886385,4.365940500050783,2.0746294000418857,1.7906940000830218,0.14486,0.06497624695787035,0.13277754813130027,,,,None,,0.033,0.03305785123966942,0.30739766926718237,0.30578512396694213,trial_list_0.5_green.csv,0.308237100020051,0.34138230001553893,p13_base_01,001,2023-05-10_15h24.17.119,expectation_shapes_perceived_time,2022.2.4,119.57474437053165,
,-100,0.5,none,,green,red,,396.3865098365787,,,,,0,114,114,481,trial,,,,,,green,0.3963865098365787,0.38842975206611574,2.291735199978575,0.9986023000674322,4e-05,4e-05,,0.39155709999613464,0.4248850999865681,1.9998923999955878,,2.291735199978575,2.291735199978575,2.491870699916035,3.116461499943398,0.8247262999648228,4.583070499938913,2.2913352999603376,1.4666089999955148,0.19743,0.08592066964233425,0.12028893749926794,,,,None,,-0.1,-0.09917355371900827,0.2630565098365787,0.25619834710743805,trial_list_0.5_green.csv,0.2581767999799922,0.2914183000102639,p13_base_01,001,2023-05-10_15h24.17.119,expectation_shapes_perceived_time,2022.2.4,119.57474437053165,
,300,0.5,none,,green,red,,486.2781827196575,,,,,0,115,115,443,trial,,,,,,green,0.4862781827196575,0.4793388429752066,2.291913300054148,0.997029299964197,3e-05,3e-05,0.0332,0.48358720005489886,0.516968599986285,2.000077800010331,2.0334945999784395,2.291913300054148,2.291913300054148,2.4917862999718636,2.549947499996051,0.25803419994190335,3.7328482000157237,1.4409348999615759,1.1829007000196725,0.64161,0.13343531714771498,-0.06361451166344552,,,,None,,0.3,0.2975206611570248,0.8196081827196575,0.8099173553719008,trial_list_0.5_green.csv,0.816566800000146,0.849869400030002,p13_base_01,001,2023-05-10_15h24.17.119,expectation_shapes_perceived_time,2022.2.4,119.57474437053165,
,-300,0.5,none,,green,red,,1745.8190932621103,,,,,0,116,116,395,trial,,,,,,green,1.7458190932621103,1.7272727272727273,2.291483100038022,0.9987851000623778,4e-05,4e-05,0.03325,1.7413876000791788,1.7750909000169486,1.9998668000334874,2.0331037000287324,2.291483100038022,2.291483100038022,2.4913798000197858,2.5251249000430107,0.2336418000049889,5.124409600044601,2.832926500006579,2.59928470000159,1.88688,-0.05143428104907386,0.13858681282667124,,,,None,,-0.3,-0.2975206611570248,1.4124890932621104,1.396694214876033,trial_list_0.5_green.csv,1.40817920002155,1.4416599000105634,p13_base_01,001,2023-05-10_15h24.17.119,expectation_shapes_perceived_time,2022.2.4,119.57474437053165,
,-100,0.5,none,,green,red,,1677.327952088972,,,,,0,117,117,317,trial,,,,,,green,1.6773279520889721,1.6611570247933884,2.2920297000091523,0.997827299986966,5e-05,5e-05,,1.675202599959448,1.7085030999733135,2.0002360999351367,,2.2920297000091523,2.2920297000091523,2.49148789991159,2.574800999951549,0.2827712999423966,4.616834699991159,2.324804999982007,2.0420337000396103,1.3331,-0.12796552152535406,-0.0740041570267108,,,,None,,-0.1,-0.09917355371900827,1.5439979520889722,1.5289256198347108,trial_list_0.5_green.csv,1.5421062000095844,1.5752483999822289,p13_base_01,001,2023-05-10_15h24.17.119,expectation_shapes_perceived_time,2022.2.4,119.57474437053165,
,-167,0.5,none,,green,red,,405.5286759373942,,,,,0,118,118,467,trial,,,,,,green,0.4055286759373942,0.39669421487603307,2.291130500030704,0.9980810999404639,4e-05,4e-05,0.03328,0.3998116999864578,0.43288510001730174,1.9992427999386564,2.032514499966055,2.291130500030704,2.291130500030704,2.49120079993736,2.291130500030704,0.0,4.3248520999914035,2.0337215999606997,2.0337215999606997,0.45671,0.1464585952314735,0.02004170250535953,,,,None,,-0.167,-0.1652892561983471,0.20519867593739421,0.2066115702479339,trial_list_0.5_green.csv,0.2080207000253722,0.24104819993954152,p13_base_01,001,2023-05-10_15h24.17.119,expectation_shapes_perceived_time,2022.2.4,119.57474437053165,
,300,0.5,none,,green,red,,1097.4259121838272,,,,,0,119,119,185,trial,,,,,,green,1.0974259121838272,1.0826446280991735,2.291571300011128,0.9963150999974459,4e-05,4e-05,0.03333,1.0917185000143945,1.1250076999422163,1.99988390004728,2.033121500047855,2.291571300011128,2.291571300011128,2.4917727999854833,2.6415633000433445,0.3499920000322163,4.708535999991,2.4169646999798715,2.066972699947655,1.24753,-0.1037136029474423,-0.10533412799349606,,,,None,,0.3,0.2975206611570248,1.4307559121838271,1.4132231404958677,trial_list_0.5_green.csv,1.4250723000150174,1.458464700030163,p13_base_01,001,2023-05-10_15h24.17.119,expectation_shapes_perceived_time,2022.2.4,119.57474437053165,
