id,delay,expectation,congruency,trial_num,stim_color,distractor_color,block,targetTimeMs,famLoop.thisRepN,famLoop.thisTrialN,famLoop.thisN,famLoop.thisIndex,trialss.thisRepN,trialss.thisTrialN,trialss.thisN,trialss.thisIndex,isTrial,handMove.started,audioCue2Start.started,handOri,handMove.ended,audioCue2End.started,target_color,expected_target_onset,expected_target_onset_in_frames,fixationPoint.started,fixationPoint.stopped,audCueStart.started,placeholder.started,audCueStart.stopped,target.started,target.stopped,audCueEnd.started,audCueEnd.stopped,responsePointer.started,responseStarted,rtUntillMotionTreshold,cueForRep.started,space2pass.started,responsePointer.stopped,rTAfterMotionTreshold,rtDurationBtwRespMotion,perceivedTime,resp_x_coord,resp_y_coord,feedbackPointer.stopped,actualTime_x_coord,actualTime_y_coord,space2pass.keys,space2pass.rt,expected_delay,expected_delays_frame,expected_distractor,expected_distractor_frame,expBlockFiles,distractor.started,distractor.stopped,participant,session,date,expName,psychopyVersion,frameRate,
,,,,,,,,,0,0,0,0,,,,,fam,2.3401625999977114,2.3401625999977114,270.0,4.340091599995503,4.340091599995503,,,,,,,,,,,,,,,,,,,,,,,,,,,,,,,,,,,,p14_high2_01,001,2023-05-11_14h20.27.085,expectation_shapes_perceived_time,2022.2.4,119.95312231196023,
,,,,,,,,,1,0,1,0,,,,,fam,0.49875040000188164,0.49875040000188164,270.0,2.498546000002534,2.498546000002534,,,,,,,,,,,,,,,,,,,,,,,,,,,,,,,,,,,,p14_high2_01,001,2023-05-11_14h20.27.085,expectation_shapes_perceived_time,2022.2.4,119.95312231196023,
,,,,,,,,,2,0,2,0,,,,,fam,0.5187167999974918,0.5187167999974918,270.0,2.530876699995133,2.530876699995133,,,,,,,,,,,,,,,,,,,,,,,,,,,,,,,,,,,,p14_high2_01,001,2023-05-11_14h20.27.085,expectation_shapes_perceived_time,2022.2.4,119.95312231196023,
,,,,,,,,,3,0,3,0,,,,,fam,0.49751739999919664,0.49751739999919664,270.0,2.49711219999881,2.49711219999881,,,,,,,,,,,,,,,,,,,,,,,,,,,,,,,,,,,,p14_high2_01,001,2023-05-11_14h20.27.085,expectation_shapes_perceived_time,2022.2.4,119.95312231196023,
,,,,,,,,,4,0,4,0,,,,,fam,0.4975689999992028,0.4975689999992028,270.0,2.497331899998244,2.497331899998244,,,,,,,,,,,,,,,,,,,,,,,,,,,,,,,,,,,,p14_high2_01,001,2023-05-11_14h20.27.085,expectation_shapes_perceived_time,2022.2.4,119.95312231196023,
,,,,,,,,,5,0,5,0,,,,,fam,0.497159600003215,0.497159600003215,270.0,2.4976586000047973,2.4976586000047973,,,,,,,,,,,,,,,,,,,,,,,,,,,,,,,,,,,,p14_high2_01,001,2023-05-11_14h20.27.085,expectation_shapes_perceived_time,2022.2.4,119.95312231196023,
,,,,,,,,,6,0,6,0,,,,,fam,0.49766860000090674,0.49766860000090674,270.0,2.4975663000004715,2.4975663000004715,,,,,,,,,,,,,,,,,,,,,,,,,,,,,,,,,,,,p14_high2_01,001,2023-05-11_14h20.27.085,expectation_shapes_perceived_time,2022.2.4,119.95312231196023,
,,,,,,,,,7,0,7,0,,,,,fam,0.49829480000335025,0.49829480000335025,270.0,2.498344300001918,2.498344300001918,,,,,,,,,,,,,,,,,,,,,,,,,,,,,,,,,,,,p14_high2_01,001,2023-05-11_14h20.27.085,expectation_shapes_perceived_time,2022.2.4,119.95312231196023,
,,,,,,,,,8,0,8,0,,,,,fam,0.4970940999992308,0.4970940999992308,270.0,2.4974643000023207,2.4974643000023207,,,,,,,,,,,,,,,,,,,,,,,,,,,,,,,,,,,,p14_high2_01,001,2023-05-11_14h20.27.085,expectation_shapes_perceived_time,2022.2.4,119.95312231196023,
,,,,,,,,,9,0,9,0,,,,,fam,0.4976282999996329,0.4976282999996329,270.0,2.497884399999748,2.497884399999748,,,,,,,,,,,,,,,,,,,,,,,,,,,,,,,,,,,,p14_high2_01,001,2023-05-11_14h20.27.085,expectation_shapes_perceived_time,2022.2.4,119.95312231196023,
,,,,,,,,,10,0,10,0,,,,,fam,0.4973720999987563,0.4973720999987563,270.0,2.4975583999985247,2.4975583999985247,,,,,,,,,,,,,,,,,,,,,,,,,,,,,,,,,,,,p14_high2_01,001,2023-05-11_14h20.27.085,expectation_shapes_perceived_time,2022.2.4,119.95312231196023,
,,,,,,,,,11,0,11,0,,,,,fam,0.49735530000180006,0.49735530000180006,270.0,2.4975284000029205,2.4975284000029205,,,,,,,,,,,,,,,,,,,,,,,,,,,,,,,,,,,,p14_high2_01,001,2023-05-11_14h20.27.085,expectation_shapes_perceived_time,2022.2.4,119.95312231196023,
,,,,,,,,,12,0,12,0,,,,,fam,0.49768369999947026,0.49768369999947026,270.0,2.4971731999976328,2.4971731999976328,,,,,,,,,,,,,,,,,,,,,,,,,,,,,,,,,,,,p14_high2_01,001,2023-05-11_14h20.27.085,expectation_shapes_perceived_time,2022.2.4,119.95312231196023,
,,,,,,,,,13,0,13,0,,,,,fam,0.4973540999999386,0.4973540999999386,270.0,2.497399100000621,2.497399100000621,,,,,,,,,,,,,,,,,,,,,,,,,,,,,,,,,,,,p14_high2_01,001,2023-05-11_14h20.27.085,expectation_shapes_perceived_time,2022.2.4,119.95312231196023,
,,,,,,,,,14,0,14,0,,,,,fam,0.4970744000020204,0.4970744000020204,270.0,2.4971922999975504,2.4971922999975504,,,,,,,,,,,,,,,,,,,,,,,,,,,,,,,,,,,,p14_high2_01,001,2023-05-11_14h20.27.085,expectation_shapes_perceived_time,2022.2.4,119.95312231196023,
,,,,,,,,,15,0,15,0,,,,,fam,0.49744790000113426,0.49744790000113426,270.0,2.497426499998255,2.497426499998255,,,,,,,,,,,,,,,,,,,,,,,,,,,,,,,,,,,,p14_high2_01,001,2023-05-11_14h20.27.085,expectation_shapes_perceived_time,2022.2.4,119.95312231196023,
,,,,,,,,,16,0,16,0,,,,,fam,0.4972444999948493,0.4972444999948493,270.0,2.4974179999990156,2.4974179999990156,,,,,,,,,,,,,,,,,,,,,,,,,,,,,,,,,,,,p14_high2_01,001,2023-05-11_14h20.27.085,expectation_shapes_perceived_time,2022.2.4,119.95312231196023,
,,,,,,,,,17,0,17,0,,,,,fam,0.49702070000057574,0.49702070000057574,270.0,2.497312800005602,2.497312800005602,,,,,,,,,,,,,,,,,,,,,,,,,,,,,,,,,,,,p14_high2_01,001,2023-05-11_14h20.27.085,expectation_shapes_perceived_time,2022.2.4,119.95312231196023,
,,,,,,,,,18,0,18,0,,,,,fam,0.49714339999627555,0.49714339999627555,270.0,2.497072999998636,2.497072999998636,,,,,,,,,,,,,,,,,,,,,,,,,,,,,,,,,,,,p14_high2_01,001,2023-05-11_14h20.27.085,expectation_shapes_perceived_time,2022.2.4,119.95312231196023,
,,,,,,,,,19,0,19,0,,,,,fam,0.4973522999935085,0.4973522999935085,270.0,2.4973229999959585,2.4973229999959585,,,,,,,,,,,,,,,,,,,,,,,,,,,,,,,,,,,,p14_high2_01,001,2023-05-11_14h20.27.085,expectation_shapes_perceived_time,2022.2.4,119.95312231196023,
,,,,,,,,,,,,,0,0,0,0,test,,,,,,green,0.891248162376444,0.8916666666666666,2.3003223999985494,0.998628400004236,3.0399998649954796e-05,3e-05,0.03341750000254251,0.8916234999996959,0.9251377999971737,2.0001276999973925,2.0336963000008836,2.3003223999985494,2.3003223999985494,0.0,2.3003223999985494,2.6006524999975227,13.64207929999975,11.3417569000012,11.3417569000012,0.79205,0.08984918785748384,-0.11738361639445472,13.64207929999975,0.04952766478568525,-0.1392795763109822,space,11.034966799998074,,,,,,,,p14_high2_01,001,2023-05-11_14h20.27.085,expectation_shapes_perceived_time,2022.2.4,119.95312231196023,
,,,,,,,,,,,,,1,0,1,0,test,,,,,,green,0.5378957126971977,0.5416666666666666,2.300062099995557,0.9962940999976126,3.119999746559188e-05,3e-05,0.03361249999579741,0.5413617999947746,0.5746882999956142,2.000210499994864,2.0333334999959334,2.300062099995557,2.300062099995557,0.0,2.300062099995557,2.600280999999086,8.125108199994429,5.825046099998872,5.825046099998872,1.62476,-0.13661359150440167,0.05646695115515269,8.125108199994429,0.14677715124976234,-0.01755727278065462,space,5.521745699996245,,,,,,,,p14_high2_01,001,2023-05-11_14h20.27.085,expectation_shapes_perceived_time,2022.2.4,119.95312231196023,
,,,,,,,,,,,,,2,0,2,0,test,,,,,,red,0.2346477603277301,0.23333333333333334,2.30009560000326,0.9976276000015787,5.4299998737405986e-05,5e-05,,0.23296280000067782,0.26655849999951897,1.9999876000001677,,2.30009560000326,2.683242600003723,0.38314700000046287,2.30009560000326,2.599887900003523,9.583388300001388,7.283292699998128,6.900145699997665,0.55207,0.14585030162268536,-0.02407237987947234,9.583388300001388,0.0993660215283628,0.10944488897209803,space,6.9798062999980175,,,,,,,,p14_high2_01,001,2023-05-11_14h20.27.085,expectation_shapes_perceived_time,2022.2.4,119.95312231196023,
,,,,,,,,,,,,,3,0,3,0,test,,,,,,red,1.1224046535322196,1.125,2.300248899999133,0.9968613000019104,5.870000313734636e-05,6e-05,0.03311760000360664,1.1246755000029225,1.158203200000571,2.0003285000057076,2.0335140000024694,2.300248899999133,2.5997983000052045,0.29954940000607166,2.300248899999133,2.5997983000052045,8.22500630000286,5.9247574000037275,5.625207999997656,1.0835,-0.038335369934792946,-0.14276620527440134,8.22500630000286,-0.05545420446408883,-0.13702781164327538,space,5.621061999998346,,,,,,,,p14_high2_01,001,2023-05-11_14h20.27.085,expectation_shapes_perceived_time,2022.2.4,119.95312231196023,
,,,,,,,,,,,,,4,0,4,0,test,,,,,,red,1.0624742357922974,1.0583333333333333,2.3001020000010612,0.9966406000021379,6.259999645408243e-05,6e-05,,1.058307799998147,1.0916607999970438,2.000009899995348,,2.3001020000010612,2.5664647000012337,0.2663627000001725,2.3001020000010612,2.5997581999981776,6.908433700002206,4.608331700001145,4.341969000000972,0.93964,0.02786169375630227,-0.14517408851968022,6.908433700002206,-0.028827200945028202,-0.14498545596771037,space,4.30033320000075,,,,,,,,p14_high2_01,001,2023-05-11_14h20.27.085,expectation_shapes_perceived_time,2022.2.4,119.95312231196023,
,,,,,,,,,,,,,5,0,5,0,test,,,,,,green,0.7625603838668349,0.7583333333333333,2.2997891000050004,0.9970096000033664,3.100000321865082e-05,3e-05,0.03327680000074906,0.758045000002312,0.7915234000029159,2.000081500002125,2.0333126000041375,2.2997891000050004,2.441549600000144,0.14176049999514362,2.2997891000050004,2.6000401000055717,4.866642700006196,2.5668536000011954,2.425093100006052,0.59502,0.14128660736146373,-0.043472802265065766,4.866642700006196,0.1003221145164819,-0.1085691636489469,space,2.263377799994487,,,,,,,,p14_high2_01,001,2023-05-11_14h20.27.085,expectation_shapes_perceived_time,2022.2.4,119.95312231196023,
,,,,,,,,,,,,,6,0,6,0,test,,,,,,green,0.9180633855955506,0.9166666666666666,2.2999423000001116,0.9967783000029158,4.1600003896746784e-05,4e-05,0.033208500004548114,0.9165952000039397,0.9499155000012252,1.9999241000041366,2.0333229000025312,2.2999423000001116,2.5499344000054407,0.24999210000532912,2.2999423000001116,2.600072300003376,5.075068500002089,2.775126200001978,2.5251340999966487,0.93305,0.03086238584381601,-0.14456591263682234,5.075068500002089,0.037632637043930085,-0.14295305028438443,space,2.4692874000029406,,,,,,,,p14_high2_01,001,2023-05-11_14h20.27.085,expectation_shapes_perceived_time,2022.2.4,119.95312231196023,
,,,,,,,,,,,,,7,0,7,0,test,,,,,,green,1.1404048078202071,1.1416666666666666,2.3006085000015446,0.9968595999962417,6.25000029685907e-05,6e-05,,1.1418056000038632,1.1750128000057884,1.9996955000024172,,2.3006085000015446,2.6776870000030613,0.37707850000151666,2.3006085000015446,2.6001937000037287,5.391842200006067,3.0912337000045227,2.714155200003006,0.89664,0.04716182612658744,-0.1400983658466274,5.391842200006067,-0.063110239587767,-0.13367455859536087,space,2.7856326999972225,,,,,,,,p14_high2_01,001,2023-05-11_14h20.27.085,expectation_shapes_perceived_time,2022.2.4,119.95312231196023,
,,,,,,,,,,,,,8,0,8,0,test,,,,,,green,1.6183996644279164,1.6166666666666667,2.2999488999994355,0.9968306000009761,6.27999979769811e-05,6e-05,,1.6166136000028928,1.6500127999970573,2.0000424000027124,,2.2999488999994355,2.2999488999994355,0.0,2.2999488999994355,2.5996961999990162,4.691574999997101,2.3916260999976657,2.3916260999976657,1.3858,-0.1384114650615487,-0.051904299398080764,4.691574999997101,-0.13771467434862533,0.053725770590490364,space,2.090337299996463,,,,,,,,p14_high2_01,001,2023-05-11_14h20.27.085,expectation_shapes_perceived_time,2022.2.4,119.95312231196023,
,,,,,,,,,,,,,9,0,9,0,test,,,,,,green,0.33869815365848444,0.3416666666666667,2.300765899999533,0.9965344999945955,1.7300000763498247e-05,2e-05,0.033390500000678,0.3423897999964538,0.37594099999842,2.000970499997493,2.034059099998558,2.300765899999533,2.418989199999487,0.11822329999995418,2.300765899999533,2.6936051000011503,4.442147999994631,2.1413820999950985,2.0231587999951444,0.45806,0.1465421611493799,0.019421250272809384,4.442147999994631,0.1292463880544618,0.07174371841050195,space,1.7449496999979601,,,,,,,,p14_high2_01,001,2023-05-11_14h20.27.085,expectation_shapes_perceived_time,2022.2.4,119.95312231196023,
,,,,,,,,,,,,,10,0,10,0,test,,,,,,green,0.21460312774259518,0.21666666666666667,2.2997276000023703,0.9968968999965,0.00016490000416524708,0.00016,0.03324270000302931,0.21665090000169585,0.24976839999726508,1.9999061999988044,2.0332320000015898,2.2997276000023703,2.6582205000013346,0.3584928999989643,2.2997276000023703,2.599739999997837,5.8080047000039485,3.508277100001578,3.149784200002614,0.29517,0.11825880758807587,0.0886941056910569,5.8080047000039485,0.09228165239065675,0.11548110922804614,space,3.2045373000000836,,,,,,,,p14_high2_01,001,2023-05-11_14h20.27.085,expectation_shapes_perceived_time,2022.2.4,119.95312231196023,
,,,,,,,,,,,,,11,0,11,0,test,,,,,,red,1.492869534308888,1.4916666666666667,2.300233299996762,0.9974039000007906,5.469999450724572e-05,5e-05,0.03348919999552891,1.491951899995911,1.5250850999946124,1.9999811999950907,2.0334321999980602,2.300233299996762,2.300233299996762,0.0,2.300233299996762,2.599797499999113,4.658514099995955,2.358280799999193,2.358280799999193,1.62037,-0.1373800869066035,0.05457565096289728,4.658514099995955,-0.14778642170096104,-0.003311120250857465,space,2.0529232999979286,,,,,,,,p14_high2_01,001,2023-05-11_14h20.27.085,expectation_shapes_perceived_time,2022.2.4,119.95312231196023,
,,,,,,,,,,,,,12,0,12,0,test,,,,,,green,1.837851529167728,1.8333333333333333,2.2998397999981535,0.9971184000023641,0.00014649999502580613,0.00015,,1.8328538999994635,1.8662165999994613,1.999485000000277,,2.2998397999981535,2.433359799993923,0.13351999999576947,2.2998397999981535,2.599782999997842,4.60819349999656,2.3083536999984062,2.1748337000026368,1.19491,-0.0849644069299598,-0.12096627427316312,4.60819349999656,-0.07208722722589382,0.1290551108146139,space,2.0029647999981535,,,,,,,,p14_high2_01,001,2023-05-11_14h20.27.085,expectation_shapes_perceived_time,2022.2.4,119.95312231196023,
,,,,,,,,,,,,,13,0,13,0,test,,,,,,green,0.35887108115315536,0.35833333333333334,2.300074799997674,0.9967459999970743,6.310000026132911e-05,6e-05,,0.3583543999993708,0.3918628999963403,2.000051999995776,,2.300074799997674,2.3334113999953843,0.03333659999771044,2.300074799997674,2.6000686999977916,4.866584600000351,2.5665098000026774,2.533173200004967,0.3056,0.12110173757333884,0.08477121630133719,4.866584600000351,0.1335306457582636,0.06341416718581934,space,2.265244200003508,,,,,,,,p14_high2_01,001,2023-05-11_14h20.27.085,expectation_shapes_perceived_time,2022.2.4,119.95312231196023,
,,,,,,,,,,,,,14,0,14,0,test,,,,,,green,0.9659815154829228,0.9666666666666667,2.3002541000023484,0.9978374000056647,4.440000338945538e-05,4e-05,0.03339889999915613,0.966636600001948,1.0000580999985687,1.999915400003374,2.033133999997517,2.3002541000023484,2.383379699997022,0.0831255999946734,2.3002541000023484,2.600318299999344,4.066599999998289,1.7663458999959403,1.6832203000012669,1.24104,-0.10154230468879093,-0.10742881510553244,4.066599999998289,0.015768170258168852,-0.1469801168974883,space,1.4639405999987503,,,,,,,,p14_high2_01,001,2023-05-11_14h20.27.085,expectation_shapes_perceived_time,2022.2.4,119.95312231196023,
,,,,,,,,,,,,,15,0,15,0,test,,,,,,red,0.7627418557960192,0.7583333333333333,2.300215199997183,0.9971893999972963,2.469999890308827e-05,2e-05,0.03356569999596104,0.7587120999960462,0.7920567999972263,2.000275699996564,2.033590999999433,2.300215199997183,2.5086405999973067,0.20842540000012377,2.300215199997183,2.6001907999961986,4.216846999996051,1.9166317999988678,1.708206399998744,0.94184,0.026860492154430086,-0.14536266342397458,4.216846999996051,0.10026020175478594,-0.10862634073087221,space,1.6135670000003302,,,,,,,,p14_high2_01,001,2023-05-11_14h20.27.085,expectation_shapes_perceived_time,2022.2.4,119.95312231196023,
,,,,,,,,,,,,,16,0,16,0,test,,,,,,green,0.23527097315362192,0.23333333333333334,2.3000616999997874,0.9965962999995099,4.350000381236896e-05,4e-05,,0.23315659999934724,0.26655079999909503,2.0002623000036692,,2.3000616999997874,2.666854600000079,0.3667929000002914,2.3000616999997874,2.6013411000021733,4.458639600001334,2.1585779000015464,1.791785000001255,0.79581,0.08845404784626285,-0.11843847084499601,4.458639600001334,0.09958011099242535,0.1092501324998106,space,1.851196899995557,,,,,,,,p14_high2_01,001,2023-05-11_14h20.27.085,expectation_shapes_perceived_time,2022.2.4,119.95312231196023,
,,,,,,,,,,,,,17,0,17,0,test,,,,,,red,1.332894638222966,1.3333333333333333,2.300114300000132,0.9972379000028013,0.00011960000119870529,0.00012,0.033322200004477054,1.3332465999992564,1.3667830000049435,1.9998946000050637,,2.300114300000132,2.707862200004456,0.40774790000432404,2.300114300000132,2.599541399998998,5.441306699998677,3.1411923999985447,2.7334444999942207,0.79769,0.08775527097978694,-0.11895714510593339,5.441306699998677,-0.12791692766175006,-0.0740881203302427,space,2.8416157999963616,,,,,,,,p14_high2_01,001,2023-05-11_14h20.27.085,expectation_shapes_perceived_time,2022.2.4,119.95312231196023,
,,,,,,,,,,,,,18,0,18,0,test,,,,,,green,1.2418251222246153,1.2416666666666667,2.2999086000054376,0.9975520000007236,3.3700001949910074e-05,3e-05,,1.2415694000010262,1.274810000002617,1.9998051000002306,,2.2999086000054376,2.2999086000054376,0.0,2.2999086000054376,2.599819600000046,3.7499090999990585,1.450000499993621,1.450000499993621,0.96719,0.015210913636496399,-0.14703883181946517,3.7499090999990585,-0.1018083546335321,-0.10717671800956999,space,1.1440893999970285,,,,,,,,p14_high2_01,001,2023-05-11_14h20.27.085,expectation_shapes_perceived_time,2022.2.4,119.95312231196023,
,,,,,,,,,,,,,19,0,19,0,test,,,,,,red,1.7769961465997597,1.775,2.300076799998351,0.9970366000052309,3.090000245720148e-05,3e-05,,1.7750540000051842,1.8083154999985709,2.000112599998829,,2.300076799998351,2.3917347000024165,0.0916579000040656,2.300076799998351,2.599933900004544,3.916666199998872,1.616589400000521,1.5249314999964554,1.47354,-0.14731289134624298,-0.012276074278853584,3.916666199998872,-0.095296900417867,0.1130057110381465,space,1.3136161000002176,,,,,,,,p14_high2_01,001,2023-05-11_14h20.27.085,expectation_shapes_perceived_time,2022.2.4,119.95312231196023,
,,,,,,,,,0,0,0,0,,,,,fam,0.5558482000051299,0.5558482000051299,270.0,2.5560553000032087,2.5560553000032087,,,,,,,,,,,,,,,,,,,,,,,,,,,,,,,,,,,,p14_high2_01,001,2023-05-11_14h20.27.085,expectation_shapes_perceived_time,2022.2.4,119.95312231196023,
,,,,,,,,,1,0,1,0,,,,,fam,0.4972624000001815,0.4972624000001815,270.0,2.497046299999056,2.497046299999056,,,,,,,,,,,,,,,,,,,,,,,,,,,,,,,,,,,,p14_high2_01,001,2023-05-11_14h20.27.085,expectation_shapes_perceived_time,2022.2.4,119.95312231196023,
,,,,,,,,,2,0,2,0,,,,,fam,0.49739700000645826,0.49739700000645826,270.0,2.497429100003501,2.497429100003501,,,,,,,,,,,,,,,,,,,,,,,,,,,,,,,,,,,,p14_high2_01,001,2023-05-11_14h20.27.085,expectation_shapes_perceived_time,2022.2.4,119.95312231196023,
,,,,,,,,,3,0,3,0,,,,,fam,0.49748169999656966,0.49748169999656966,270.0,2.497554100002162,2.497554100002162,,,,,,,,,,,,,,,,,,,,,,,,,,,,,,,,,,,,p14_high2_01,001,2023-05-11_14h20.27.085,expectation_shapes_perceived_time,2022.2.4,119.95312231196023,
,,,,,,,,,4,0,4,0,,,,,fam,0.4990800000014133,0.4990800000014133,270.0,2.4993295000022044,2.4993295000022044,,,,,,,,,,,,,,,,,,,,,,,,,,,,,,,,,,,,p14_high2_01,001,2023-05-11_14h20.27.085,expectation_shapes_perceived_time,2022.2.4,119.95312231196023,
,,,,,,,,,,,,,0,0,0,0,testSingleStim,,,,,,green,1.707295655114523,1.7083333333333333,0.04937470000004396,0.9976218999945559,6.430000212276354e-05,6e-05,0.033249899999646004,1.7083658999981708,1.7417563999988488,1.999888500002271,2.0332266999976127,2.299869700000272,3.54995030000282,1.2500806000025477,2.299869700000272,2.599516800000856,5.483139199997822,3.18326949999755,1.9331888999950024,1.03744,-0.017349312821055743,-0.1468018777166255,,,,None,,,,,,,,,p14_high2_01,001,2023-05-11_14h20.27.085,expectation_shapes_perceived_time,2022.2.4,119.95312231196023,
,,,,,,,,,,,,,1,0,1,0,testSingleStim,,,,,,red,0.8424876966574072,0.8416666666666667,0.005928300000960007,0.9943725000048289,7.700000423938036e-05,8e-05,,0.8415826999989804,0.8747862000018358,2.0001716000042506,,2.300175600001239,2.367718599998625,0.06754299999738578,2.300175600001239,2.5999420000007376,4.016411199998402,1.7162355999971624,1.6486925999997766,0.40634,0.14147070612623883,0.042869910947345095,,,,None,,,,,,,,,p14_high2_01,001,2023-05-11_14h20.27.085,expectation_shapes_perceived_time,2022.2.4,119.95312231196023,
,,,,,,,,,,,,,2,0,2,0,testSingleStim,,,,,,green,1.4771245954821728,1.475,0.004846499999985099,0.9964443999997457,0.00015640000492567196,0.00016,0.03320710000116378,1.474991000002774,1.508372900003451,2.00005930000043,2.033413400000427,2.3000827000068966,2.3000827000068966,0.0,2.3000827000068966,2.6001044000004185,3.2081580000012764,0.9080752999943797,0.9080752999943797,1.47326,-0.14730214201675526,-0.01240439090667413,,,,None,,,,,,,,,p14_high2_01,001,2023-05-11_14h20.27.085,expectation_shapes_perceived_time,2022.2.4,119.95312231196023,
,,,,,,,,,,,,,3,0,3,0,testSingleStim,,,,,,green,0.5357831006982774,0.5333333333333333,0.004874600002949592,0.9963340000031167,4.529999569058418e-05,5e-05,0.03323559999989811,0.5331604999955744,0.5667089999988093,1.9999515999952564,2.0332019999987097,2.2998489999954472,2.2998489999954472,0.0,2.2998489999954472,2.6000430999993114,3.658422900000005,1.3585739000045578,1.3585739000045578,0.3455,0.13074932931623603,0.06896667919977285,,,,None,,,,,,,,,p14_high2_01,001,2023-05-11_14h20.27.085,expectation_shapes_perceived_time,2022.2.4,119.95312231196023,
,,,,,,,,,,,,,4,0,4,0,testSingleStim,,,,,,red,1.0658250731943135,1.0666666666666667,0.004932700001518242,0.9962611000009929,0.0001494999960414134,0.00015,0.03351579999434762,1.0668239999940852,1.099933699995745,1.999858299997868,2.0330912999997963,2.2995922999980394,2.2995922999980394,0.0,2.2995922999980394,2.6000402999998187,3.224924899994221,0.9253325999961817,0.9253325999961817,1.29059,-0.1169705259087083,-0.09038631547491094,,,,None,,,,,,,,,p14_high2_01,001,2023-05-11_14h20.27.085,expectation_shapes_perceived_time,2022.2.4,119.95312231196023,
,,,,,,,,,,,,,5,0,5,0,testSingleStim,,,,,,red,1.1349327296676717,1.1333333333333333,0.005169000003661495,0.996355900002527,3.149999974993989e-05,3e-05,0.03354360000230372,1.133377300000575,1.1667445000057342,2.0000963999991654,2.0333972000007634,2.300197800002934,2.399885999999242,0.09968819999630796,2.300197800002934,2.6000582999986364,8.23350930000015,5.933311499997217,5.833623300000909,0.99394,0.0028151752518787237,-0.147796700723633,,,,None,,,,,,,,,p14_high2_01,001,2023-05-11_14h20.27.085,expectation_shapes_perceived_time,2022.2.4,119.95312231196023,
,,,,,,,,,,,,,6,0,6,0,testSingleStim,,,,,,red,0.18101220478282892,0.18333333333333332,0.004143600002862513,0.9970803999967757,3.090000245720148e-05,3e-05,,0.1831711999984691,0.21644860000378685,1.9998620999976993,,2.2997266000020318,2.2997266000020318,0.0,2.2997266000020318,2.5997803999998723,3.7994192999976804,1.4996926999956486,1.4996926999956486,0.378,0.13709765323785364,0.0552813117894571,,,,None,,,,,,,,,p14_high2_01,001,2023-05-11_14h20.27.085,expectation_shapes_perceived_time,2022.2.4,119.95312231196023,
,,,,,,,,,,,,,7,0,7,0,testSingleStim,,,,,,red,0.7556424553729171,0.7583333333333333,0.0026922999968519434,0.9991183999954956,3.109999670414254e-05,3e-05,,0.7582928999981959,0.7916093000021647,2.0000425999969593,,2.2998030000017025,2.2998030000017025,0.0,2.2998030000017025,2.600176300002204,3.2000039999984438,0.9002009999967413,0.9002009999967413,0.73776,0.10846707795551444,-0.1004324795884393,,,,None,,,,,,,,,p14_high2_01,001,2023-05-11_14h20.27.085,expectation_shapes_perceived_time,2022.2.4,119.95312231196023,
,,,,,,,,,,,,,8,0,8,0,testSingleStim,,,,,,red,0.614687057793092,0.6166666666666667,0.005045900004915893,0.9958532000018749,3.120000474154949e-05,3e-05,,0.6168336000046111,0.6498843000008492,2.000026000001526,,2.299878900004842,2.4333841999978176,0.13350529999297578,2.299878900004842,2.599885900002846,4.250184600001376,1.9503056999965338,1.816800400003558,0.76201,0.10051105253112935,-0.10839427233749244,,,,None,,,,,,,,,p14_high2_01,001,2023-05-11_14h20.27.085,expectation_shapes_perceived_time,2022.2.4,119.95312231196023,
,,,,,,,,,,,,,9,0,9,0,testSingleStim,,,,,,red,1.3825211013968448,1.3833333333333333,0.005549699999392033,0.996327900000324,3.18000020342879e-05,3e-05,,1.3833102999997209,1.4167118000041228,2.0001292000015383,,2.3001103999995394,2.3001103999995394,0.0,2.3001103999995394,2.5999654000042938,3.299855600002047,0.9997452000025078,0.9997452000025078,1.44126,-0.14531350306742125,-0.027125187239251964,,,,None,,,,,,,,,p14_high2_01,001,2023-05-11_14h20.27.085,expectation_shapes_perceived_time,2022.2.4,119.95312231196023,
,,,,,,,,,,,,,10,0,10,0,testSingleStim,,,,,,green,1.282297322542549,1.2833333333333332,0.005007699997804593,0.9960657999981777,5.029999738326296e-05,5e-05,,1.283118100000138,1.3165641000014148,1.9997512999980245,,2.300017800000205,2.383556300002965,0.08353850000275997,2.300017800000205,2.599825500001316,3.316500499997346,1.016482699997141,0.932944199994381,1.32917,-0.127040514955087,-0.07558106585935555,,,,None,,,,,,,,,p14_high2_01,001,2023-05-11_14h20.27.085,expectation_shapes_perceived_time,2022.2.4,119.95312231196023,
,,,,,,,,,,,,,11,0,11,0,testSingleStim,,,,,,green,1.1487137583191045,1.15,0.00499149999814108,0.9960256999984267,4.6799999836366624e-05,5e-05,0.0335239999985788,1.150130399997579,1.1833741000009468,2.000205800002732,2.0335771000027307,2.300002099997073,2.300002099997073,0.0,2.300002099997073,2.600136900000507,3.2582381000029272,0.9582360000058543,0.9582360000058543,1.51935,-0.147550417391261,0.00898132975425067,,,,None,,,,,,,,,p14_high2_01,001,2023-05-11_14h20.27.085,expectation_shapes_perceived_time,2022.2.4,119.95312231196023,
,,,,,,,,,,,,,12,0,12,0,testSingleStim,,,,,,red,1.1069149950051802,1.1083333333333334,0.005157799998414703,0.9946417000028305,3.220000508008525e-05,3e-05,0.03353610000340268,1.1085628000000725,1.1416625000056229,1.9999454999997397,2.033462800005509,2.300165200002084,2.391677899999195,0.09151269999711076,2.300165200002084,2.600073599998723,3.066716400004225,0.7665512000021408,0.6750385000050301,1.34947,-0.1315996077639689,-0.0673300318792399,,,,None,,,,,,,,,p14_high2_01,001,2023-05-11_14h20.27.085,expectation_shapes_perceived_time,2022.2.4,119.95312231196023,
,,,,,,,,,,,,,13,0,13,0,testSingleStim,,,,,,green,1.010023211399788,1.0083333333333333,0.0048144000029424205,0.9954881000012392,3.1100003980100155e-05,3e-05,0.033460300001024734,1.008588199998485,1.0416419000030146,2.000257799998508,2.033281900003203,2.2999770000024,2.2999770000024,0.0,2.2999770000024,2.5996584000022267,3.1418284000028507,0.8418514000004507,0.8418514000004507,1.16961,-0.07509212841402144,-0.12733013078899288,,,,None,,,,,,,,,p14_high2_01,001,2023-05-11_14h20.27.085,expectation_shapes_perceived_time,2022.2.4,119.95312231196023,
,,,,,,,,,,,,,14,0,14,0,testSingleStim,,,,,,red,0.6123894185328214,0.6083333333333333,0.005219600003329106,0.9963675999970292,5.999999848427251e-05,6e-05,0.03305510000063805,0.6081539999941015,0.6414558999967994,1.9998794999992242,2.033241699995415,2.2998809999990044,2.2998809999990044,0.0,2.2998809999990044,2.5998238999964087,3.3661365999942063,1.066255599995202,1.066255599995202,0.43421,0.14467737430097455,0.030335578482462405,,,,None,,,,,,,,,p14_high2_01,001,2023-05-11_14h20.27.085,expectation_shapes_perceived_time,2022.2.4,119.95312231196023,
,,,,,,,,,,,,,15,0,15,0,testSingleStim,,,,,,green,1.1622644924166026,1.1583333333333332,0.0029781999983242713,0.9985645999986446,7.190000178525224e-05,7e-05,,1.1583373000030406,1.191577799996594,2.0000243999966187,2.0331084999997984,2.2998403000019607,2.2998403000019607,0.0,2.2998403000019607,2.59958899999765,3.28316530000302,0.9833250000010594,0.9833250000010594,1.5,-0.14782350948509485,0.0,,,,None,,,,,,,,,p14_high2_01,001,2023-05-11_14h20.27.085,expectation_shapes_perceived_time,2022.2.4,119.95312231196023,
,,,,,,,,,,,,,16,0,16,0,testSingleStim,,,,,,green,0.6573017372495813,0.6583333333333333,0.004903499997453764,0.9959433999974863,2.699999458855018e-05,3e-05,0.03341169999475824,0.6586724000007962,0.6919512999957078,2.0002651999966474,2.033599599999434,2.300209900000482,2.3917565000010654,0.09154660000058357,2.300209900000482,2.6003161999979056,3.4167591000004904,1.1165492000000086,1.025002599999425,0.74723,0.10543195045271496,-0.10361415820353019,,,,None,,,,,,,,,p14_high2_01,001,2023-05-11_14h20.27.085,expectation_shapes_perceived_time,2022.2.4,119.95312231196023,
,,,,,,,,,,,,,17,0,17,0,testSingleStim,,,,,,green,1.5711145722343587,1.5666666666666667,0.004959499994583894,0.995152199997392,3.139999898849055e-05,3e-05,,1.5666885999962687,1.5999280999967596,1.999942700000247,,2.2999863000004552,2.2999863000004552,0.0,2.2999863000004552,2.600153200000932,3.5333351000008406,1.2333488000003854,1.2333488000003854,1.57181,-0.14407763064688697,0.03306699719764619,,,,None,,,,,,,,,p14_high2_01,001,2023-05-11_14h20.27.085,expectation_shapes_perceived_time,2022.2.4,119.95312231196023,
,,,,,,,,,,,,,18,0,18,0,testSingleStim,,,,,,red,0.4397065836175382,0.44166666666666665,0.00439850000111619,0.9975603999992018,5.0900001951958984e-05,5e-05,0.03326019999803975,0.4416292000023532,0.4750123999983771,2.0001790000023902,2.033601800001634,2.3001857999988715,2.3001857999988715,0.0,2.3001857999988715,2.599962799999048,3.2582485000020824,0.9580627000032109,0.9580627000032109,0.43569,0.144817109228914,0.029661335625199254,,,,None,,,,,,,,,p14_high2_01,001,2023-05-11_14h20.27.085,expectation_shapes_perceived_time,2022.2.4,119.95312231196023,
,,,,,,,,,,,,,19,0,19,0,testSingleStim,,,,,,red,0.3301444786653192,0.3333333333333333,0.0053084999963175505,0.9946997000006377,5.310000415192917e-05,5e-05,0.03336440000566654,0.33319699999992736,0.36661800000001676,2.000025100001949,2.033340000001772,2.299853100004839,2.299853100004839,0.0,2.299853100004839,2.5999792000002344,2.999952000005578,0.7000989000007394,0.7000989000007394,0.42102,0.14329677480939493,0.03630184961838005,,,,None,,,,,,,,,p14_high2_01,001,2023-05-11_14h20.27.085,expectation_shapes_perceived_time,2022.2.4,119.95312231196023,
,,,,,,,,,,,,,20,0,20,0,testSingleStim,,,,,,green,0.7650153091154942,0.7666666666666666,0.004489500002819113,0.9975173000057111,5.77000027988106e-05,6e-05,0.03333820000261767,0.7669667000009213,0.8002372000046307,2.0002478000023984,2.033361000001605,2.3002534999977797,2.4833997000023373,0.1831462000045576,2.3002534999977797,2.599743800004944,3.583333100003074,1.2830796000052942,1.0999334000007366,1.4107,-0.142044638292044,-0.04092811611804658,,,,None,,,,,,,,,p14_high2_01,001,2023-05-11_14h20.27.085,expectation_shapes_perceived_time,2022.2.4,119.95312231196023,
,,,,,,,,,,,,,21,0,21,0,testSingleStim,,,,,,green,1.5614613070513965,1.5583333333333333,0.00477859999955399,0.996465199998056,3.37999954354018e-05,3e-05,0.033123399996839,1.5584111999996821,1.5917017999963718,1.999800999998115,2.033105999995314,2.299792799996794,2.424830899995868,0.1250380999990739,2.299792799996794,2.5999932999984594,3.224450599998818,0.9246578000020236,0.7996197000029497,1.82388,-0.07768020183774593,0.12576794583254103,,,,None,,,,,,,,,p14_high2_01,001,2023-05-11_14h20.27.085,expectation_shapes_perceived_time,2022.2.4,119.95312231196023,
,,,,,,,,,,,,,22,0,22,0,testSingleStim,,,,,,red,1.797565109516692,1.8,0.002981799996632617,0.9988845999978366,0.0001227999964612536,0.00012,0.03324859999702312,1.799922999998671,1.8331833999982337,1.9997492999973474,,2.2996211999998195,2.2996211999998195,0.0,2.2996211999998195,2.633806400001049,3.1713237000003573,0.8717025000005378,0.8717025000005378,1.47529,-0.1473784074230182,-0.011462765021790302,,,,None,,,,,,,,,p14_high2_01,001,2023-05-11_14h20.27.085,expectation_shapes_perceived_time,2022.2.4,119.95312231196023,
,,,,,,,,,,,,,23,0,23,0,testSingleStim,,,,,,red,0.5996421162929028,0.6,0.004639599996153265,0.9924014999996871,3.2199997804127634e-05,3e-05,0.03327729999728035,0.6000664999955916,0.6332913000005647,1.9998320999948191,,2.299812400000519,2.299812400000519,0.0,2.299812400000519,2.5999368999982835,3.3830554999949527,1.0832430999944336,1.0832430999944336,0.56605,0.1446526634226262,-0.030453192299500255,,,,None,,,,,,,,,p14_high2_01,001,2023-05-11_14h20.27.085,expectation_shapes_perceived_time,2022.2.4,119.95312231196023,
,,,,,,,,,,,,,24,0,24,0,testSingleStim,,,,,,green,0.3708866720129671,0.36666666666666664,0.005009500004234724,0.995430299997679,3.2500000088475645e-05,3e-05,,0.36617020000267075,0.39951660000224365,1.9999852999972063,,2.29979579999781,2.40834249999898,0.1085467000011704,2.29979579999781,2.6000471000006655,3.1916767000002437,0.8918809000024339,0.7833342000012635,0.36448,0.1346271266066737,0.06105183648442179,,,,None,,,,,,,,,p14_high2_01,001,2023-05-11_14h20.27.085,expectation_shapes_perceived_time,2022.2.4,119.95312231196023,
,,,,,,,,,,,,,25,0,25,0,testSingleStim,,,,,,red,0.861477062053881,0.8583333333333333,0.0047691999934613705,0.9954375999950571,0.00014540000120177865,0.00015,0.03323249999812106,0.8584406000009039,0.8916031999979168,2.000020500003302,2.0334909000011976,2.300137400001404,2.4250012999982573,0.12486389999685343,2.300137400001404,2.599806800004444,3.116783600002236,0.8166462000008323,0.6917823000039789,0.75255,0.10368747198188173,-0.10535985056223465,,,,None,,,,,,,,,p14_high2_01,001,2023-05-11_14h20.27.085,expectation_shapes_perceived_time,2022.2.4,119.95312231196023,
,,,,,,,,,,,,,26,0,26,0,testSingleStim,,,,,,green,1.1568982829325751,1.1583333333333332,0.004908999995677732,0.9960234999962267,3.229999856557697e-05,3e-05,,1.1584236999988207,1.191719499998726,1.999651600002835,,2.2999751000024844,2.2999751000024844,0.0,2.2999751000024844,2.600080700001854,3.150184600002831,0.8502095000003465,0.8502095000003465,0.99233,0.003560978610947837,-0.1477806123543352,,,,None,,,,,,,,,p14_high2_01,001,2023-05-11_14h20.27.085,expectation_shapes_perceived_time,2022.2.4,119.95312231196023,
,,,,,,,,,,,,,27,0,27,0,testSingleStim,,,,,,green,0.18384451110066455,0.18333333333333332,0.004788799997186288,0.9962412999957451,3.1299998227041215e-05,3e-05,,0.18317599999863887,0.21670199999789475,1.9998348999943119,,2.300059900000633,2.300059900000633,0.0,2.300059900000633,2.600133599997207,3.3914972999991733,1.09143739999854,1.09143739999854,0.09968,0.04553873413390562,0.14063432600176737,,,,None,,,,,,,,,p14_high2_01,001,2023-05-11_14h20.27.085,expectation_shapes_perceived_time,2022.2.4,119.95312231196023,
,,,,,,,,,,,,,28,0,28,0,testSingleStim,,,,,,red,0.979527845446345,0.975,0.0046687000067322515,0.9961226000013994,3.1100003980100155e-05,3e-05,,0.9750956999996561,1.0083625000042957,2.0001636000015424,,2.300160300001153,2.641614500003925,0.34145420000277227,2.300160300001153,2.6000246000039624,3.5080601000008755,1.2078997999997227,0.8664455999969505,0.95587,0.020428622434066714,-0.14640512744414474,,,,None,,,,,,,,,p14_high2_01,001,2023-05-11_14h20.27.085,expectation_shapes_perceived_time,2022.2.4,119.95312231196023,
,,,,,,,,,,,,,29,0,29,0,testSingleStim,,,,,,red,1.3638073936445467,1.3666666666666667,0.0035396000021137297,0.9983790000042063,5.4299998737405986e-05,5e-05,,1.3664971999969566,1.3997727999958443,1.999765499997011,,2.2998821000001044,2.374879700000747,0.0749976000006427,2.2998821000001044,2.5998361999954795,3.2999778000012157,1.0000957000011113,0.9250981000004685,1.07721,-0.03550428047985775,-0.1434964669394251,,,,None,,,,,,,,,p14_high2_01,001,2023-05-11_14h20.27.085,expectation_shapes_perceived_time,2022.2.4,119.95312231196023,
,,,,,,,,,,,,,30,0,30,0,testSingleStim,,,,,,green,1.438005169867951,1.4333333333333333,0.004918299993732944,0.9954580999983591,5.529999907594174e-05,6e-05,,1.433555299998261,1.4669646999973338,2.000108000000182,,2.300101299995731,2.300101299995731,0.0,2.300101299995731,2.6002017999999225,3.1586667000010493,0.8585654000053182,0.8585654000053182,0.96919,0.014284631763128488,-0.14713170716022345,,,,None,,,,,,,,,p14_high2_01,001,2023-05-11_14h20.27.085,expectation_shapes_perceived_time,2022.2.4,119.95312231196023,
,,,,,,,,,,,,,31,0,31,0,testSingleStim,,,,,,red,0.6003979169555667,0.6,0.004899600004137028,0.9960277999998652,3.1600000511389226e-05,3e-05,0.033346700001857243,0.5995815999995102,0.6330833000029088,2.0001319000002695,,2.3001722000044538,2.3001722000044538,0.0,2.3001722000044538,2.6000189000042155,3.2250061000013375,0.9248338999968837,0.9248338999968837,0.44072,0.14526772652501366,0.027369281809060543,,,,None,,,,,,,,,p14_high2_01,001,2023-05-11_14h20.27.085,expectation_shapes_perceived_time,2022.2.4,119.95312231196023,
,,,,,,,,,,,,,32,0,32,0,testSingleStim,,,,,,red,1.3808430331556998,1.3833333333333333,0.00521669999579899,0.9948996999955853,3.0999995942693204e-05,3e-05,0.03335510000033537,1.382975799999258,1.4163619999962975,2.000258499996562,2.033385899994755,2.299995699999272,2.299995699999272,0.0,2.299995699999272,2.600184499999159,2.991736199997831,0.6917404999985592,0.6917404999985592,0.78043,0.09407236175437468,-0.1140271051568178,,,,None,,,,,,,,,p14_high2_01,001,2023-05-11_14h20.27.085,expectation_shapes_perceived_time,2022.2.4,119.95312231196023,
,,,,,,,,,,,,,33,0,33,0,testSingleStim,,,,,,red,1.5233823030397171,1.525,0.005211799994867761,0.9963862000004156,3.170000127283856e-05,3e-05,0.03322830000251997,1.5248581999985618,1.5581197999999858,1.9998535999984597,2.0333099999988917,2.2993959000014,2.4327503999957116,0.13335449999431148,2.2993959000014,2.5999978999971063,2.9247734999953536,0.6253775999939535,0.492023099999642,0.85539,0.06487017391094851,-0.13282940372241842,,,,None,,,,,,,,,p14_high2_01,001,2023-05-11_14h20.27.085,expectation_shapes_perceived_time,2022.2.4,119.95312231196023,
,,,,,,,,,,,,,34,0,34,0,testSingleStim,,,,,,red,0.7784283319150033,0.775,0.004593400000885595,0.995678899998893,0.00014740000187885016,0.00015,,0.7751084999981686,0.8081743000002461,1.9999641999966116,,2.300213199996506,2.3751249999986612,0.07491180000215536,2.300213199996506,2.600046799998381,3.116584299998067,0.816371100001561,0.7414592999994056,0.86164,0.062250151203976534,-0.13407724874702637,,,,None,,,,,,,,,p14_high2_01,001,2023-05-11_14h20.27.085,expectation_shapes_perceived_time,2022.2.4,119.95312231196023,
,,,,,,,,,,,,,35,0,35,0,testSingleStim,,,,,,green,0.404243814497491,0.4,0.005287599997245707,0.9959496000010404,0.0001277999981539324,0.00013,0.033073300000978634,0.39969830000336515,0.4335860999999568,1.9995801000040956,2.032758200002718,2.2994453999999678,2.2994453999999678,0.0,2.2994453999999678,2.5993366000038804,3.3078947000030894,1.0084493000031216,1.0084493000031216,1.02684,-0.01244775917093959,-0.14729848352278516,,,,None,,,,,,,,,p14_high2_01,001,2023-05-11_14h20.27.085,expectation_shapes_perceived_time,2022.2.4,119.95312231196023,
,,,,,,,,,,,,,36,0,36,0,testSingleStim,,,,,,green,0.5812545168296966,0.5833333333333334,0.005007899999327492,0.9957362999994075,3.2699994335416704e-05,3e-05,0.033392199999070726,0.5838908000005176,0.617204700000002,2.0005095999949845,2.0336766999971587,2.30030579999584,2.30030579999584,0.0,2.30030579999584,2.600583999999799,3.0920035999952233,0.7916977999993833,0.7916977999993833,0.44472,0.14559980407521517,0.025543825276353536,,,,None,,,,,,,,,p14_high2_01,001,2023-05-11_14h20.27.085,expectation_shapes_perceived_time,2022.2.4,119.95312231196023,
,,,,,,,,,,,,,37,0,37,0,testSingleStim,,,,,,red,1.6971627262650988,1.7,0.004774200002430007,0.9953643000044394,0.00014630000077886507,0.00015,0.033350800003972836,1.700005800004874,1.7335273999997298,2.000135800000862,2.033296800000244,2.3001722000044538,2.583442400005879,0.2832702000014251,2.3001722000044538,2.600092600005155,3.5250528000033228,1.224880599998869,0.9416103999974439,1.63226,-0.13524636031889845,0.059667511905396375,,,,None,,,,,,,,,p14_high2_01,001,2023-05-11_14h20.27.085,expectation_shapes_perceived_time,2022.2.4,119.95312231196023,
,,,,,,,,,,,,,38,0,38,0,testSingleStim,,,,,,green,0.6021858899465216,0.6,0.0036116000046604313,0.9979615000047488,3.580000338843092e-05,4e-05,,0.5999039000016637,0.6332690999988699,2.000268900002993,,2.300095800004783,2.300095800004783,0.0,2.300095800004783,2.6000898999991477,3.124859800002014,0.8247639999972307,0.8247639999972307,0.44743,0.14581221155564078,0.02430203525927347,,,,None,,,,,,,,,p14_high2_01,001,2023-05-11_14h20.27.085,expectation_shapes_perceived_time,2022.2.4,119.95312231196023,
,,,,,,,,,,,,,39,0,39,0,testSingleStim,,,,,,green,0.4533227097985572,0.45,0.005660199996782467,0.9962086000014096,4.079999780515209e-05,4e-05,0.03345429999899352,0.4499961999972584,0.4834413999997196,1.9999800000005052,2.033330300000671,2.2995739999969373,2.5166892999986885,0.21711530000175117,2.2995739999969373,2.599912999998196,2.94184800000221,0.6422740000052727,0.4251587000035215,0.37275,0.1361670664414853,0.057535380186543084,,,,None,,,,,,,,,p14_high2_01,001,2023-05-11_14h20.27.085,expectation_shapes_perceived_time,2022.2.4,119.95312231196023,
,,,,,,,,,0,0,0,0,0,-1,-1,0,fam,0.5563560000009602,0.5563560000009602,270.0,2.556653700004972,2.556653700004972,,,,,,,,,,,,,,,,,,,,,,,,,,,,,,,,,,,,p14_high2_01,001,2023-05-11_14h20.27.085,expectation_shapes_perceived_time,2022.2.4,119.95312231196023,
,,,,,,,,,1,0,1,0,0,-1,-1,0,fam,0.4984076000037021,0.4984076000037021,270.0,2.498455200002354,2.498455200002354,,,,,,,,,,,,,,,,,,,,,,,,,,,,,,,,,,,,p14_high2_01,001,2023-05-11_14h20.27.085,expectation_shapes_perceived_time,2022.2.4,119.95312231196023,
,,,,,,,,,2,0,2,0,0,-1,-1,0,fam,0.49771839999448275,0.49771839999448275,270.0,2.4976116999969236,2.4976116999969236,,,,,,,,,,,,,,,,,,,,,,,,,,,,,,,,,,,,p14_high2_01,001,2023-05-11_14h20.27.085,expectation_shapes_perceived_time,2022.2.4,119.95312231196023,
,,,,,,,,,3,0,3,0,0,-1,-1,0,fam,0.4973574000032386,0.4973574000032386,270.0,2.497261600001366,2.497261600001366,,,,,,,,,,,,,,,,,,,,,,,,,,,,,,,,,,,,p14_high2_01,001,2023-05-11_14h20.27.085,expectation_shapes_perceived_time,2022.2.4,119.95312231196023,
1,-500,0.5,none,46,red,green,no_Expectation,,,,,,0,0,0,4,train_doubleStim,,,,,,red,0.8851752778903733,0.8833333333333333,2.2994848000016646,0.9984378999943146,3e-05,3e-05,0.03317,0.8834292000028654,0.916544799998519,1.9998062000013306,2.0330506000027526,2.2994848000016646,2.6247758000026806,0.3252910000010161,2.2994848000016646,2.4999239000026137,3.991726899999776,1.6922420999981114,1.3669510999970953,0.30257,0.12028893749926792,0.08592066964233423,,,,None,,-0.5,-0.5,0.35184527789037334,0.35,training_double_stim.csv,0.3500140999967698,0.3832216000009794,p14_high2_01,001,2023-05-11_14h20.27.085,expectation_shapes_perceived_time,2022.2.4,119.95312231196023,
1,500,0.5,none,98,red,green,no_Expectation,,,,,,0,1,1,5,train_doubleStim,,,,,,red,0.8206711756325599,0.8166666666666667,2.299531000004208,0.9955314000035287,0.00012,0.00012,0.0334,0.8164606999998796,0.8499064999996335,1.999906099998043,2.0329907999985153,2.299531000004208,2.708391699998174,0.4088606999939657,2.299531000004208,2.4999806999985594,3.4915745000034804,1.1920434999992722,0.7831828000053065,0.35444,0.13263575030544722,0.06526521046775975,,,,None,,0.5,0.5,1.3540011756325598,1.35,training_double_stim.csv,1.349962600004801,1.3831325999999535,p14_high2_01,001,2023-05-11_14h20.27.085,expectation_shapes_perceived_time,2022.2.4,119.95312231196023,
1,500,0.5,none,33,green,red,no_Expectation,,,,,,0,2,2,7,train_doubleStim,,,,,,green,1.0969843673176625,1.1,2.29979870000534,0.9957207999977982,5e-05,5e-05,,1.0998201000038534,1.1332499000054668,1.9998485000032815,,2.29979870000534,2.5245763000057195,0.2247776000003796,2.29979870000534,2.4995677000042633,3.658004600001732,1.358205899996392,1.1334282999960124,1.02444,-0.011337545630361493,-0.14738809319469942,,,,None,,0.5,0.5,1.6303143673176623,1.6333333333333333,training_double_stim.csv,1.6332260000053793,1.6665397000033408,p14_high2_01,001,2023-05-11_14h20.27.085,expectation_shapes_perceived_time,2022.2.4,119.95312231196023,
1,-500,0.5,none,68,red,green,no_Expectation,,,,,,0,3,3,3,train_doubleStim,,,,,,red,1.7249496001146638,1.7249999999999999,2.2998609999995097,0.9979182000024593,5e-05,5e-05,0.03356,1.725175699997635,1.7583266000001458,2.000099199998658,2.0332936999984668,2.2998609999995097,2.2998609999995097,0.0,2.2998609999995097,2.4999394999977085,2.966318599996157,0.6664575999966473,0.6664575999966473,0.93549,0.02975307315117524,-0.1447982893357195,,,,None,,-0.5,-0.5,1.191619600114664,1.1916666666666667,training_double_stim.csv,1.191832099997555,1.2250273999961792,p14_high2_01,001,2023-05-11_14h20.27.085,expectation_shapes_perceived_time,2022.2.4,119.95312231196023,
1,500,0.5,none,25,green,red,no_Expectation,,,,,,0,4,4,6,train_doubleStim,,,,,,green,0.6914076999795857,0.6916666666666667,2.299867499998072,0.999302299998817,4e-05,4e-05,0.03306,0.6915415000039502,0.7249302999989595,1.9998021999999764,2.0330830000020796,2.299867499998072,2.958291499999177,0.658424000001105,2.299867499998072,2.4998667999971076,3.7498469999991357,1.4499795000010636,0.7915554999999586,0.43876,0.1450960160018468,0.02826545766269743,,,,None,,0.5,0.5,1.2247376999795856,1.225,training_double_stim.csv,1.224775700000464,1.2580858000001172,p14_high2_01,001,2023-05-11_14h20.27.085,expectation_shapes_perceived_time,2022.2.4,119.95312231196023,
1,500,0.5,none,88,red,green,no_Expectation,,,,,,0,5,5,9,train_doubleStim,,,,,,red,0.5233754599038339,0.525,2.2996366000006674,0.9967193999982555,0.00013,0.00013,0.03323,0.5250624000036623,0.55845699999918,1.999957899999572,2.0334016000051633,2.2996366000006674,2.782892200004426,0.48325560000375845,2.2996366000006674,2.4997431000010693,3.549592000003031,1.2499554000023636,0.7666997999986052,1.34033,-0.12961348740987358,-0.07107836406347905,,,,None,,0.5,0.5,1.0567054599038341,1.0583333333333333,training_double_stim.csv,1.0582362999994075,1.0916243000028771,p14_high2_01,001,2023-05-11_14h20.27.085,expectation_shapes_perceived_time,2022.2.4,119.95312231196023,
1,500,0.5,none,60,red,green,no_Expectation,,,,,,0,6,6,8,train_doubleStim,,,,,,red,0.5064130148564525,0.5083333333333333,2.3001950000034412,0.9957716000062646,2e-05,2e-05,0.03356,0.5085671999986516,0.5421075000049314,2.0003862000012305,2.033463200001279,2.3001950000034412,2.3754394999996293,0.0752444999961881,2.3001950000034412,2.5002922999992734,3.7670132999992347,1.4668182999957935,1.3915737999996054,1.17385,-0.07678179219469712,-0.12631843232030815,,,,None,,0.5,0.5,1.0397430148564524,1.0416666666666667,training_double_stim.csv,1.0419294000021182,1.0753598000010243,p14_high2_01,001,2023-05-11_14h20.27.085,expectation_shapes_perceived_time,2022.2.4,119.95312231196023,
1,-500,0.5,none,23,green,red,no_Expectation,,,,,,0,7,7,2,train_doubleStim,,,,,,green,1.8394062796855757,1.8416666666666666,2.300594500004081,0.9959935999941081,2e-05,2e-05,,1.8421482000048854,1.875438100003521,2.0004027000031783,2.033756299999368,2.300594500004081,2.417195599999104,0.1166010999950231,2.300594500004081,2.5003551000045263,4.916825300002529,2.6162307999984478,2.4996297000034247,1.53218,-0.147068634876433,0.014920006436739583,,,,None,,-0.5,-0.5,1.3060762796855758,1.3083333333333333,training_double_stim.csv,1.3090309000035631,1.3423217000017758,p14_high2_01,001,2023-05-11_14h20.27.085,expectation_shapes_perceived_time,2022.2.4,119.95312231196023,
1,-500,0.5,none,59,green,red,no_Expectation,,,,,,0,8,8,0,train_doubleStim,,,,,,green,1.6142074954360042,1.6166666666666667,2.300011200000881,0.9968684000050416,4e-05,4e-05,0.03333,1.6167717999996967,1.6501161999985925,2.0000599999984843,,2.300011200000881,2.5582813000000897,0.25827009999920847,2.300011200000881,2.5001244000013685,4.183055400004378,1.8830442000034964,1.624774100004288,1.55257,-0.1458122115556408,0.02430203525927347,,,,None,,-0.5,-0.5,1.0808774954360043,1.0833333333333333,training_double_stim.csv,1.083512299999711,1.1166268000015407,p14_high2_01,001,2023-05-11_14h20.27.085,expectation_shapes_perceived_time,2022.2.4,119.95312231196023,
1,-500,0.5,none,77,green,red,no_Expectation,,,,,,0,9,9,1,train_doubleStim,,,,,,green,1.1113464249165403,1.1083333333333334,2.299823800000013,0.9982124999951338,0.00017,0.00017,0.03315,1.1081775999991805,1.141728399998101,1.9998021999999764,2.0332978000005824,2.299823800000013,2.299823800000013,0.0,2.299823800000013,2.4999681999979657,4.599905499999295,2.300081699999282,2.300081699999282,1.27444,-0.1122359755613673,-0.09620226476688626,,,,None,,-0.5,-0.5,0.5780164249165404,0.575,training_double_stim.csv,0.5749702000030084,0.608181900002819,p14_high2_01,001,2023-05-11_14h20.27.085,expectation_shapes_perceived_time,2022.2.4,119.95312231196023,
1,500,0.5,none,33,green,red,no_Expectation,,,,,,1,0,10,7,train_doubleStim,,,,,,green,0.3494173006513345,0.35,2.300139400002081,0.9962955999944825,7e-05,7e-05,,0.3501710999989882,0.38349120000202674,1.9999744000015198,,2.300139400002081,2.708646900005988,0.4085075000039069,2.300139400002081,2.500150700005179,3.70820420000382,1.408064800001739,0.9995572999978322,0.72509,0.11238008054169006,-0.09603388700835334,,,,None,,0.5,0.5,0.8827473006513346,0.8833333333333333,training_double_stim.csv,0.883265600001323,0.9169068000046536,p14_high2_01,001,2023-05-11_14h20.27.085,expectation_shapes_perceived_time,2022.2.4,119.95312231196023,
1,500,0.5,none,25,green,red,no_Expectation,,,,,,1,1,11,6,train_doubleStim,,,,,,green,0.4450634058200741,0.44166666666666665,2.3001044999982696,0.9963619999980438,2e-05,2e-05,,0.44155270000192104,0.47497029999794904,2.0002278000029037,,2.3001044999982696,2.3169797000009567,0.016875200002687052,2.3001044999982696,2.5001389000026393,2.933571399997163,0.6334668999988935,0.6165916999962064,0.76575,0.0992308815760084,-0.10956743174017596,,,,None,,0.5,0.5,0.9783934058200742,0.975,training_double_stim.csv,0.9752471000028891,1.0087432000000263,p14_high2_01,001,2023-05-11_14h20.27.085,expectation_shapes_perceived_time,2022.2.4,119.95312231196023,
1,-500,0.5,none,68,red,green,no_Expectation,,,,,,1,2,12,3,train_doubleStim,,,,,,red,1.2791256591249898,1.275,2.2999689000062062,0.9958597999939229,8e-05,8e-05,0.03327,1.2747891000035452,1.3084388000061153,1.9997992999997223,2.033315100001346,2.2999689000062062,2.5664930999992066,0.26652419999300037,2.2999689000062062,2.4998172000050545,3.4334444000051008,1.1334754999988945,0.8669513000058942,1.27744,-0.11313850956538227,-0.0951392012254351,,,,None,,-0.5,-0.5,0.7457956591249898,0.7416666666666667,training_double_stim.csv,0.7415915000019595,0.774850100002368,p14_high2_01,001,2023-05-11_14h20.27.085,expectation_shapes_perceived_time,2022.2.4,119.95312231196023,
1,-500,0.5,none,23,green,red,no_Expectation,,,,,,1,3,13,2,train_doubleStim,,,,,,green,0.9535083449875504,0.95,2.3001992999998038,0.9960013999952935,5e-05,5e-05,0.03349,0.9498988000050304,0.9833931000030134,2.000166600002558,2.0335781000030693,2.3001992999998038,2.683599800002412,0.38340050000260817,2.3001992999998038,2.500147400001879,3.4082943000030355,1.1080950000032317,0.7246945000006235,1.08056,-0.03701246745816797,-0.1431148741715828,,,,None,,-0.5,-0.5,0.42017834498755047,0.4166666666666667,training_double_stim.csv,0.416333900000609,0.44962669999949867,p14_high2_01,001,2023-05-11_14h20.27.085,expectation_shapes_perceived_time,2022.2.4,119.95312231196023,
1,-500,0.5,none,46,red,green,no_Expectation,,,,,,1,4,14,4,train_doubleStim,,,,,,red,1.4615557378943338,1.4583333333333333,2.2998816999970586,0.9964571999953478,4e-05,4e-05,0.0333,1.458347200001299,1.491624900001625,1.9997695999991265,2.033428800001275,2.2998816999970586,2.5834831000029226,0.283601400005864,2.2998816999970586,2.500038300000597,4.108098900003824,1.8082172000067658,1.5246158000009018,1.23394,-0.09912152715279372,-0.10966637046692071,,,,None,,-0.5,-0.5,0.9282257378943337,0.9249999999999999,training_double_stim.csv,0.9245482000042102,0.9579271000038716,p14_high2_01,001,2023-05-11_14h20.27.085,expectation_shapes_perceived_time,2022.2.4,119.95312231196023,
1,500,0.5,none,88,red,green,no_Expectation,,,,,,1,5,15,9,train_doubleStim,,,,,,red,0.38628626258701376,0.3833333333333333,2.2997746000037296,0.9968607999981032,5e-05,5e-05,0.03331,0.38341829999990296,0.41659310000250116,1.9999162000021897,2.0328939000028186,2.2997746000037296,2.57480840000062,0.2750337999968906,2.2997746000037296,2.499448800001119,3.5082344000038574,1.2084598000001279,0.9334260000032373,1.31283,-0.12299659457712617,-0.08199772971808414,,,,None,,0.5,0.5,0.9196162625870138,0.9166666666666666,training_double_stim.csv,0.9161439000017708,0.9495088000039686,p14_high2_01,001,2023-05-11_14h20.27.085,expectation_shapes_perceived_time,2022.2.4,119.95312231196023,
1,500,0.5,none,60,red,green,no_Expectation,,,,,,1,6,16,8,train_doubleStim,,,,,,red,0.9198338336710822,0.9166666666666666,2.299899400000868,0.9963503999970271,6e-05,6e-05,0.03326,0.9164056000008713,0.9497225999948569,1.9999295999950846,2.0331975999943097,2.299899400000868,2.591644100000849,0.2917446999999811,2.299899400000868,2.5000027999994927,3.758241099996667,1.458341699995799,1.166596999995818,1.22171,-0.09483694126500895,-0.11339199499077157,,,,None,,0.5,0.5,1.4531638336710822,1.45,training_double_stim.csv,1.4493962999986252,1.4830641000007745,p14_high2_01,001,2023-05-11_14h20.27.085,expectation_shapes_perceived_time,2022.2.4,119.95312231196023,
1,-500,0.5,none,59,green,red,no_Expectation,,,,,,1,7,17,0,train_doubleStim,,,,,,green,1.578217182267218,1.575,2.300004799995804,0.996531299999333,3e-05,3e-05,,1.5744255999961752,1.607800199999474,1.9998544999980368,,2.300004799995804,2.3998948999942513,0.09989009999844711,2.300004799995804,2.4997345999945537,3.808212999996613,1.5082082000008086,1.4083181000023615,1.51273,-0.14770539239912628,0.005908215695965052,,,,None,,-0.5,-0.5,1.044887182267218,1.0416666666666667,training_double_stim.csv,1.0415617999969982,1.0748314000011305,p14_high2_01,001,2023-05-11_14h20.27.085,expectation_shapes_perceived_time,2022.2.4,119.95312231196023,
1,500,0.5,none,98,red,green,no_Expectation,,,,,,1,8,18,5,train_doubleStim,,,,,,red,0.21017947864798966,0.20833333333333334,2.299992000000202,0.9954947999940487,3e-05,3e-05,0.03322,0.20837010000104783,0.2415989000000991,2.000051800001529,,2.299992000000202,2.7498563999979524,0.4498643999977503,2.299992000000202,2.499925500000245,3.1583394999979646,0.8583474999977625,0.4084831000000122,1.42311,-0.14353139649143629,-0.03536280783122343,,,,None,,0.5,0.5,0.7435094786479897,0.7416666666666667,training_double_stim.csv,0.7414847000036389,0.7751206000029924,p14_high2_01,001,2023-05-11_14h20.27.085,expectation_shapes_perceived_time,2022.2.4,119.95312231196023,
1,-500,0.5,none,77,green,red,no_Expectation,,,,,,1,9,19,1,train_doubleStim,,,,,,green,1.359052999191827,1.3583333333333334,2.3004184999954305,0.994644900005369,4e-05,4e-05,0.0335,1.358294500001648,1.3916428000011365,2.000136599999678,2.0335783999980777,2.3004184999954305,2.3004184999954305,0.0,2.3004184999954305,2.4996403999975882,3.1832491000022856,0.8828306000068551,0.8828306000068551,1.20066,-0.08713738666909912,-0.11941049284283953,,,,None,,-0.5,-0.5,0.8257229991918269,0.825,training_double_stim.csv,0.8251443999979529,0.8583245999980136,p14_high2_01,001,2023-05-11_14h20.27.085,expectation_shapes_perceived_time,2022.2.4,119.95312231196023,
,,,,,,,,,0,0,0,0,0,-1,-1,0,fam,0.556303500001377,0.556303500001377,270.0,2.5563441999984207,2.5563441999984207,,,,,,,,,,,,,,,,,,,,,,,,,,,,,,,,,,,,p14_high2_01,001,2023-05-11_14h20.27.085,expectation_shapes_perceived_time,2022.2.4,119.95312231196023,
,,,,,,,,,1,0,1,0,0,-1,-1,0,fam,0.49732570000196574,0.49732570000196574,270.0,2.497561299998779,2.497561299998779,,,,,,,,,,,,,,,,,,,,,,,,,,,,,,,,,,,,p14_high2_01,001,2023-05-11_14h20.27.085,expectation_shapes_perceived_time,2022.2.4,119.95312231196023,
,,,,,,,,,2,0,2,0,0,-1,-1,0,fam,0.4991701999970246,0.4991701999970246,270.0,2.4991947999951662,2.4991947999951662,,,,,,,,,,,,,,,,,,,,,,,,,,,,,,,,,,,,p14_high2_01,001,2023-05-11_14h20.27.085,expectation_shapes_perceived_time,2022.2.4,119.95312231196023,
,,,,,,,,,3,0,3,0,0,-1,-1,0,fam,0.4991403000021819,0.4991403000021819,270.0,2.499112800003786,2.499112800003786,,,,,,,,,,,,,,,,,,,,,,,,,,,,,,,,,,,,p14_high2_01,001,2023-05-11_14h20.27.085,expectation_shapes_perceived_time,2022.2.4,119.95312231196023,
,-100,0.8,met,,red,green,,1269.61600602283,,,,,0,0,0,58,trial,,,,,,red,1.26961600602283,1.2666666666666666,2.3000468000027467,0.9981195000000298,4e-05,4e-05,0.03323,1.2665783000047668,1.300152200004959,1.9999490000045625,2.0333986000041477,2.3000468000027467,2.933232900002622,0.6331860999998753,2.3000468000027467,2.4999470000038855,12.96673759999976,10.666690799997014,10.033504699997138,1.30673,-0.12140115779848912,-0.08434185699684507,,,,None,,-0.1,-0.1,1.1362860060228301,1.1333333333333333,trial_list_0.8_red.csv,1.1334175000010873,1.1666861000048812,p14_high2_01,001,2023-05-11_14h20.27.085,expectation_shapes_perceived_time,2022.2.4,119.95312231196023,
,167,0.8,met,,red,green,,635.6914507176382,,,,,0,1,1,327,trial,,,,,,red,0.6356914507176382,0.6333333333333333,2.299717399997462,0.9951830999998492,7e-05,7e-05,0.03298,0.6331668999991962,0.6665971000038553,1.9997867999991286,2.0331818999984534,2.299717399997462,2.791210700001102,0.4914933000036399,2.299717399997462,2.499850400003197,3.899766800001089,1.600049400003627,1.108556099999987,1.02091,-0.009704252324226451,-0.14750463532824204,,,,None,,0.167,0.16666666666666666,0.8360214507176382,0.8333333333333334,trial_list_0.8_red.csv,0.8331512000004295,0.8664838999975473,p14_high2_01,001,2023-05-11_14h20.27.085,expectation_shapes_perceived_time,2022.2.4,119.95312231196023,
,300,0.1999999999999999,unmet,,green,red,,1086.884198123234,,,,,0,2,2,467,trial,,,,,,green,1.086884198123234,1.0833333333333333,2.3002468000049703,0.996268399998371,2e-05,2e-05,0.0333,1.083348100000876,1.1167295000050217,1.9999051000049803,2.033439000006183,2.3002468000049703,2.774971800005005,0.4747250000000349,2.3002468000049703,2.4999437000005855,3.7914096000022255,1.4911627999972552,1.0164377999972203,1.13822,-0.06219304281701739,-0.13410374857419374,,,,None,,0.3,0.3,1.420214198123234,1.4166666666666667,trial_list_0.8_red.csv,1.4167216000059852,1.4500004000001354,p14_high2_01,001,2023-05-11_14h20.27.085,expectation_shapes_perceived_time,2022.2.4,119.95312231196023,
,33,0.8,met,,red,green,,552.7629116139294,,,,,0,3,3,243,trial,,,,,,red,0.5527629116139294,0.55,2.3006346999973175,0.9957207999977982,2e-05,2e-05,0.0333,0.5503284000005806,0.5835355999952299,2.0004439999975148,2.033755399999791,2.3006346999973175,2.6338420999964,0.33320739999908255,2.3006346999973175,2.5005380000002333,3.625445599995146,1.3248108999978285,0.991603499998746,0.39655,0.14008468457770115,0.04720244806422539,,,,None,,0.033,0.03333333333333333,0.6190929116139294,0.6166666666666667,trial_list_0.8_red.csv,0.6169485999998869,0.650341299995489,p14_high2_01,001,2023-05-11_14h20.27.085,expectation_shapes_perceived_time,2022.2.4,119.95312231196023,
,-33,0.1999999999999999,unmet,,green,red,,1507.9262672129585,,,,,0,4,4,301,trial,,,,,,green,1.5079262672129585,1.5083333333333333,2.299997899994196,0.9960276999991038,6e-05,6e-05,,1.5085102999946685,1.5419218999959412,2.000259199994616,,2.299997899994196,2.8168000999939977,0.5168021999998018,2.299997899994196,2.5001168999951915,4.316793399993912,2.0167954999997164,1.4999932999999146,1.33029,-0.12730670953028728,-0.07513182857525151,,,,None,,-0.033,-0.03333333333333333,1.4415962672129585,1.4416666666666667,trial_list_0.8_red.csv,1.4417466999948374,1.4751125999973738,p14_high2_01,001,2023-05-11_14h20.27.085,expectation_shapes_perceived_time,2022.2.4,119.95312231196023,
,-300,0.8,met,,red,green,,887.8543938680793,,,,,0,5,5,9,trial,,,,,,red,0.8878543938680793,0.8916666666666666,2.3001715000063996,0.9960248000061256,2e-05,2e-05,0.03324,0.8921854000000167,0.9256731000059517,2.000451300002169,2.0336236000002827,2.3001715000063996,2.7084707000030903,0.40829919999669073,2.3001715000063996,2.500084000006609,4.100331800000276,1.8001602999938768,1.391861099997186,1.32798,-0.12675761363747,-0.076054568182482,,,,None,,-0.3,-0.3,0.5545243938680793,0.5583333333333333,trial_list_0.8_red.csv,0.5588201000064146,0.5921320000052219,p14_high2_01,001,2023-05-11_14h20.27.085,expectation_shapes_perceived_time,2022.2.4,119.95312231196023,
,233,0.8,met,,red,green,,370.9130861506394,,,,,0,6,6,300,trial,,,,,,red,0.3709130861506394,0.36666666666666664,2.3005567000000156,0.9952130000019679,1e-05,1e-05,0.03325,0.3671338999993168,0.4004858999978751,2.0005037000009906,2.0338269999992917,2.3005567000000156,2.900163500002236,0.5996068000022206,2.3005567000000156,2.5002856999999494,3.5255520999999135,1.224995399999898,0.6253885999976774,1.17355,-0.0766630937998819,-0.12639050599439988,,,,None,,0.233,0.23333333333333334,0.6372430861506394,0.6333333333333333,trial_list_0.8_red.csv,0.6336057000007713,0.6669054000012693,p14_high2_01,001,2023-05-11_14h20.27.085,expectation_shapes_perceived_time,2022.2.4,119.95312231196023,
,-167,0.8,met,,red,green,,708.1808365711138,,,,,0,7,7,199,trial,,,,,,red,0.7081808365711137,0.7083333333333334,2.3000907999958145,0.9967708999975002,7e-05,7e-05,0.03322,0.7082219000003533,0.7416539999976521,1.99996669999382,2.0332605999938096,2.3000907999958145,2.5999744000000646,0.2998836000042502,2.3000907999958145,2.499895999993896,3.7998875999983284,1.499796800002514,1.1999131999982637,1.36368,-0.13447327326752417,-0.06138997257865235,,,,None,,-0.167,-0.16666666666666666,0.5078508365711139,0.5083333333333333,trial_list_0.8_red.csv,0.5078892999954405,0.5412641999937478,p14_high2_01,001,2023-05-11_14h20.27.085,expectation_shapes_perceived_time,2022.2.4,119.95312231196023,
,300,0.8,met,,red,green,,836.6505771927284,,,,,0,8,8,16,trial,,,,,,red,0.8366505771927284,0.8333333333333334,2.299966400001722,0.9962842000022647,6e-05,6e-05,0.03337,0.8328710999994655,0.8665566000054241,1.9999191000024439,2.033215300005395,2.299966400001722,2.299966400001722,0.0,2.299966400001722,2.4999454999997397,3.316538400002173,1.0165720000004512,1.0165720000004512,1.05463,-0.025246292846542968,-0.14565168949928636,,,,None,,0.3,0.3,1.1699805771927283,1.1666666666666667,trial_list_0.8_red.csv,1.1666926000034437,1.1999209999994491,p14_high2_01,001,2023-05-11_14h20.27.085,expectation_shapes_perceived_time,2022.2.4,119.95312231196023,
,-300,0.8,met,,red,green,,490.3571157144173,,,,,0,9,9,28,trial,,,,,,red,0.4903571157144173,0.49166666666666664,2.300025500000629,0.9967036000016378,5e-05,5e-05,,0.49157849999755854,0.5247103000001516,1.9997949999960838,,2.300025500000629,2.300025500000629,0.0,2.300025500000629,2.4997384999951464,3.8248937999960617,1.5248682999954326,1.5248682999954326,0.91938,0.03703967493978204,-0.1431078349946124,,,,None,,-0.3,-0.3,0.15702711571441733,0.15833333333333333,trial_list_0.8_red.csv,0.15824869999778457,0.1915898000006564,p14_high2_01,001,2023-05-11_14h20.27.085,expectation_shapes_perceived_time,2022.2.4,119.95312231196023,
,-33,0.8,met,,red,green,,538.3144360598895,,,,,0,10,10,103,trial,,,,,,red,0.5383144360598895,0.5416666666666666,2.3000511999998707,0.9954214000026695,3e-05,3e-05,0.03339,0.5415265999981784,0.5749092000041855,2.0000741000039852,2.0331899000011617,2.3000511999998707,2.3166033000015887,0.016552100001717918,2.3000511999998707,2.499847500002943,5.0996913999988465,2.7996401999989757,2.783088099997258,0.38111,0.13763211696529293,0.053936910702614804,,,,None,,-0.033,-0.03333333333333333,0.47198443605988954,0.475,trial_list_0.8_red.csv,0.47481710000283783,0.5080912999983411,p14_high2_01,001,2023-05-11_14h20.27.085,expectation_shapes_perceived_time,2022.2.4,119.95312231196023,
,-100,0.8,met,,red,green,,1156.194444893129,,,,,0,11,11,344,trial,,,,,,red,1.156194444893129,1.1583333333333332,2.299672199995257,0.9956894999995711,6e-05,6e-05,0.03337,1.1581495999998879,1.1913325999994413,1.9997538999959943,2.033170099995914,2.299672199995257,2.299672199995257,0.0,2.299672199995257,2.499673400001484,4.058130699995672,1.7584585000004154,1.7584585000004154,1.27521,-0.1124691449140061,-0.09592956477959344,,,,None,,-0.1,-0.1,1.022864444893129,1.025,trial_list_0.8_red.csv,1.0246416999943904,1.0581258999955026,p14_high2_01,001,2023-05-11_14h20.27.085,expectation_shapes_perceived_time,2022.2.4,119.95312231196023,
,-33,0.8,met,,red,green,,1442.127594190557,,,,,0,12,12,345,trial,,,,,,red,1.442127594190557,1.4416666666666667,2.2999835000009625,0.9961112000019057,3e-05,3e-05,,1.441885700005514,1.4749563000004855,2.0003651000006357,2.033395600003132,2.2999835000009625,2.5000891000017873,0.20010560000082478,2.2999835000009625,2.5000891000017873,3.2751250000001164,0.9751414999991539,0.7750358999983291,1.28669,-0.1158560660105508,-0.09181046740458745,,,,None,,-0.033,-0.03333333333333333,1.375797594190557,1.375,trial_list_0.8_red.csv,1.3751603000055184,1.4085016000026371,p14_high2_01,001,2023-05-11_14h20.27.085,expectation_shapes_perceived_time,2022.2.4,119.95312231196023,
,-300,0.8,met,,red,green,,772.5740144825425,,,,,0,13,13,299,trial,,,,,,red,0.7725740144825425,0.775,2.299711400002707,0.9956460000030347,8e-05,8e-05,0.03338,0.774925700003223,0.8083158000008552,1.9998072000016691,2.0330336000042735,2.299711400002707,2.299711400002707,0.0,2.299711400002707,2.499710200005211,3.566427300000214,1.2667158999975072,1.2667158999975072,0.61788,0.13780260398868385,-0.05349983448972432,,,,None,,-0.3,-0.3,0.43924401448254247,0.44166666666666665,trial_list_0.8_red.csv,0.4416604000070947,0.4750123000048916,p14_high2_01,001,2023-05-11_14h20.27.085,expectation_shapes_perceived_time,2022.2.4,119.95312231196023,
,300,0.8,met,,red,green,,360.78889433014433,,,,,0,14,14,377,trial,,,,,,red,0.3607888943301443,0.35833333333333334,2.300035000000207,0.9983510000020033,4e-05,4e-05,0.03315,0.35813580000103684,0.3916042000055313,1.9999351000005845,2.0332542000032845,2.300035000000207,2.3997486000007484,0.09971360000054119,2.300035000000207,2.499841600001673,3.408385200003977,1.1083502000037697,1.0086366000032285,0.78987,0.09064845124512873,-0.11676749651914886,,,,None,,0.3,0.3,0.6941188943301444,0.6916666666666667,trial_list_0.8_red.csv,0.691567900001246,0.7248413000052096,p14_high2_01,001,2023-05-11_14h20.27.085,expectation_shapes_perceived_time,2022.2.4,119.95312231196023,
,-300,0.8,met,,red,green,,672.7558724674491,,,,,0,15,15,229,trial,,,,,,red,0.6727558724674491,0.675,2.2998494999992545,0.9963693000026979,2e-05,2e-05,,0.6750800000008894,0.7083148000019719,1.9999700999978813,2.033261999997194,2.2998494999992545,2.366464899998391,0.06661539999913657,2.2998494999992545,2.500182499999937,3.3834066999988863,1.0835571999996318,1.0169418000004953,1.26459,-0.10920698647191855,-0.09962742625508358,,,,None,,-0.3,-0.3,0.3394258724674491,0.3416666666666667,trial_list_0.8_red.csv,0.3416849999994156,0.3749884999997448,p14_high2_01,001,2023-05-11_14h20.27.085,expectation_shapes_perceived_time,2022.2.4,119.95312231196023,
,100,0.8,met,,red,green,,1351.8529511196336,,,,,0,16,16,234,trial,,,,,,red,1.3518529511196336,1.35,2.300263699995412,0.9963912000021082,4e-05,4e-05,0.03331,1.3500370999972802,1.3833937999952468,2.0000820999994176,2.0334776999952737,2.300263699995412,2.300263699995412,0.0,2.300263699995412,2.500112199995783,3.0919642000008025,0.7917005000053905,0.7917005000053905,1.64605,-0.13253518544306248,0.06546918798994653,,,,None,,0.1,0.1,1.4851829511196335,1.4833333333333334,trial_list_0.8_red.csv,1.483460199997353,1.5168432999998913,p14_high2_01,001,2023-05-11_14h20.27.085,expectation_shapes_perceived_time,2022.2.4,119.95312231196023,
,-167,0.8,met,,red,green,,667.276192678786,,,,,0,17,17,296,trial,,,,,,red,0.6672761926787859,0.6666666666666666,2.299908000000869,0.9962253000048804,3e-05,3e-05,0.03335,0.6666716000036104,0.6998826000053668,1.9997935999999754,2.0332205000013346,2.299908000000869,2.3748259999993024,0.07491799999843352,2.299908000000869,2.5000313999989885,3.26650410000002,0.9665960999991512,0.8916781000007177,0.41141,0.14213584439422905,0.04061024125549402,,,,None,,-0.167,-0.16666666666666666,0.46694619267878595,0.4666666666666667,trial_list_0.8_red.csv,0.46653820000210544,0.5000566000016988,p14_high2_01,001,2023-05-11_14h20.27.085,expectation_shapes_perceived_time,2022.2.4,119.95312231196023,
,-33,0.8,met,,red,green,,844.5859785660343,,,,,0,18,18,462,trial,,,,,,red,0.8445859785660343,0.8416666666666667,2.300052099999448,0.9958769000004395,7e-05,7e-05,0.03327,0.8417031999997562,0.874984999994922,1.9999494000003324,2.0333001999970293,2.300052099999448,2.316496100000222,0.016444000000774395,2.300052099999448,2.4998435999950743,3.091657099997974,0.7916049999985262,0.7751609999977518,1.20483,-0.0886941056910569,-0.11825880758807587,,,,None,,-0.033,-0.03333333333333333,0.7782559785660342,0.775,trial_list_0.8_red.csv,0.7749890999984927,0.8082230999934836,p14_high2_01,001,2023-05-11_14h20.27.085,expectation_shapes_perceived_time,2022.2.4,119.95312231196023,
,300,0.8,met,,red,green,,1408.5280435696325,,,,,0,19,19,445,trial,,,,,,red,1.4085280435696326,1.4083333333333332,2.3001290999964112,0.9960724999982631,3e-05,3e-05,0.03353,1.4083007000008365,1.4417834999985644,2.000003499997547,2.0334679999941727,2.3001290999964112,2.558253799994418,0.2581246999980067,2.3001290999964112,2.500069900001108,4.425147800000559,2.125018700004148,1.8668940000061411,1.53759,-0.14679395364517667,0.01741623178841079,,,,None,,0.3,0.3,1.7418580435696325,1.7416666666666667,trial_list_0.8_red.csv,1.7417868999982602,1.7752192999978433,p14_high2_01,001,2023-05-11_14h20.27.085,expectation_shapes_perceived_time,2022.2.4,119.95312231196023,
,167,0.8,met,,red,green,,333.1107302045301,,,,,0,20,20,491,trial,,,,,,red,0.33311073020453014,0.3333333333333333,2.300209000000905,0.9958761999951093,3e-05,3e-05,,0.3336395000005723,0.36714300000312505,2.00015930000518,,2.300209000000905,2.300209000000905,0.0,2.300209000000905,2.5002747000035015,3.3922314000010374,1.0920224000001326,1.0920224000001326,0.26839,0.11038945331832513,0.09831560686163332,,,,None,,0.167,0.16666666666666666,0.5334407302045302,0.5333333333333333,trial_list_0.8_red.csv,0.5337990000043646,0.5670490000047721,p14_high2_01,001,2023-05-11_14h20.27.085,expectation_shapes_perceived_time,2022.2.4,119.95312231196023,
,-233,0.8,met,,red,green,,1048.3207091932888,,,,,0,21,21,419,trial,,,,,,red,1.048320709193289,1.05,2.300406899994414,0.9957771000044886,5e-05,5e-05,0.03311,1.049839699997392,1.0832141999999294,1.9997570999985328,2.033052200000384,2.300406899994414,2.366445100000419,0.06603820000600535,2.300406899994414,2.4997538999959943,3.308436699997401,1.008029800002987,0.9419915999969817,1.48788,-0.14771636186968615,-0.005627289975988044,,,,None,,-0.233,-0.23333333333333334,0.7819907091932888,0.7833333333333333,trial_list_0.8_red.csv,0.7832610999976168,0.8166829999972833,p14_high2_01,001,2023-05-11_14h20.27.085,expectation_shapes_perceived_time,2022.2.4,119.95312231196023,
,-300,0.8,met,,red,green,,559.7833199980239,,,,,0,22,22,72,trial,,,,,,red,0.5597833199980239,0.5583333333333333,2.3005553999973927,0.9949352000039653,3e-05,3e-05,,0.5584000999951968,0.5918229999952018,2.0000577999962843,,2.3005553999973927,2.3005553999973927,0.0,2.3005553999973927,2.5001550000015413,4.233651999995345,1.9330965999979526,1.9330965999979526,0.65655,0.13030346271047077,-0.06980542645203792,,,,None,,-0.3,-0.3,0.22645331999802393,0.225,trial_list_0.8_red.csv,0.22506759999669157,0.25850809999974445,p14_high2_01,001,2023-05-11_14h20.27.085,expectation_shapes_perceived_time,2022.2.4,119.95312231196023,
,-33,0.8,met,,red,green,,897.528897952997,,,,,0,23,23,269,trial,,,,,,red,0.897528897952997,0.9,2.2996816000013496,0.9964837999941665,3e-05,3e-05,0.03306,0.8995966000002227,0.9327736999985063,1.999723200002336,2.033196999997017,2.2996816000013496,2.2996816000013496,0.0,2.2996816000013496,2.4998578000013367,3.116547300000093,0.8168656999987434,0.8168656999987434,0.45704,0.14647897486840566,0.019892206463610645,,,,None,,-0.033,-0.03333333333333333,0.831198897952997,0.8333333333333334,trial_list_0.8_red.csv,0.8327873000016552,0.8661221000002115,p14_high2_01,001,2023-05-11_14h20.27.085,expectation_shapes_perceived_time,2022.2.4,119.95312231196023,
,100,0.8,met,,red,green,,161.13493158970496,,,,,0,24,24,164,trial,,,,,,red,0.16113493158970496,0.15833333333333333,2.3008365999994567,0.9961407000009785,7e-05,7e-05,,0.15835149999475107,0.1914595999987796,1.9995273999957135,,2.3008365999994567,2.424931800000195,0.12409520000073826,2.3008365999994567,2.500111099994683,3.508258499998192,1.2074218999987352,1.083326699997997,0.11164,0.05078942774563815,0.1388244358380776,,,,None,,0.1,0.1,0.29446493158970494,0.2916666666666667,trial_list_0.8_red.csv,0.2914588999992702,0.32474769999680575,p14_high2_01,001,2023-05-11_14h20.27.085,expectation_shapes_perceived_time,2022.2.4,119.95312231196023,
,33,0.1999999999999999,unmet,,green,red,,1334.5691102943497,0,0,0,0,0,25,25,189,fam,0.5564596000040183,0.5564596000040183,270.0,2.556541500001913,2.556541500001913,,,,,,,,,,,,,,,,,,,,,,,,,,,,,,,,,,,,p14_high2_01,001,2023-05-11_14h20.27.085,expectation_shapes_perceived_time,2022.2.4,119.95312231196023,
,33,0.1999999999999999,unmet,,green,red,,1334.5691102943497,1,0,1,0,0,25,25,189,fam,0.49717689999670256,0.49717689999670256,270.0,2.4972749999942607,2.4972749999942607,,,,,,,,,,,,,,,,,,,,,,,,,,,,,,,,,,,,p14_high2_01,001,2023-05-11_14h20.27.085,expectation_shapes_perceived_time,2022.2.4,119.95312231196023,
,33,0.1999999999999999,unmet,,green,red,,1334.5691102943497,2,0,2,0,0,25,25,189,fam,0.4969799999962561,0.4969799999962561,270.0,2.497173699994164,2.497173699994164,,,,,,,,,,,,,,,,,,,,,,,,,,,,,,,,,,,,p14_high2_01,001,2023-05-11_14h20.27.085,expectation_shapes_perceived_time,2022.2.4,119.95312231196023,
,33,0.1999999999999999,unmet,,green,red,,1334.5691102943497,3,0,3,0,0,25,25,189,fam,0.4968410999936168,0.4968410999936168,270.0,2.4971426999982214,2.4971426999982214,,,,,,,,,,,,,,,,,,,,,,,,,,,,,,,,,,,,p14_high2_01,001,2023-05-11_14h20.27.085,expectation_shapes_perceived_time,2022.2.4,119.95312231196023,
,33,0.1999999999999999,unmet,,green,red,,1334.5691102943497,,,,,0,25,25,189,trial,,,,,,green,1.3345691102943498,1.3333333333333333,2.300207100000989,0.9981745000040974,6e-05,6e-05,0.03338,1.3330678999991505,1.3664461000007577,1.9998656999960076,2.033184399995662,2.300207100000989,2.300207100000989,0.0,2.300207100000989,2.5000214999963646,4.141761699997005,1.841554599996016,1.841554599996016,1.27444,-0.1122359755613673,-0.09620226476688626,,,,None,,0.033,0.03333333333333333,1.4008991102943495,1.4,trial_list_0.8_red.csv,1.39989659999992,1.4331593999959296,p14_high2_01,001,2023-05-11_14h20.27.085,expectation_shapes_perceived_time,2022.2.4,119.95312231196023,
,100,0.8,met,,red,green,,1496.8640377091945,,,,,0,26,26,263,trial,,,,,,red,1.4968640377091944,1.5,2.2999390000040876,0.9947876000005635,3e-05,3e-05,0.03329,1.499957899999572,1.5333571000010124,1.99996960000135,2.0333745000025374,2.2999390000040876,2.2999390000040876,0.0,2.2999390000040876,2.4999858000010136,3.0252634000062244,0.7253244000021368,0.7253244000021368,1.46308,-0.1468303758480597,-0.01710645155511375,,,,None,,0.1,0.1,1.6301940377091944,1.6333333333333333,trial_list_0.8_red.csv,1.6333446000062395,1.6666172000041115,p14_high2_01,001,2023-05-11_14h20.27.085,expectation_shapes_perceived_time,2022.2.4,119.95312231196023,
,233,0.8,met,,red,green,,286.9326932117177,,,,,0,27,27,204,trial,,,,,,red,0.2869326932117177,0.2833333333333333,2.2999565999998595,0.9965300000039861,4e-05,4e-05,0.03314,0.283121200001915,0.31662389999837615,1.9999888000020292,2.0331650000007357,2.2999565999998595,2.316445800002839,0.016489200002979487,2.2999565999998595,2.499829400003364,3.0914445000016713,0.7914879000018118,0.7749986999988323,0.18937,0.08284547017103283,0.12242719480830407,,,,None,,0.233,0.23333333333333334,0.5532626932117177,0.55,trial_list_0.8_red.csv,0.5499444000015501,0.583221599998069,p14_high2_01,001,2023-05-11_14h20.27.085,expectation_shapes_perceived_time,2022.2.4,119.95312231196023,
,-100,0.8,met,,red,green,,679.3578565733416,,,,,0,28,28,114,trial,,,,,,red,0.6793578565733416,0.675,2.300025299999106,0.9963315999993938,7e-05,7e-05,0.03322,0.6751304999997956,0.7083124999990105,2.0000796999956947,2.0333585999978823,2.300025299999106,2.300025299999106,0.0,2.300025299999106,2.499982799999998,3.2999135999998543,0.9998883000007481,0.9998883000007481,0.51339,0.14769264876719376,-0.00621863784282921,,,,None,,-0.1,-0.1,0.5460278565733415,0.5416666666666666,trial_list_0.8_red.csv,0.5417138999982853,0.5751092999998946,p14_high2_01,001,2023-05-11_14h20.27.085,expectation_shapes_perceived_time,2022.2.4,119.95312231196023,
,-233,0.8,met,,red,green,,999.8731445731088,,,,,0,29,29,374,trial,,,,,,red,0.9998731445731088,1.0,2.2999803999991855,0.9962484000061522,3e-05,3e-05,0.03329,0.999965399998473,1.033444499997131,1.9999194999982137,2.033542999997735,2.2999803999991855,2.358439099996758,0.058458699997572694,2.2999803999991855,2.5000136000016937,3.2332849000013084,0.933304500002123,0.8748458000045503,1.15895,-0.0707856024816176,-0.12977360454963227,,,,None,,-0.233,-0.23333333333333334,0.7335431445731088,0.7333333333333333,trial_list_0.8_red.csv,0.7331583999985014,0.7666523000007146,p14_high2_01,001,2023-05-11_14h20.27.085,expectation_shapes_perceived_time,2022.2.4,119.95312231196023,
,-167,0.8,met,,red,green,,739.1004576409723,,,,,0,30,30,148,trial,,,,,,red,0.7391004576409723,0.7416666666666667,2.300472399998398,0.9961699999985285,3e-05,3e-05,0.03347,0.7419589999990421,0.7752018999963184,2.000251699995715,2.0335882999934256,2.300472399998398,2.300472399998398,0.0,2.300472399998398,2.500199699999939,3.2334983999971882,0.9330259999987902,0.9330259999987902,0.45095,0.14607162747844535,0.022690738249078888,,,,None,,-0.167,-0.16666666666666666,0.5387704576409723,0.5416666666666666,trial_list_0.8_red.csv,0.541822699997283,0.5752816999956849,p14_high2_01,001,2023-05-11_14h20.27.085,expectation_shapes_perceived_time,2022.2.4,119.95312231196023,
,167,0.8,met,,red,green,,1580.450630408192,,,,,0,31,31,236,trial,,,,,,red,1.580450630408192,1.5833333333333333,2.2997896000015317,0.9965842999954475,4e-05,4e-05,,1.5832808000050136,1.6165814999985741,1.999401699998998,,2.2997896000015317,2.2997896000015317,0.0,2.2997896000015317,2.499792200003867,3.1912933999992674,0.8915037999977358,0.8915037999977358,0.874,0.05699971108268861,-0.1363921658050049,,,,None,,0.167,0.16666666666666666,1.780780630408192,1.7833333333333332,trial_list_0.8_red.csv,1.7828346000023885,1.8160891000006814,p14_high2_01,001,2023-05-11_14h20.27.085,expectation_shapes_perceived_time,2022.2.4,119.95312231196023,
,-33,0.8,met,,red,green,,1653.841489466953,,,,,0,32,32,244,trial,,,,,,red,1.6538414894669529,1.65,2.3000424999991083,0.996770199999446,4e-05,4e-05,0.03336,1.649997099993925,1.6833113999964553,1.999960999994073,2.0333890999972937,2.3000424999991083,2.3000424999991083,0.0,2.3000424999991083,2.499710599993705,2.991570699996373,0.6915281999972649,0.6915281999972649,1.55725,-0.14543910298775306,0.02644347327050056,,,,None,,-0.033,-0.03333333333333333,1.587511489466953,1.5833333333333333,trial_list_0.8_red.csv,1.5833602999991854,1.6168349999934435,p14_high2_01,001,2023-05-11_14h20.27.085,expectation_shapes_perceived_time,2022.2.4,119.95312231196023,
,-167,0.1999999999999999,unmet,,green,red,,1007.3328509159332,,,,,0,33,33,387,trial,,,,,,green,1.0073328509159332,1.0083333333333333,2.299862600004417,0.9952980000016396,6e-05,6e-05,0.03349,1.0085019000034663,1.041855300005409,2.0001667000033194,2.033554900001036,2.299862600004417,2.416620600000897,0.11675799999648007,2.299862600004417,2.499896700006502,4.283442900006776,1.9835803000023589,1.8668223000058788,1.32283,-0.12551052692130696,-0.07809543897325764,,,,None,,-0.167,-0.16666666666666666,0.8070028509159332,0.8083333333333333,trial_list_0.8_red.csv,0.8084095000012894,0.8416562000056729,p14_high2_01,001,2023-05-11_14h20.27.085,expectation_shapes_perceived_time,2022.2.4,119.95312231196023,
,-300,0.8,met,,red,green,,979.1756189764586,,,,,0,34,34,87,trial,,,,,,red,0.9791756189764587,0.975,2.2998999999981606,0.9955962000021827,9e-05,9e-05,0.03318,0.9750264999966021,1.0083115000015823,1.9999472999988939,2.033180699996592,2.2998999999981606,2.424839500003145,0.12493950000498444,2.2998999999981606,2.4999239000026137,3.1332107999987784,0.8333108000006177,0.7083712999956333,0.42449,0.14368417568485187,0.0347368336820521,,,,None,,-0.3,-0.3,0.6458456189764585,0.6416666666666666,trial_list_0.8_red.csv,0.6415180999974837,0.6747847000006004,p14_high2_01,001,2023-05-11_14h20.27.085,expectation_shapes_perceived_time,2022.2.4,119.95312231196023,
,33,0.8,met,,red,green,,1285.5671483402016,,,,,0,35,35,7,trial,,,,,,red,1.2855671483402016,1.2833333333333332,2.2998925000065356,0.9947147999992012,4e-05,4e-05,,1.2832708000059938,1.3168140000052517,1.999924400006421,,2.2998925000065356,2.2998925000065356,0.0,2.2998925000065356,2.50015010000061,3.200217800003884,0.9003252999973483,0.9003252999973483,1.90332,-0.044211916768482414,0.14105706778515817,,,,None,,0.033,0.03333333333333333,1.3518971483402016,1.35,trial_list_0.8_red.csv,1.3499988000039593,1.38336060000438,p14_high2_01,001,2023-05-11_14h20.27.085,expectation_shapes_perceived_time,2022.2.4,119.95312231196023,
,-167,0.8,met,,red,green,,1569.952244604919,,,,,0,36,36,431,trial,,,,,,red,1.569952244604919,1.5666666666666667,2.3003384999974514,0.99574279999797,3e-05,3e-05,,1.567182500002673,1.6003532000031555,2.000500499998452,,2.3003384999974514,2.5669341000029817,0.2665956000055303,2.3003384999974514,2.5003217999983463,3.3588100999986636,1.0584716000012122,0.7918759999956819,1.5342,-0.14697133131575052,0.015849849455620152,,,,None,,-0.167,-0.16666666666666666,1.369622244604919,1.3666666666666667,trial_list_0.8_red.csv,1.3671976999976323,1.40026239999861,p14_high2_01,001,2023-05-11_14h20.27.085,expectation_shapes_perceived_time,2022.2.4,119.95312231196023,
,-300,0.8,met,,red,green,,1395.886264452237,,,,,0,37,37,331,trial,,,,,,red,1.395886264452237,1.3916666666666666,2.3000815999985207,0.9950687000018661,7e-05,7e-05,,1.3919525000019348,1.425249600004463,2.000271900004009,,2.3000815999985207,2.3000815999985207,0.0,2.3000815999985207,2.500086799998826,3.100257700003567,0.8001761000050465,0.8001761000050465,1.58599,-0.14246195403000572,0.03945100265446312,,,,None,,-0.3,-0.3,1.062556264452237,1.0583333333333333,trial_list_0.8_red.csv,1.058602700002666,1.0919501000025775,p14_high2_01,001,2023-05-11_14h20.27.085,expectation_shapes_perceived_time,2022.2.4,119.95312231196023,
,-33,0.8,met,,red,green,,1211.828196576804,,,,,0,38,38,224,trial,,,,,,red,1.211828196576804,1.2083333333333333,2.2997094000020297,0.9961930999998003,5e-05,5e-05,,1.2081993000028888,1.241718099998252,1.9997224000035203,,2.2997094000020297,2.333135900000343,0.033426499998313375,2.2997094000020297,2.4998042000006535,3.6499087999982294,1.3501993999961996,1.3167728999978863,1.69743,-0.12028893749926792,0.08592066964233423,,,,None,,-0.033,-0.03333333333333333,1.145498196576804,1.1416666666666666,trial_list_0.8_red.csv,1.141139999999723,1.17470019999746,p14_high2_01,001,2023-05-11_14h20.27.085,expectation_shapes_perceived_time,2022.2.4,119.95312231196023,
,-33,0.8,met,,red,green,,851.3577048635509,,,,,0,39,39,182,trial,,,,,,red,0.8513577048635509,0.85,2.300128000002587,0.997634500003187,3e-05,3e-05,,0.849930399999721,0.8833080999975209,1.9996357999989414,,2.300128000002587,2.341787299999851,0.04165929999726359,2.300128000002587,2.500140600001032,3.1498638999983086,0.8497358999957214,0.8080765999984578,1.29363,-0.11782895872313896,-0.08926436266904467,,,,None,,-0.033,-0.03333333333333333,0.7850277048635509,0.7833333333333333,trial_list_0.8_red.csv,0.783294399996521,0.8167929999981425,p14_high2_01,001,2023-05-11_14h20.27.085,expectation_shapes_perceived_time,2022.2.4,119.95312231196023,
,-233,0.8,met,,red,green,,1657.8738040367157,,,,,0,40,40,118,trial,,,,,,red,1.6578738040367156,1.6583333333333332,2.2998472999970545,0.9955614999998943,3e-05,3e-05,,1.6582720999940648,1.6915491999970982,1.999914699998044,,2.2998472999970545,2.2998472999970545,0.0,2.2998472999970545,2.50000259999797,3.1747524999955203,0.8749051999984658,0.8749051999984658,1.40142,-0.14079067995735267,-0.04505301758635284,,,,None,,-0.233,-0.23333333333333334,1.3915438040367158,1.3916666666666666,trial_list_0.8_red.csv,1.3916102000002866,1.4250953000009758,p14_high2_01,001,2023-05-11_14h20.27.085,expectation_shapes_perceived_time,2022.2.4,119.95312231196023,
,-233,0.8,met,,red,green,,1603.537009072155,,,,,0,41,41,382,trial,,,,,,red,1.6035370090721548,1.6,2.2999132000040845,0.9965984000009485,3e-05,3e-05,0.03339,1.599897800006147,1.6333263000051375,1.9998296000048867,2.033273000000918,2.2999132000040845,2.316867200002889,0.016953999998804647,2.2999132000040845,2.4998527000061586,2.9333066000035615,0.633393399999477,0.6164394000006723,1.36199,-0.13414494295203955,-0.06210414025557385,,,,None,,-0.233,-0.23333333333333334,1.337207009072155,1.3333333333333333,trial_list_0.8_red.csv,1.333395500005281,1.3666178999992553,p14_high2_01,001,2023-05-11_14h20.27.085,expectation_shapes_perceived_time,2022.2.4,119.95312231196023,
,233,0.1999999999999999,unmet,,green,red,,1561.7312182286232,,,,,0,42,42,410,trial,,,,,,green,1.5617312182286232,1.5583333333333333,2.300598500005435,0.99559340000269,4e-05,4e-05,0.03354,1.5589204999996582,1.5919609000047785,2.0005592000015895,2.0338792000038666,2.300598500005435,2.300598500005435,0.0,2.300598500005435,2.5761177000022144,3.7167257000037353,1.4161271999983,1.4161271999983,1.78921,-0.09089158709865428,0.11657833997436089,,,,None,,0.233,0.23333333333333334,1.828061218228623,1.825,trial_list_0.8_red.csv,1.8256913000004715,1.858843699999852,p14_high2_01,001,2023-05-11_14h20.27.085,expectation_shapes_perceived_time,2022.2.4,119.95312231196023,
,-167,0.8,met,,red,green,,1643.8393994351827,,,,,0,43,43,473,trial,,,,,,red,1.6438393994351828,1.6416666666666666,2.3002726000049734,0.9951996000017971,3e-05,3e-05,0.03325,1.641927000004216,1.6753974000021117,2.000256300001638,2.0338329000005615,2.3002726000049734,2.3002726000049734,0.0,2.3002726000049734,2.500364700004866,3.1421647000024677,0.8418920999974944,0.8418920999974944,1.47459,-0.14735273278157232,-0.011788218622525786,,,,None,,-0.167,-0.16666666666666666,1.4435093994351829,1.4416666666666667,trial_list_0.8_red.csv,1.4421579000045313,1.4755674000043655,p14_high2_01,001,2023-05-11_14h20.27.085,expectation_shapes_perceived_time,2022.2.4,119.95312231196023,
,167,0.8,met,,red,green,,780.7828190287634,,,,,0,44,44,93,trial,,,,,,red,0.7807828190287633,0.7833333333333333,2.299998799993773,0.9960486999989371,3e-05,3e-05,0.03344,0.7830641999971704,0.8165092999988701,2.0002227000004495,2.0335792999976547,2.299998799993773,2.299998799993773,0.0,2.299998799993773,2.5000456999987364,3.1668579999968642,0.8668592000030912,0.8668592000030912,1.52813,-0.1472466005926169,0.013047167141117954,,,,None,,0.167,0.16666666666666666,0.9811128190287633,0.9833333333333333,trial_list_0.8_red.csv,0.9830005999974674,1.016337699998985,p14_high2_01,001,2023-05-11_14h20.27.085,expectation_shapes_perceived_time,2022.2.4,119.95312231196023,
,233,0.8,met,,red,green,,591.7247252627536,,,,,0,45,45,432,trial,,,,,,red,0.5917247252627537,0.5916666666666667,2.3001026999991154,0.9955875000014203,7e-05,7e-05,0.0335,0.5918005999992602,0.6252150000000256,2.000017799997295,2.033571599997231,2.3001026999991154,2.3750975000002654,0.07499480000115,2.3001026999991154,2.4999525000021094,3.433181799999147,1.1330791000000318,1.0580842999988818,0.75849,0.10170346434429753,-0.10727625691110836,,,,None,,0.233,0.23333333333333334,0.8580547252627536,0.8583333333333333,trial_list_0.8_red.csv,0.8584055999963311,0.8916515999953845,p14_high2_01,001,2023-05-11_14h20.27.085,expectation_shapes_perceived_time,2022.2.4,119.95312231196023,
,-233,0.8,met,,red,green,,1079.361265830638,,,,,0,46,46,474,trial,,,,,,red,1.0793612658306382,1.075,2.2996185000010883,0.9963247000050615,4e-05,4e-05,0.03338,1.0749036999986856,1.1082378999999491,1.9998630000045523,2.0334622000009404,2.2996185000010883,2.3079340000040247,0.00831550000293646,2.2996185000010883,2.499626900003932,2.9666676000051666,0.6670491000040784,0.6587336000011419,0.87433,0.05685519595580572,-0.1364524702939337,,,,None,,-0.233,-0.23333333333333334,0.8130312658306381,0.8166666666666667,trial_list_0.8_red.csv,0.8164783000029274,0.8500133000052301,p14_high2_01,001,2023-05-11_14h20.27.085,expectation_shapes_perceived_time,2022.2.4,119.95312231196023,
,-233,0.1999999999999999,unmet,,green,red,,520.9198468686066,,,,,0,47,47,160,trial,,,,,,green,0.5209198468686066,0.5166666666666666,2.3082844000018667,0.9958442999995896,4e-05,4e-05,0.03315,0.5166898000024958,0.5500613000040175,1.9999310999992304,2.0333490000048187,2.3082844000018667,2.3247855000008713,0.01650109999900451,2.3082844000018667,2.508265200005553,3.758397400000831,1.4501129999989644,1.4336118999999599,0.07588,0.03490406293142093,0.14364364360238616,,,,None,,-0.233,-0.23333333333333334,0.2545898468686066,0.2583333333333333,trial_list_0.8_red.csv,0.25818789999902947,0.29165389999980107,p14_high2_01,001,2023-05-11_14h20.27.085,expectation_shapes_perceived_time,2022.2.4,119.95312231196023,
,-33,0.8,met,,red,green,,1542.9734386660396,,,,,0,48,48,226,trial,,,,,,red,1.5429734386660396,1.5416666666666667,2.2999255000031553,0.9963592999993125,5e-05,5e-05,,1.5414915000001201,1.5747908999983338,1.9999584000033792,,2.2999255000031553,2.2999255000031553,0.0,2.2999255000031553,2.4998941000012564,3.2081201000037254,0.9081946000005701,0.9081946000005701,1.50267,-0.1478182903734197,0.0012421705073396613,,,,None,,-0.033,-0.03333333333333333,1.4766434386660396,1.475,trial_list_0.8_red.csv,1.4747424000015599,1.5082187000007252,p14_high2_01,001,2023-05-11_14h20.27.085,expectation_shapes_perceived_time,2022.2.4,119.95312231196023,
,-233,0.8,met,,red,green,,1827.627501326706,,,,,0,49,49,238,trial,,,,,,red,1.8276275013267058,1.825,2.2998205999974743,0.9968033999975887,3e-05,3e-05,,1.8249768000023323,1.8583247999995365,1.9999459000027855,,2.2998205999974743,2.2998205999974743,0.0,2.2998205999974743,2.499903900003119,3.0500389000008,0.7502183000033256,0.7502183000033256,1.68585,-0.12333437518752552,0.08148878360604365,,,,None,,-0.233,-0.23333333333333334,1.5612975013267059,1.5583333333333333,trial_list_0.8_red.csv,1.5582388999973773,1.5917024000009405,p14_high2_01,001,2023-05-11_14h20.27.085,expectation_shapes_perceived_time,2022.2.4,119.95312231196023,
,33,0.8,met,,red,green,,1030.25718503073,0,0,0,0,0,50,50,56,fam,0.556333699998504,0.556333699998504,270.0,2.556377300003078,2.556377300003078,,,,,,,,,,,,,,,,,,,,,,,,,,,,,,,,,,,,p14_high2_01,001,2023-05-11_14h20.27.085,expectation_shapes_perceived_time,2022.2.4,119.95312231196023,
,33,0.8,met,,red,green,,1030.25718503073,1,0,1,0,0,50,50,56,fam,0.49777760000142734,0.49777760000142734,270.0,2.4978935000035563,2.4978935000035563,,,,,,,,,,,,,,,,,,,,,,,,,,,,,,,,,,,,p14_high2_01,001,2023-05-11_14h20.27.085,expectation_shapes_perceived_time,2022.2.4,119.95312231196023,
,33,0.8,met,,red,green,,1030.25718503073,2,0,2,0,0,50,50,56,fam,0.4975440999987768,0.4975440999987768,270.0,2.4976478000025963,2.4976478000025963,,,,,,,,,,,,,,,,,,,,,,,,,,,,,,,,,,,,p14_high2_01,001,2023-05-11_14h20.27.085,expectation_shapes_perceived_time,2022.2.4,119.95312231196023,
,33,0.8,met,,red,green,,1030.25718503073,3,0,3,0,0,50,50,56,fam,0.49811019999469863,0.49811019999469863,270.0,2.497955599996203,2.497955599996203,,,,,,,,,,,,,,,,,,,,,,,,,,,,,,,,,,,,p14_high2_01,001,2023-05-11_14h20.27.085,expectation_shapes_perceived_time,2022.2.4,119.95312231196023,
,33,0.8,met,,red,green,,1030.25718503073,,,,,0,50,50,56,trial,,,,,,red,1.03025718503073,1.0333333333333332,2.3000242999987677,0.998131000000285,5e-05,5e-05,,1.0333192000034614,1.0669318000000203,1.9997150000053807,,2.3000242999987677,2.3000242999987677,0.0,2.3000242999987677,2.500197200002731,3.074841599998763,0.7748172999999952,0.7748172999999952,1.26649,-0.109799419725393,-0.09897412482288945,,,,None,,0.033,0.03333333333333333,1.0965871850307298,1.1,trial_list_0.8_red.csv,1.1002144000012777,1.133410800001002,p14_high2_01,001,2023-05-11_14h20.27.085,expectation_shapes_perceived_time,2022.2.4,119.95312231196023,
,167,0.8,met,,red,green,,729.9189926205455,,,,,0,51,51,193,trial,,,,,,red,0.7299189926205455,0.7333333333333333,2.2997915000014473,0.9968822000009823,0.00014,0.00014,0.03321,0.7330491999964579,0.7665201999989222,1.999873699998716,2.033190399997693,2.2997915000014473,2.2997915000014473,0.0,2.2997915000014473,2.499911200000497,3.0910875999979908,0.7912960999965435,0.7912960999965435,0.59752,0.1409401838469902,-0.04458311938017038,,,,None,,0.167,0.16666666666666666,0.9302489926205455,0.9333333333333333,trial_list_0.8_red.csv,0.9332225999969523,0.9665583000023616,p14_high2_01,001,2023-05-11_14h20.27.085,expectation_shapes_perceived_time,2022.2.4,119.95312231196023,
,233,0.8,met,,red,green,,524.3777108851989,,,,,0,52,52,279,trial,,,,,,red,0.5243777108851989,0.525,2.3001710000025923,0.998332000002847,6e-05,6e-05,0.03337,0.5250602000014624,0.5584768999979133,2.000071000002208,2.03355929999816,2.3001710000025923,2.433335599998827,0.13316459999623476,2.3001710000025923,2.5001185000000987,3.4666435000035563,1.166472500000964,1.0333079000047292,1.51368,-0.14768696770836706,0.006352127643370625,,,,None,,0.233,0.23333333333333334,0.790707710885199,0.7916666666666666,trial_list_0.8_red.csv,0.7916188000017428,0.8249888999998802,p14_high2_01,001,2023-05-11_14h20.27.085,expectation_shapes_perceived_time,2022.2.4,119.95312231196023,
,-100,0.1999999999999999,unmet,,green,red,,944.7182746321316,,,,,0,53,53,378,trial,,,,,,green,0.9447182746321316,0.9416666666666667,2.2998711000036565,0.9963878000053228,3e-05,3e-05,0.03335,0.9415492000043741,0.975178100001358,2.000190900005691,2.0333040000041365,2.2998711000036565,2.4999062000060803,0.20003510000242386,2.2998711000036565,2.4999062000060803,3.2498573000048054,0.949986200001149,0.7499510999987251,1.57721,-0.1434964669394251,0.03550428047985775,,,,None,,-0.1,-0.1,0.8113882746321316,0.8083333333333333,trial_list_0.8_red.csv,0.808413600003405,0.8417173000052571,p14_high2_01,001,2023-05-11_14h20.27.085,expectation_shapes_perceived_time,2022.2.4,119.95312231196023,
,167,0.8,met,,red,green,,636.2940304124652,,,,,0,54,54,324,trial,,,,,,red,0.6362940304124652,0.6333333333333333,2.3002827999953297,0.9961381000030087,3e-05,3e-05,0.03346,0.633618399995612,0.6669760999939172,2.0003852999943774,2.033511899993755,2.3002827999953297,2.3002827999953297,0.0,2.3002827999953297,2.500377299998945,3.15016719999403,0.8498843999987002,0.8498843999987002,1.29878,-0.11925899531122355,-0.0873446162842764,,,,None,,0.167,0.16666666666666666,0.8366240304124652,0.8333333333333334,trial_list_0.8_red.csv,0.833672699998715,0.867118299996946,p14_high2_01,001,2023-05-11_14h20.27.085,expectation_shapes_perceived_time,2022.2.4,119.95312231196023,
,300,0.8,met,,red,green,,402.52677489528105,,,,,0,55,55,350,trial,,,,,,red,0.40252677489528105,0.4,2.2999235999959637,0.9962623999963398,3e-05,3e-05,0.03324,0.40003759999672184,0.43340879999595927,2.000065399995947,2.033270799998718,2.2999235999959637,2.416762299995753,0.11683869999978924,2.2999235999959637,2.4999268999963533,3.900140799996734,1.6002172000007704,1.4833785000009811,0.56208,0.14502132893087682,-0.028646188430790483,,,,None,,0.3,0.3,0.7358567748952811,0.7333333333333333,trial_list_0.8_red.csv,0.7334940999935498,0.7666233999989345,p14_high2_01,001,2023-05-11_14h20.27.085,expectation_shapes_perceived_time,2022.2.4,119.95312231196023,
,-300,0.8,met,,red,green,,1235.6328521772482,,,,,0,56,56,451,trial,,,,,,red,1.2356328521772482,1.2333333333333334,2.3000229000026593,0.9963225000028615,4e-05,4e-05,0.03334,1.2329328999985592,1.266298900001857,2.0000109000029624,2.0334780999983195,2.3000229000026593,2.7748830999989877,0.47486019999632845,2.3000229000026593,2.500080400001025,4.049858700003824,1.749835800001165,1.2749756000048365,1.13312,-0.06003681338891368,-0.1350828301250558,,,,None,,-0.3,-0.3,0.9023028521772481,0.9,trial_list_0.8_red.csv,0.8999344000039855,0.9329914000045392,p14_high2_01,001,2023-05-11_14h20.27.085,expectation_shapes_perceived_time,2022.2.4,119.95312231196023,
,233,0.8,met,,red,green,,1587.2211093702515,,,,,0,57,57,368,trial,,,,,,red,1.5872211093702515,1.5833333333333333,2.3002888999981224,0.9964056999961031,2e-05,2e-05,0.03353,1.5836600000038743,1.6168962000010652,2.0002947000029963,2.033594300002733,2.3002888999981224,2.8252188000042224,0.5249299000061001,2.3002888999981224,2.500110599998152,4.066949200001545,1.766660300003423,1.2417303999973228,1.393,-0.13955064691490068,-0.04875865976544723,,,,None,,0.233,0.23333333333333334,1.8535511093702515,1.8499999999999999,trial_list_0.8_red.csv,1.850311900001543,1.883537100002286,p14_high2_01,001,2023-05-11_14h20.27.085,expectation_shapes_perceived_time,2022.2.4,119.95312231196023,
,100,0.8,met,,red,green,,1692.1981757767296,,,,,0,58,58,442,trial,,,,,,red,1.6921981757767297,1.6916666666666667,2.300075099999958,0.9962200000009034,9e-05,9e-05,,1.6917036999948323,1.7248092999943765,1.9998927999986336,,2.300075099999958,2.3500190999984625,0.049943999998504296,2.300075099999958,2.499979899999744,3.408237999996345,1.1081628999963868,1.0582188999978825,1.8642,-0.06116980346186625,0.13457356761610573,,,,None,,0.1,0.1,1.8255281757767294,1.825,trial_list_0.8_red.csv,1.8248919999969075,1.8581813999990118,p14_high2_01,001,2023-05-11_14h20.27.085,expectation_shapes_perceived_time,2022.2.4,119.95312231196023,
,-100,0.8,met,,red,green,,1739.8894699510347,,,,,0,59,59,429,trial,,,,,,red,1.7398894699510348,1.7416666666666667,2.2999506999985897,0.9964066999964416,8e-05,8e-05,0.03318,1.7410764000014751,1.7744682999982615,1.999744799999462,2.0331272999974317,2.2999506999985897,2.2999506999985897,0.0,2.2999506999985897,2.4997635999970953,3.241484899997886,0.9415341999992961,0.9415341999992961,1.7727,-0.09681413065788812,0.11170861229756321,,,,None,,-0.1,-0.1,1.6065594699510348,1.6083333333333334,trial_list_0.8_red.csv,1.60776249999617,1.641125900001498,p14_high2_01,001,2023-05-11_14h20.27.085,expectation_shapes_perceived_time,2022.2.4,119.95312231196023,
,100,0.8,met,,red,green,,1714.0015187888698,,,,,0,60,60,145,trial,,,,,,red,1.7140015187888697,1.7166666666666666,2.2997537999981432,0.9953009999953792,6e-05,6e-05,,1.7166718000007677,1.7501013000000967,2.00000480000017,,2.2997537999981432,2.2997537999981432,0.0,2.2997537999981432,2.4996344999963185,3.150031699995452,0.8502778999973089,0.8502778999973089,1.70686,-0.11769148965463036,0.08944553213751907,,,,None,,0.1,0.1,1.8473315187888697,1.8499999999999999,trial_list_0.8_red.csv,1.850147699995432,1.8832956999976886,p14_high2_01,001,2023-05-11_14h20.27.085,expectation_shapes_perceived_time,2022.2.4,119.95312231196023,
,-233,0.8,met,,red,green,,1373.7097121108295,,,,,0,61,61,284,trial,,,,,,red,1.3737097121108295,1.375,2.299976800000877,0.9964061999999103,3e-05,3e-05,,1.3750470000013593,1.4082231000065804,2.0000654000032227,,2.299976800000877,2.299976800000877,0.0,2.299976800000877,2.500025300003472,3.282919100005529,0.9829423000046518,0.9829423000046518,1.49316,-0.14778933853931117,-0.0031782653449314233,,,,None,,-0.233,-0.23333333333333334,1.1073797121108295,1.1083333333333334,trial_list_0.8_red.csv,1.1084033000006457,1.1415736000053585,p14_high2_01,001,2023-05-11_14h20.27.085,expectation_shapes_perceived_time,2022.2.4,119.95312231196023,
,-167,0.1999999999999999,unmet,,green,red,,466.0289331282945,,,,,0,62,62,63,trial,,,,,,green,0.4660289331282945,0.4666666666666667,2.3000100999997812,0.998339700003271,4e-05,4e-05,0.03334,0.46686939999926835,0.49995559999661054,1.9999841000026208,2.0335233000005246,2.3000100999997812,2.3000100999997812,0.0,2.3000100999997812,2.4999869000021135,3.3249206999971648,1.0249105999973835,1.0249105999973835,0.23617,0.09988798603294612,0.10896871203594123,,,,None,,-0.167,-0.16666666666666666,0.2656989331282945,0.26666666666666666,trial_list_0.8_red.csv,0.26672880000114674,0.300052799997502,p14_high2_01,001,2023-05-11_14h20.27.085,expectation_shapes_perceived_time,2022.2.4,119.95312231196023,
