id,delay,expectation,congruency,trial_num,stim_color,distractor_color,block,targetTimeMs,famLoop.thisRepN,famLoop.thisTrialN,famLoop.thisN,famLoop.thisIndex,trialss.thisRepN,trialss.thisTrialN,trialss.thisN,trialss.thisIndex,isTrial,handMove.started,audioCue2Start.started,handOri,handMove.ended,audioCue2End.started,target_color,expected_target_onset,expected_target_onset_in_frames,fixationPoint.started,fixationPoint.stopped,audCueStart.started,placeholder.started,target.started,target.stopped,audCueEnd.started,responsePointer.started,responseStarted,rtUntillMotionTreshold,cueForRep.started,space2pass.started,responsePointer.stopped,rTAfterMotionTreshold,rtDurationBtwRespMotion,perceivedTime,resp_x_coord,resp_y_coord,feedbackPointer.stopped,actualTime_x_coord,actualTime_y_coord,space2pass.keys,space2pass.rt,audCueStart.stopped,audCueEnd.stopped,expected_delay,expected_delays_frame,expected_distractor,expected_distractor_frame,expBlockFiles,distractor.started,distractor.stopped,participant,session,date,expName,psychopyVersion,frameRate,
,,,,,,,,,0,0,0,0,,,,,fam,0.6561133000068367,0.6561133000068367,270.0,2.6565545999910682,2.6565545999910682,,,,,,,,,,,,,,,,,,,,,,,,,,,,,,,,,,,,p15_high2_01,001,2023-05-15_14h56.27.774,expectation_shapes_perceived_time,2022.2.4,119.80782825861411,
,,,,,,,,,1,0,1,0,,,,,fam,0.49918479996267706,0.49918479996267706,270.0,2.4991267999866977,2.4991267999866977,,,,,,,,,,,,,,,,,,,,,,,,,,,,,,,,,,,,p15_high2_01,001,2023-05-15_14h56.27.774,expectation_shapes_perceived_time,2022.2.4,119.80782825861411,
,,,,,,,,,2,0,2,0,,,,,fam,0.49810680001974106,0.49810680001974106,270.0,2.498496400017757,2.498496400017757,,,,,,,,,,,,,,,,,,,,,,,,,,,,,,,,,,,,p15_high2_01,001,2023-05-15_14h56.27.774,expectation_shapes_perceived_time,2022.2.4,119.80782825861411,
,,,,,,,,,3,0,3,0,,,,,fam,0.4987372999894433,0.4987372999894433,270.0,2.498158100002911,2.498158100002911,,,,,,,,,,,,,,,,,,,,,,,,,,,,,,,,,,,,p15_high2_01,001,2023-05-15_14h56.27.774,expectation_shapes_perceived_time,2022.2.4,119.80782825861411,
,,,,,,,,,4,0,4,0,,,,,fam,0.4983623999869451,0.4983623999869451,270.0,2.498288600007072,2.498288600007072,,,,,,,,,,,,,,,,,,,,,,,,,,,,,,,,,,,,p15_high2_01,001,2023-05-15_14h56.27.774,expectation_shapes_perceived_time,2022.2.4,119.80782825861411,
,,,,,,,,,,,,,0,0,0,0,test,,,,,,red,0.30761200017675694,0.30833333333333335,2.300333100021817,0.9985041000181809,2.870004391297698e-05,3e-05,0.30876020004507154,0.34204570000292733,2.0003323000273667,2.300333100021817,2.300333100021817,0.0,2.300333100021817,2.6003451000433415,5.775077800033614,3.4747447000117972,3.4747447000117972,0.20607,0.08915358179104274,0.11791280172363719,5.775077800033614,0.12163517351038675,0.08400401491350298,space,3.1700679999776185,,,,,,,,,,p15_high2_01,001,2023-05-15_14h56.27.774,expectation_shapes_perceived_time,2022.2.4,119.80782825861411,
,,,,,,,,,,,,,1,0,1,0,test,,,,,,green,0.27887863176207134,0.275,2.2998701999895275,0.9988387000048533,1.2999982573091984e-05,1e-05,0.27509020001161844,0.3085673999739811,2.0001376000000164,2.2998701999895275,2.3079358999966644,0.008065700007136911,2.2998701999895275,2.5994775000144728,9.158448599977419,6.858578399987891,6.850512699980754,0.25247,0.10533412799349606,0.1037136029474423,9.158448599977419,0.11356731756524166,0.09462692184323379,space,6.556027600017842,0.03336870000930503,2.033438300015405,,,,,,,,p15_high2_01,001,2023-05-15_14h56.27.774,expectation_shapes_perceived_time,2022.2.4,119.80782825861411,
,,,,,,,,,,,,,2,0,2,0,test,,,,,,green,1.2989587080240512,1.3,2.299654900038149,0.9985162000521086,1.4000048395246267e-05,1e-05,1.3001587000326253,1.333151100028772,1.9998115000198595,2.299654900038149,2.832898300024681,0.5332433999865316,2.299654900038149,2.599828800011892,6.616894700040575,4.317239800002426,3.7839964000158943,1.01639,-0.00760966567968996,-0.14762751418598524,6.616894700040575,-0.1193068523401091,-0.08727923545257102,space,4.013553400000092,0.03330050001386553,2.033120800042525,,,,,,,,p15_high2_01,001,2023-05-15_14h56.27.774,expectation_shapes_perceived_time,2022.2.4,119.80782825861411,
,,,,,,,,,,,,,3,0,3,0,test,,,,,,green,1.306456913005965,1.3083333333333333,2.3002579000312835,0.9981947999913245,1.2500036973506212e-05,1e-05,1.308273000002373,1.3414802000042982,2.0000740000396036,2.3002579000312835,2.933558600023389,0.6333006999921054,2.3002579000312835,2.5999590000137687,5.210302199993748,2.9100442999624647,2.2767435999703594,1.25,-0.10452700597570448,-0.10452700597570448,5.210302199993748,-0.12132953842443243,-0.08444485219481465,space,2.604296899982728,,,,,,,,,,p15_high2_01,001,2023-05-15_14h56.27.774,expectation_shapes_perceived_time,2022.2.4,119.80782825861411,
,,,,,,,,,,,,,4,0,4,0,test,,,,,,red,0.27876455267901123,0.275,2.2992132999934256,0.9962088000029325,1.2899981811642647e-05,1e-05,0.27473309997003525,0.30825160001404583,1.999545999977272,2.2992132999934256,2.2992132999934256,0.0,2.2992132999934256,2.5997790999826975,6.174966999969911,3.8757536999764852,3.8757536999764852,0.36806,0.13530508037719657,0.05953423536596649,6.174966999969911,0.11353339692908501,0.09466761715725583,space,3.5713308999547735,,,,,,,,,,p15_high2_01,001,2023-05-15_14h56.27.774,expectation_shapes_perceived_time,2022.2.4,119.80782825861411,
,,,,,,,,,0,0,0,0,0,-1,-1,0,fam,0.5324275000020862,0.5324275000020862,270.0,2.532049100031145,2.532049100031145,,,,,,,,,,,,,,,,,,,,,,,,,,,,,,,,,,,,p15_high2_01,001,2023-05-15_14h56.27.774,expectation_shapes_perceived_time,2022.2.4,119.80782825861411,
,,,,,,,,,1,0,1,0,0,-1,-1,0,fam,0.4989977999939583,0.4989977999939583,270.0,2.4991171000292525,2.4991171000292525,,,,,,,,,,,,,,,,,,,,,,,,,,,,,,,,,,,,p15_high2_01,001,2023-05-15_14h56.27.774,expectation_shapes_perceived_time,2022.2.4,119.80782825861411,
,,,,,,,,,2,0,2,0,0,-1,-1,0,fam,0.49893669999437407,0.49893669999437407,270.0,2.498788900033105,2.498788900033105,,,,,,,,,,,,,,,,,,,,,,,,,,,,,,,,,,,,p15_high2_01,001,2023-05-15_14h56.27.774,expectation_shapes_perceived_time,2022.2.4,119.80782825861411,
,,,,,,,,,3,0,3,0,0,-1,-1,0,fam,0.4987443999852985,0.4987443999852985,270.0,2.498885400011204,2.498885400011204,,,,,,,,,,,,,,,,,,,,,,,,,,,,,,,,,,,,p15_high2_01,001,2023-05-15_14h56.27.774,expectation_shapes_perceived_time,2022.2.4,119.80782825861411,
1,-500,0.5,none,68,red,green,no_Expectation,,,,,,0,0,0,3,train_doubleStim,,,,,,red,0.6952750969143701,0.6916666666666667,2.299310099973809,0.9915426999796182,1e-05,1e-05,0.6913505999837071,0.7246323999715969,1.9993554999819025,2.299310099973809,3.2166536999866366,0.9173436000128277,2.299310099973809,2.4994951999979094,5.024529199989047,2.725219100015238,1.8078755000024103,0.1838,0.08069396792347286,0.12385585774300485,,,,None,,0.03288,2.0325674999621697,-0.5,-0.5,0.16194509691437003,0.15833333333333333,training_double_stim.csv,0.15834309998899698,0.19151479995343834,p15_high2_01,001,2023-05-15_14h56.27.774,expectation_shapes_perceived_time,2022.2.4,119.80782825861411,
1,500,0.5,none,33,green,red,no_Expectation,,,,,,0,1,1,7,train_doubleStim,,,,,,green,0.25403061246522474,0.25,2.300082999980077,0.9961861000047065,1e-05,1e-05,0.2503619999624789,0.2833851000177674,2.0001633999636397,2.300082999980077,3.0419358999934047,0.7418529000133276,2.300082999980077,2.50046139996266,4.533611099992413,2.233528100012336,1.4916751999990083,0.36756,0.13521218389629117,0.05974491846580308,,,,None,,,,0.5,0.5,0.7873606124652248,0.7833333333333333,training_double_stim.csv,0.7834928999654949,0.8169448999688029,p15_high2_01,001,2023-05-15_14h56.27.774,expectation_shapes_perceived_time,2022.2.4,119.80782825861411,
1,500,0.5,none,88,red,green,no_Expectation,,,,,,0,2,2,9,train_doubleStim,,,,,,red,0.29124668843649026,0.2916666666666667,2.2999654000159353,0.997796899988316,1e-05,1e-05,0.2911440000170842,0.32435870001791045,2.000005299982149,2.2999654000159353,2.7913483000011183,0.49138289998518303,2.2999654000159353,2.4992811999982223,5.074641200015321,2.774675799999386,2.283292900014203,0.93978,0.027801503104692222,-0.14518562732450382,,,,None,,0.03331,2.033003800024744,0.5,0.5,0.8245766884364903,0.825,training_double_stim.csv,0.8248468000092544,0.8583136000088416,p15_high2_01,001,2023-05-15_14h56.27.774,expectation_shapes_perceived_time,2022.2.4,119.80782825861411,
1,-500,0.5,none,59,green,red,no_Expectation,,,,,,0,3,3,0,train_doubleStim,,,,,,green,0.8854429833030187,0.8833333333333333,2.3003670999896713,0.9970713999937288,1e-05,1e-05,0.8837116999784485,0.917067100002896,2.0004267999902368,2.3003670999896713,2.7165731000131927,0.4162060000235215,2.3003670999896713,2.5001786000211723,3.841963700018823,1.5415966000291519,1.1253906000056304,0.90399,0.04391342036132825,-0.14115027973284078,,,,None,,,,-0.5,-0.5,0.35211298330301877,0.35,training_double_stim.csv,0.34984979999717325,0.3837157000089064,p15_high2_01,001,2023-05-15_14h56.27.774,expectation_shapes_perceived_time,2022.2.4,119.80782825861411,
1,-500,0.5,none,23,green,red,no_Expectation,,,,,,0,4,4,2,train_doubleStim,,,,,,green,0.9955395686909783,0.9916666666666667,2.2999750999733806,0.9973817999707535,6e-05,6e-05,0.9916431999881752,1.0250192999956198,1.999962100002449,2.2999750999733806,2.4084189999848604,0.10844390001147985,2.2999750999733806,2.4998977999784984,3.8915448999614455,1.591569799988065,1.483125899976585,0.77886,0.094634304676012,-0.11356116561121439,,,,None,,,,-0.5,-0.5,0.4622095686909783,0.4583333333333333,training_double_stim.csv,0.45790469995699823,0.4912604999844916,p15_high2_01,001,2023-05-15_14h56.27.774,expectation_shapes_perceived_time,2022.2.4,119.80782825861411,
1,-500,0.5,none,77,green,red,no_Expectation,,,,,,0,5,5,1,train_doubleStim,,,,,,green,1.8396114112870927,1.8333333333333333,2.2999141000327654,0.9982632999890484,1e-05,1e-05,1.8335342000355013,1.8672485999995843,2.0005483999848366,2.2999141000327654,2.4665492000058293,0.16663509997306392,2.2999141000327654,2.500037899997551,3.499991399992723,1.2000772999599576,1.0334421999868937,1.55324,-0.14576072636104542,0.024608953801215465,,,,None,,,2.033802999998443,-0.5,-0.5,1.3062814112870929,1.3083333333333333,training_double_stim.csv,1.3083400999894366,1.341619200014975,p15_high2_01,001,2023-05-15_14h56.27.774,expectation_shapes_perceived_time,2022.2.4,119.80782825861411,
1,500,0.5,none,98,red,green,no_Expectation,,,,,,0,6,6,5,train_doubleStim,,,,,,red,0.7407448961611526,0.7416666666666667,2.300371399964206,0.9972752999747172,1e-05,1e-05,0.7422115000081249,0.774926099984441,2.00041079998482,2.300371399964206,2.9335947000072338,0.6332233000430278,2.300371399964206,2.500284100009594,4.500245500006713,2.199874100042507,1.5666507999994792,1.49576,-0.14781037136930789,-0.001970804951590772,,,,None,,0.03337,2.0335500999935903,0.5,0.5,1.2740748961611525,1.275,training_double_stim.csv,1.2754558000015095,1.3085401999996975,p15_high2_01,001,2023-05-15_14h56.27.774,expectation_shapes_perceived_time,2022.2.4,119.80782825861411,
1,-500,0.5,none,46,red,green,no_Expectation,,,,,,0,7,7,4,train_doubleStim,,,,,,red,0.9969385604917116,0.9916666666666667,2.300457199977245,0.9966991000110283,4e-05,4e-05,0.9919929999741726,1.025324099988211,2.000173199980054,2.300457199977245,2.3835583999753,0.08310119999805465,2.300457199977245,2.499848800012842,3.550531399960164,1.2500741999829188,1.1669729999848641,1.01016,-0.004715370745466666,-0.14774828335795553,,,,None,,0.03331,2.033914299972821,-0.5,-0.5,0.46360856049171156,0.4666666666666667,training_double_stim.csv,0.4665656999568455,0.4998769999947399,p15_high2_01,001,2023-05-15_14h56.27.774,expectation_shapes_perceived_time,2022.2.4,119.80782825861411,
1,500,0.5,none,60,red,green,no_Expectation,,,,,,0,8,8,8,train_doubleStim,,,,,,red,0.20674063632096515,0.20833333333333334,2.300344799994491,0.9969043000019155,1e-05,1e-05,0.20838490000460297,0.2417103999760002,2.000348399975337,2.300344799994491,2.300344799994491,0.0,2.300344799994491,2.5001948999706656,3.4337023999542,1.1333575999597088,1.1333575999597088,0.61635,0.13805809072195036,-0.05283704706642543,,,,None,,0.03371,2.034131399996113,0.5,0.5,0.7400706363209651,0.7416666666666667,training_double_stim.csv,0.741690099996049,0.7750095999799669,p15_high2_01,001,2023-05-15_14h56.27.774,expectation_shapes_perceived_time,2022.2.4,119.80782825861411,
1,500,0.5,none,25,green,red,no_Expectation,,,,,,0,9,9,6,train_doubleStim,,,,,,green,0.7073111360632659,0.7083333333333334,2.300056800013408,0.9975309000001289,1e-05,1e-05,0.7080607000389136,0.7414699000073597,1.9998975000344217,2.300056800013408,3.616700000013225,1.3166431999998167,2.300056800013408,2.5003111000405625,5.183347100042738,2.88329030002933,1.5666471000295132,1.21217,-0.09139694877026074,-0.11618256199609414,,,,None,,0.03332,2.0334039000445046,0.5,0.5,1.2406411360632659,1.2416666666666667,training_double_stim.csv,1.2415435000439174,1.2747649000375532,p15_high2_01,001,2023-05-15_14h56.27.774,expectation_shapes_perceived_time,2022.2.4,119.80782825861411,
,,,,,,,,,0,0,0,0,0,-1,-1,0,fam,0.5320466999546625,0.5320466999546625,270.0,2.532101899967529,2.532101899967529,,,,,,,,,,,,,,,,,,,,,,,,,,,,,,,,,,,,p15_high2_01,001,2023-05-15_14h56.27.774,expectation_shapes_perceived_time,2022.2.4,119.80782825861411,
,,,,,,,,,1,0,1,0,0,-1,-1,0,fam,0.4988500999752432,0.4988500999752432,270.0,2.499032600026112,2.499032600026112,,,,,,,,,,,,,,,,,,,,,,,,,,,,,,,,,,,,p15_high2_01,001,2023-05-15_14h56.27.774,expectation_shapes_perceived_time,2022.2.4,119.80782825861411,
,,,,,,,,,2,0,2,0,0,-1,-1,0,fam,0.49762530002044514,0.49762530002044514,270.0,2.49820950004505,2.49820950004505,,,,,,,,,,,,,,,,,,,,,,,,,,,,,,,,,,,,p15_high2_01,001,2023-05-15_14h56.27.774,expectation_shapes_perceived_time,2022.2.4,119.80782825861411,
,,,,,,,,,3,0,3,0,0,-1,-1,0,fam,0.4983265000046231,0.4983265000046231,270.0,2.4986173000070266,2.4986173000070266,,,,,,,,,,,,,,,,,,,,,,,,,,,,,,,,,,,,p15_high2_01,001,2023-05-15_14h56.27.774,expectation_shapes_perceived_time,2022.2.4,119.80782825861411,
,-100,0.8,met,,red,green,,1042.7860712389872,,,,,0,0,0,414,trial,,,,,,red,1.0427860712389871,1.0416666666666667,2.299822899978608,0.9989256999688223,1e-05,1e-05,1.041474300029222,1.0749162000138313,1.9996136000263505,2.299822899978608,3.0998836000217125,0.8000607000431046,2.299822899978608,2.4997130000265315,4.7665865999879315,2.4667637000093237,1.666702999966219,0.90877,0.041791616766026794,-0.14179298545616237,,,,None,,,,-0.1,-0.1,0.9094560712389872,0.9083333333333333,trial_list_0.8_red.csv,0.9083778000203893,0.9415474000270478,p15_high2_01,001,2023-05-15_14h56.27.774,expectation_shapes_perceived_time,2022.2.4,119.80782825861411,
,167,0.8,met,,red,green,,733.1385648236154,,,,,0,1,1,336,trial,,,,,,red,0.7331385648236154,0.7333333333333333,2.3001513000344858,0.9980565999867395,3e-05,3e-05,0.7333264999906532,0.7672015000134706,2.000213999999687,2.3001513000344858,2.883270399994217,0.5831190999597311,2.3001513000344858,2.4999342000228353,4.32540999999037,2.0252586999558844,1.4421395999961533,0.90317,0.04427877404776543,-0.14103609511510468,,,,None,,0.03324,2.033779199991841,0.167,0.16666666666666666,0.9334685648236154,0.9333333333333333,trial_list_0.8_red.csv,0.9332718999939971,0.9674468000303023,p15_high2_01,001,2023-05-15_14h56.27.774,expectation_shapes_perceived_time,2022.2.4,119.80782825861411,
,300,0.1999999999999999,unmet,,green,red,,678.9592354015655,,,,,0,2,2,319,trial,,,,,,green,0.6789592354015654,0.675,2.3000261000124738,0.997634899977129,3e-05,3e-05,0.6747975000180304,0.7080448999768123,1.9998265000176616,2.3000261000124738,2.4749004000332206,0.1748743000207469,2.3000261000124738,2.4997952000121586,3.5834069999982603,1.2833808999857865,1.1085065999650396,0.99399,0.0027886264911127696,-0.14779720402897678,,,,None,,,,0.3,0.3,1.0122892354015656,1.0083333333333333,trial_list_0.8_red.csv,1.008245299977716,1.0416014000074938,p15_high2_01,001,2023-05-15_14h56.27.774,expectation_shapes_perceived_time,2022.2.4,119.80782825861411,
,33,0.8,met,,red,green,,1723.220880181316,,,,,0,3,3,33,trial,,,,,,red,1.723220880181316,1.7166666666666666,2.3005277999909595,0.9970069999690168,1e-05,1e-05,1.7170059999916703,1.7503027999773622,2.000507299962919,2.3005277999909595,2.6086848999839276,0.30815709999296814,2.3005277999909595,2.5002437999937683,4.11702929995954,1.816501499968581,1.5083443999756128,1.50335,-0.14781532049749832,0.0015559507420789295,,,,None,,0.03332,2.0335663000005297,0.033,0.03333333333333333,1.789550880181316,1.7833333333333332,trial_list_0.8_red.csv,1.783913199964445,1.8168880000011995,p15_high2_01,001,2023-05-15_14h56.27.774,expectation_shapes_perceived_time,2022.2.4,119.80782825861411,
,233,0.8,met,,red,green,,862.5331050045104,,,,,0,4,4,50,trial,,,,,,red,0.8625331050045104,0.8583333333333333,2.3000802000169642,0.9971807000110857,2e-05,2e-05,0.8584646999952383,0.8921960000297986,2.000261200009845,2.3000802000169642,2.6085827000206336,0.3085025000036694,2.3000802000169642,2.5006327999872155,3.900237800029572,1.6001576000126079,1.2916551000089385,1.08359,-0.038375139883734685,-0.14275552036749303,,,,None,,,,0.233,0.23333333333333334,1.1288631050045104,1.125,trial_list_0.8_red.csv,1.1252123999875039,1.1587423000019044,p15_high2_01,001,2023-05-15_14h56.27.774,expectation_shapes_perceived_time,2022.2.4,119.80782825861411,
,100,0.8,met,,red,green,,1656.708487624597,,,,,0,5,5,230,trial,,,,,,red,1.656708487624597,1.65,2.300312999985181,0.9974504999700002,2e-05,2e-05,1.6503290999680758,1.683720299974084,2.0004171999753453,2.300312999985181,2.300312999985181,0.0,2.300312999985181,2.500505300005898,3.367108599981293,1.0667955999961123,1.0667955999961123,1.63868,-0.1340141419050534,0.062385893645455895,,,,None,,,,0.1,0.1,1.790038487624597,1.7833333333333332,trial_list_0.8_red.csv,1.7840954999555834,1.8173034999636002,p15_high2_01,001,2023-05-15_14h56.27.774,expectation_shapes_perceived_time,2022.2.4,119.80782825861411,
,167,0.8,met,,red,green,,373.4357339987914,,,,,0,6,6,105,trial,,,,,,red,0.37343573399879143,0.375,2.299733299994841,0.9974221999873407,1e-05,1e-05,0.374924200004898,0.4082407000241801,1.9998905999818817,2.299733299994841,2.299733299994841,0.0,2.299733299994841,2.499828400032129,3.4748278000042774,1.1750945000094362,1.1750945000094362,0.46562,0.14696205358921438,0.015935644365095536,,,,None,,0.0335,2.03306899999734,0.167,0.16666666666666666,0.5737657339987915,0.575,trial_list_0.8_red.csv,0.5745026000076905,0.6080529000028037,p15_high2_01,001,2023-05-15_14h56.27.774,expectation_shapes_perceived_time,2022.2.4,119.80782825861411,
,33,0.1999999999999999,unmet,,green,red,,1484.7430136026403,,,,,0,7,7,347,trial,,,,,,green,1.4847430136026403,1.4833333333333334,2.2997814000118524,0.9975006000022404,1e-05,1e-05,1.483373399998527,1.5166942000505514,1.9996225000359118,2.2997814000118524,2.46623710001586,0.16645570000400767,2.2997814000118524,2.499815400049556,3.9250931999995373,1.625311799987685,1.4588560999836773,1.43213,-0.1444764719048484,-0.0312784114433177,,,,None,,0.03334,2.033160399994813,0.033,0.03333333333333333,1.5510730136026403,1.55,trial_list_0.8_red.csv,1.550215199997183,1.5834419000311755,p15_high2_01,001,2023-05-15_14h56.27.774,expectation_shapes_perceived_time,2022.2.4,119.80782825861411,
,-300,0.8,met,,red,green,,887.8543938680793,,,,,0,8,8,9,trial,,,,,,red,0.8878543938680793,0.8833333333333333,2.299742100003641,0.9970683999708854,1e-05,1e-05,0.8834741999744438,0.9169175999704748,1.9996108999475837,2.299742100003641,2.783117199956905,0.483375099953264,2.299742100003641,2.500027999980375,4.283209299959708,1.983467199956067,1.500092100002803,0.87888,0.05490027316870664,-0.1372506829217666,,,,None,,0.03344,2.0329365999787115,-0.3,-0.3,0.5545243938680793,0.55,trial_list_0.8_red.csv,0.5499244999955408,0.5836022999719717,p15_high2_01,001,2023-05-15_14h56.27.774,expectation_shapes_perceived_time,2022.2.4,119.80782825861411,
,100,0.8,met,,red,green,,1262.566615076557,,,,,0,9,9,77,trial,,,,,,red,1.2625666150765569,1.2583333333333333,2.299649699998554,0.9973174000042491,1e-05,1e-05,1.2582078999839723,1.2919077999540605,2.000047099951189,2.299649699998554,3.333449199970346,1.033799499971792,2.299649699998554,2.4999722999637015,5.116642699984368,2.816992999985814,1.783193500014022,0.89331,0.04862390319319672,-0.13959765755466155,,,,None,,,,0.1,0.1,1.3958966150765568,1.3916666666666666,trial_list_0.8_red.csv,1.3917108999448828,1.4249019999988377,p15_high2_01,001,2023-05-15_14h56.27.774,expectation_shapes_perceived_time,2022.2.4,119.80782825861411,
,-300,0.8,met,,red,green,,1837.3921352617367,,,,,0,10,10,266,trial,,,,,,red,1.8373921352617366,1.8333333333333333,2.300634999992326,0.9971926999860443,1e-05,1e-05,1.8336383000132628,1.8671104999957606,2.000337800011039,2.300634999992326,2.4340160000137985,0.13338100002147257,2.300634999992326,2.5005077999667265,3.391890599974431,1.0912555999821052,0.9578745999606326,1.39245,-0.13946558890252797,-0.049001423127915236,,,,None,,0.0334,2.0336854999768548,-0.3,-0.3,1.5040621352617367,1.5,trial_list_0.8_red.csv,1.5002573999809101,1.5336483999853954,p15_high2_01,001,2023-05-15_14h56.27.774,expectation_shapes_perceived_time,2022.2.4,119.80782825861411,
,167,0.8,met,,red,green,,1348.401644540604,,,,,0,11,11,395,trial,,,,,,red,1.348401644540604,1.35,2.2997987999697216,0.9976689000031911,1e-05,1e-05,1.349886299984064,1.3832793000037782,1.9996557999984361,2.2997987999697216,2.7666854999843054,0.46688670001458377,2.2997987999697216,2.5000513999839313,3.8081655999994837,1.508366800029762,1.0414801000151783,1.39549,-0.13992712753540218,-0.04766748300656558,,,,None,,,,0.167,0.16666666666666666,1.5487316445406039,1.55,trial_list_0.8_red.csv,1.54981629998656,1.5830118999583647,p15_high2_01,001,2023-05-15_14h56.27.774,expectation_shapes_perceived_time,2022.2.4,119.80782825861411,
,233,0.8,met,,red,green,,524.3777108851989,,,,,0,12,12,279,trial,,,,,,red,0.5243777108851989,0.525,2.300385699956678,0.996808499970939,1e-05,1e-05,0.5247398999636061,0.558249199995771,1.9999871999607421,2.300385699956678,2.300385699956678,0.0,2.300385699956678,2.5004628999740817,3.3501272999565117,1.0497415999998339,1.0497415999998339,0.75922,0.10145462759328765,-0.10751162028542423,,,,None,,0.03334,2.033397799998056,0.233,0.23333333333333334,0.790707710885199,0.7916666666666666,trial_list_0.8_red.csv,0.7913446999737062,0.8247599999886006,p15_high2_01,001,2023-05-15_14h56.27.774,expectation_shapes_perceived_time,2022.2.4,119.80782825861411,
,-100,0.8,met,,red,green,,679.3578565733416,,,,,0,13,13,114,trial,,,,,,red,0.6793578565733416,0.675,2.300202399957925,0.9982673999620602,1e-05,1e-05,0.6751461999956518,0.7087102999794297,1.9998558000079356,2.300202399957925,2.733674799965229,0.4334724000073038,2.300202399957925,2.5002061999985017,4.08353999996325,1.783337600005325,1.3498651999980211,0.84749,0.06814513424553506,-0.13117938342265498,,,,None,,0.03345,2.033227599982638,-0.1,-0.1,0.5460278565733415,0.5416666666666666,trial_list_0.8_red.csv,0.5419517999980599,0.5750772999599576,p15_high2_01,001,2023-05-15_14h56.27.774,expectation_shapes_perceived_time,2022.2.4,119.80782825861411,
,33,0.8,met,,red,green,,1584.0214018937145,,,,,0,14,14,286,trial,,,,,,red,1.5840214018937144,1.5833333333333333,2.2997458000318147,0.9976670000469312,1e-05,1e-05,1.5831618000520393,1.6166387000121176,1.9995837000315078,2.2997458000318147,2.716604200017173,0.4168583999853581,2.2997458000318147,2.499952700047288,4.0750970000517555,1.7753512000199407,1.3584928000345826,1.52835,-0.14723778917906444,0.013146231176702184,,,,None,,,,0.033,0.03333333333333333,1.6503514018937144,1.65,trial_list_0.8_red.csv,1.649966700002551,1.683193700038828,p15_high2_01,001,2023-05-15_14h56.27.774,expectation_shapes_perceived_time,2022.2.4,119.80782825861411,
,-167,0.8,met,,red,green,,973.9507738367718,,,,,0,15,15,175,trial,,,,,,red,0.9739507738367718,0.975,2.300001700001303,0.9982799999997951,1e-05,1e-05,0.9750154000357725,1.008134500007145,1.9996707999962382,2.300001700001303,2.308107100019697,0.008105400018393993,2.300001700001303,2.4999268000246957,3.1332950000069104,0.8332933000056073,0.8251878999872133,0.79443,0.08896761457057054,-0.11805318087248784,,,,None,,0.03378,2.033223900012672,-0.167,-0.16666666666666666,0.7736207738367717,0.775,trial_list_0.8_red.csv,0.7749616000219248,0.8084642000030726,p15_high2_01,001,2023-05-15_14h56.27.774,expectation_shapes_perceived_time,2022.2.4,119.80782825861411,
,-33,0.8,met,,red,green,,1726.311605937134,,,,,0,16,16,137,trial,,,,,,red,1.726311605937134,1.7249999999999999,2.3003796000266448,0.9970478999894112,1e-05,1e-05,1.7254204000346363,1.7584497000207193,1.9997246999992058,2.3003796000266448,2.4001940000453033,0.09981440001865849,2.3003796000266448,2.500229199999012,3.333262800006196,1.0328831999795511,0.9330687999608926,1.57113,-0.14414756095731646,0.03276080930848101,,,,None,,,,-0.033,-0.03333333333333333,1.659981605937134,1.6583333333333332,trial_list_0.8_red.csv,1.6585208000033163,1.6918584000086412,p15_high2_01,001,2023-05-15_14h56.27.774,expectation_shapes_perceived_time,2022.2.4,119.80782825861411,
,300,0.8,met,,red,green,,360.78889433014433,,,,,0,17,17,377,trial,,,,,,red,0.3607888943301443,0.35833333333333334,2.2996693999739364,0.9970515999593772,1e-05,1e-05,0.35794780001742765,0.39125420001801103,2.000017200014554,2.2996693999739364,2.907665300008375,0.6079959000344388,2.2996693999739364,2.4995581000111997,4.566132100007962,2.266462700034026,1.6584667999995872,0.83012,0.0752021522964983,-0.12726518080945864,,,,None,,0.03317,2.033344399998896,0.3,0.3,0.6941188943301444,0.6916666666666667,trial_list_0.8_red.csv,0.6914902999997139,0.7243370999931358,p15_high2_01,001,2023-05-15_14h56.27.774,expectation_shapes_perceived_time,2022.2.4,119.80782825861411,
,-233,0.8,met,,red,green,,712.0657306789109,,,,,0,18,18,208,trial,,,,,,red,0.7120657306789109,0.7083333333333334,2.299707699974533,0.9988638000213541,1e-05,1e-05,0.7078735000104643,0.7412550000008196,1.9996046999585815,2.299707699974533,4.51656419999199,2.2168565000174567,2.299707699974533,2.499785599997267,7.357902899966575,5.058195199992042,2.8413386999745853,0.8632,0.06159136154860301,-0.1343811524696793,,,,None,,,,-0.233,-0.23333333333333334,0.4457357306789109,0.44166666666666665,trial_list_0.8_red.csv,0.4415158999618143,0.4749712999910116,p15_high2_01,001,2023-05-15_14h56.27.774,expectation_shapes_perceived_time,2022.2.4,119.80782825861411,
,-100,0.8,met,,red,green,,791.7512688117964,,,,,0,19,19,323,trial,,,,,,red,0.7917512688117965,0.7916666666666666,2.3002609999966808,0.9983976000221446,3e-05,3e-05,0.7916068999911658,0.8251314000226557,2.00017429998843,2.3002609999966808,2.3002609999966808,0.0,2.3002609999966808,2.5004314000252634,3.4833067000145093,1.1830457000178285,1.1830457000178285,0.67004,0.12722949184832583,-0.07526251630464345,,,,None,,0.03333,2.033583600015845,-0.1,-0.1,0.6584212688117964,0.6583333333333333,trial_list_0.8_red.csv,0.6586164000327699,0.6917449000175111,p15_high2_01,001,2023-05-15_14h56.27.774,expectation_shapes_perceived_time,2022.2.4,119.80782825861411,
,100,0.8,met,,red,green,,841.491653913312,,,,,0,20,20,265,trial,,,,,,red,0.841491653913312,0.8416666666666667,2.2997936999890953,0.9973807000205852,2e-05,2e-05,0.8417054999736138,0.875009199953638,2.000386299972888,2.2997936999890953,2.500830599979963,0.20103689999086782,2.2997936999890953,2.500830599979963,3.525029399956111,1.2252356999670155,1.0241987999761477,0.5554,0.14559023943946708,-0.02559828385748872,,,,None,,,,0.1,0.1,0.9748216539133121,0.975,trial_list_0.8_red.csv,0.9749697999795899,1.0083180999499746,p15_high2_01,001,2023-05-15_14h56.27.774,expectation_shapes_perceived_time,2022.2.4,119.80782825861411,
,33,0.8,met,,red,green,,493.7423553585536,,,,,0,21,21,183,trial,,,,,,red,0.4937423553585536,0.49166666666666664,2.300542499986477,0.9971398999914527,3e-05,3e-05,0.49154319998342544,0.524976400018204,2.0003574999864213,2.300542499986477,2.300542499986477,0.0,2.300542499986477,2.5002483000280336,3.716995900031179,1.416453400044702,1.416453400044702,0.55653,0.14549842410296615,-0.026115101762070846,,,,None,,0.034,2.0334654999896884,0.033,0.03333333333333333,0.5600723553585536,0.5583333333333333,trial_list_0.8_red.csv,0.55829369998537,0.5915726000093855,p15_high2_01,001,2023-05-15_14h56.27.774,expectation_shapes_perceived_time,2022.2.4,119.80782825861411,
,-100,0.8,met,,red,green,,517.2393194569406,,,,,0,22,22,194,trial,,,,,,red,0.5172393194569406,0.5166666666666666,2.3001764999935403,0.9973568000132218,4e-05,4e-05,0.51664470002288,0.5500887999660335,1.9998430999694392,2.3001764999935403,2.3001764999935403,0.0,2.3001764999935403,2.5000466000055894,3.491538700007368,1.1913622000138275,1.1913622000138275,0.42627,0.1438761211851751,0.033933047449333745,,,,None,,0.03323,2.033590600010939,-0.1,-0.1,0.3839093194569406,0.3833333333333333,trial_list_0.8_red.csv,0.383547900011763,0.41679689998272806,p15_high2_01,001,2023-05-15_14h56.27.774,expectation_shapes_perceived_time,2022.2.4,119.80782825861411,
,100,0.8,met,,red,green,,1351.8529511196336,,,,,0,23,23,234,trial,,,,,,red,1.3518529511196336,1.35,2.300391299999319,0.9976583999814466,1e-05,1e-05,1.3496799999848008,1.383004700008314,2.000145400001202,2.300391299999319,3.2587642000289634,0.9583729000296444,2.300391299999319,2.4997162999934517,3.9921258999966085,1.6917345999972895,0.7333616999676451,0.91375,0.03956405523701119,-0.14243059885324028,,,,None,,0.03339,2.0336267999955453,0.1,0.1,1.4851829511196335,1.4833333333333334,trial_list_0.8_red.csv,1.483008700015489,1.5166001000325195,p15_high2_01,001,2023-05-15_14h56.27.774,expectation_shapes_perceived_time,2022.2.4,119.80782825861411,
,-233,0.8,met,,red,green,,1373.7097121108295,,,,,0,24,24,284,trial,,,,,,red,1.3737097121108295,1.375,2.3001502999686636,0.9969776999787427,1e-05,1e-05,1.3744891000096686,1.4078503000200726,1.9999381999950856,2.3001502999686636,2.3001502999686636,0.0,2.3001502999686636,2.499846399994567,3.1914477000245824,0.8912974000559188,0.8912974000559188,1.26753,-0.1101211894449804,-0.09861599054774364,,,,None,,0.0335,2.0333631000248715,-0.233,-0.23333333333333334,1.1073797121108295,1.1083333333333334,trial_list_0.8_red.csv,1.108365899999626,1.1416645999997854,p15_high2_01,001,2023-05-15_14h56.27.774,expectation_shapes_perceived_time,2022.2.4,119.80782825861411,
,33,0.8,met,,red,green,,293.9979040528383,0,0,0,0,0,25,25,158,fam,0.5411443000193685,0.5411443000193685,270.0,2.5406533000059426,2.5406533000059426,,,,,,,,,,,,,,,,,,,,,,,,,,,,,,,,,,,,p15_high2_01,001,2023-05-15_14h56.27.774,expectation_shapes_perceived_time,2022.2.4,119.80782825861411,
,33,0.8,met,,red,green,,293.9979040528383,1,0,1,0,0,25,25,158,fam,0.4951766000012867,0.4951766000012867,270.0,2.4957233000313863,2.4957233000313863,,,,,,,,,,,,,,,,,,,,,,,,,,,,,,,,,,,,p15_high2_01,001,2023-05-15_14h56.27.774,expectation_shapes_perceived_time,2022.2.4,119.80782825861411,
,33,0.8,met,,red,green,,293.9979040528383,2,0,2,0,0,25,25,158,fam,0.49903840001206845,0.49903840001206845,270.0,2.4990170000237413,2.4990170000237413,,,,,,,,,,,,,,,,,,,,,,,,,,,,,,,,,,,,p15_high2_01,001,2023-05-15_14h56.27.774,expectation_shapes_perceived_time,2022.2.4,119.80782825861411,
,33,0.8,met,,red,green,,293.9979040528383,3,0,3,0,0,25,25,158,fam,0.49790600000415,0.49790600000415,270.0,2.498587900015991,2.498587900015991,,,,,,,,,,,,,,,,,,,,,,,,,,,,,,,,,,,,p15_high2_01,001,2023-05-15_14h56.27.774,expectation_shapes_perceived_time,2022.2.4,119.80782825861411,
,33,0.8,met,,red,green,,293.9979040528383,,,,,0,25,25,158,trial,,,,,,red,0.2939979040528383,0.2916666666666667,2.3000373000395484,0.9985970000270754,1e-05,1e-05,0.2917713000206277,0.3250335000338964,2.0002212000545114,2.3000373000395484,2.3000373000395484,0.0,2.3000373000395484,2.4997877000132576,4.133102799998596,1.8330654999590479,1.8330654999590479,0.22354,0.09548544905819836,0.1128464397960526,,,,None,,0.03349,2.033727000001818,0.033,0.03333333333333333,0.36032790405283827,0.35833333333333334,trial_list_0.8_red.csv,0.35868020000634715,0.3917378000332974,p15_high2_01,001,2023-05-15_14h56.27.774,expectation_shapes_perceived_time,2022.2.4,119.80782825861411,
,233,0.8,met,,red,green,,370.9130861506394,,,,,0,26,26,300,trial,,,,,,red,0.3709130861506394,0.36666666666666664,2.299511299992446,0.990980300004594,1e-05,1e-05,0.3667045999900438,0.3996490999707021,2.0002817999920808,2.299511299992446,2.299511299992446,0.0,2.299511299992446,2.499497899960261,3.766509099979885,1.466997799987439,1.466997799987439,0.22278,0.09521840652640937,0.11307185775011111,,,,None,,0.03358,2.0328764999867417,0.233,0.23333333333333334,0.6372430861506394,0.6333333333333333,trial_list_0.8_red.csv,0.6330551999853924,0.6666330000152811,p15_high2_01,001,2023-05-15_14h56.27.774,expectation_shapes_perceived_time,2022.2.4,119.80782825861411,
,-33,0.8,met,,red,green,,425.6267302511717,,,,,0,27,27,397,trial,,,,,,red,0.4256267302511717,0.425,2.2999049000209197,0.9975092000095174,1e-05,1e-05,0.42501290002837777,0.45831770001677796,1.9994422000017948,2.2999049000209197,2.2999049000209197,0.0,2.2999049000209197,2.4993871999904513,3.4996628999942914,1.1997579999733716,1.1997579999733716,0.23839,0.10064514520757786,0.10826977742027317,,,,None,,,,-0.033,-0.03333333333333333,0.3592967302511717,0.35833333333333334,trial_list_0.8_red.csv,0.35768559999996796,0.3916194000048563,p15_high2_01,001,2023-05-15_14h56.27.774,expectation_shapes_perceived_time,2022.2.4,119.80782825861411,
,-167,0.8,met,,red,green,,378.6514828014917,,,,,0,28,28,383,trial,,,,,,red,0.3786514828014917,0.375,2.3000748999766074,0.9977896999916993,3e-05,3e-05,0.37531239999225363,0.4084068000083789,2.000073399976827,2.3000748999766074,2.3166031999862753,0.016528300009667873,2.3000748999766074,2.5000280999811366,3.682978999975603,1.3829040999989957,1.3663757999893278,0.15092,0.06748945833948028,0.13151791881539748,,,,None,,,,-0.167,-0.16666666666666666,0.1783214828014917,0.175,trial_list_0.8_red.csv,0.17528540000785142,0.20822809997480363,p15_high2_01,001,2023-05-15_14h56.27.774,expectation_shapes_perceived_time,2022.2.4,119.80782825861411,
,233,0.8,met,,red,green,,741.0521532926391,,,,,0,29,29,73,trial,,,,,,red,0.7410521532926391,0.7416666666666667,2.299639799981378,0.9986310999956913,1e-05,1e-05,0.7412299999850802,0.774950799997896,1.9995559999952093,2.299639799981378,2.299639799981378,0.0,2.299639799981378,2.4998544999980368,3.20767109998269,0.908031300001312,0.908031300001312,0.43411,0.14466799443756262,0.030380278831888152,,,,None,,0.03323,2.0330906999879517,0.233,0.23333333333333334,1.0073821532926392,1.0083333333333333,trial_list_0.8_red.csv,1.0078834999585524,1.041077999980189,p15_high2_01,001,2023-05-15_14h56.27.774,expectation_shapes_perceived_time,2022.2.4,119.80782825861411,
,-167,0.1999999999999999,unmet,,green,red,,1007.3328509159332,,,,,0,30,30,387,trial,,,,,,green,1.0073328509159332,1.0083333333333333,2.300334899977315,0.9975593000417575,1e-05,1e-05,1.0086825999896973,1.0419489000341855,2.0007085999823175,2.300334899977315,2.300334899977315,0.0,2.300334899977315,2.500349899986759,3.3757920999778435,1.0754572000005282,1.0754572000005282,0.95141,0.022477626618839276,-0.14610457302245528,,,,None,,,,-0.167,-0.16666666666666666,0.8070028509159332,0.8083333333333333,trial_list_0.8_red.csv,0.8086150999879465,0.8420872000278905,p15_high2_01,001,2023-05-15_14h56.27.774,expectation_shapes_perceived_time,2022.2.4,119.80782825861411,
,-233,0.1999999999999999,unmet,,green,red,,665.2180643546983,,,,,0,31,31,44,trial,,,,,,green,0.6652180643546983,0.6666666666666666,2.3000197999645025,0.9974105999572203,1e-05,1e-05,0.6664693999919109,0.7006998999859206,2.0003883999888785,2.3000197999645025,2.3000197999645025,0.0,2.3000197999645025,2.500094299961347,3.7667574999504723,1.4667376999859698,1.4667376999859698,0.44681,0.14576446861963027,0.02458677783945571,,,,None,,0.03357,2.0337289999588393,-0.233,-0.23333333333333334,0.3988880643546983,0.4,trial_list_0.8_red.csv,0.3997920999536291,0.43314439995447174,p15_high2_01,001,2023-05-15_14h56.27.774,expectation_shapes_perceived_time,2022.2.4,119.80782825861411,
,-100,0.8,met,,red,green,,1110.9990306622667,,,,,0,32,32,294,trial,,,,,,red,1.1109990306622668,1.1083333333333334,2.3006292000063695,0.9972706999978982,2e-05,2e-05,1.1085376999690197,1.1421483000158332,2.000485399970785,2.3006292000063695,2.3006292000063695,0.0,2.3006292000063695,2.5006175999878906,3.8087260000174865,1.508096800011117,1.508096800011117,0.8639,0.06129806309031506,-0.13451519400374695,,,,None,,0.03328,2.033882499963511,-0.1,-0.1,0.9776690306622666,0.975,trial_list_0.8_red.csv,0.9756020999629982,1.0087967999861576,p15_high2_01,001,2023-05-15_14h56.27.774,expectation_shapes_perceived_time,2022.2.4,119.80782825861411,
,233,0.8,met,,red,green,,485.5740687693825,,,,,0,33,33,45,trial,,,,,,red,0.4855740687693825,0.48333333333333334,2.300126200017985,0.9972437999676913,1e-05,1e-05,0.4834534000256099,0.5167793000000529,2.000171500025317,2.300126200017985,2.300126200017985,0.0,2.300126200017985,2.5001494999742135,3.9082494999747723,1.6081232999567874,1.6081232999567874,0.73383,0.10970021704963684,-0.0990840670125752,,,,None,,,,0.233,0.23333333333333334,0.7519040687693825,0.75,trial_list_0.8_red.csv,0.749718600010965,0.7830744999810122,p15_high2_01,001,2023-05-15_14h56.27.774,expectation_shapes_perceived_time,2022.2.4,119.80782825861411,
,167,0.8,met,,red,green,,1356.1407489737628,,,,,0,34,34,413,trial,,,,,,red,1.356140748973763,1.35,2.2995625999756157,0.9975821999832988,3e-05,3e-05,1.3497762000188231,1.3832091999938712,1.9996704999939539,2.2995625999756157,2.2995625999756157,0.0,2.2995625999756157,2.500274399993941,3.300052299979143,1.000489700003527,1.000489700003527,1.33264,-0.1278582426195579,-0.07418935065579285,,,,None,,,,0.167,0.16666666666666666,1.5564707489737628,1.55,trial_list_0.8_red.csv,1.5499334000051022,1.583085199992638,p15_high2_01,001,2023-05-15_14h56.27.774,expectation_shapes_perceived_time,2022.2.4,119.80782825861411,
,-33,0.8,met,,red,green,,669.486596768912,,,,,0,35,35,478,trial,,,,,,red,0.669486596768912,0.6666666666666666,2.299656799994409,0.9976089999545366,1e-05,1e-05,0.6659375000162981,0.6998300999985076,1.999985000002198,2.299656799994409,2.391176600009203,0.09151980001479387,2.299656799994409,2.4996000999817625,3.316754800034687,1.0170980000402778,0.925578200025484,0.74518,0.10609857074918534,-0.10293144923428428,,,,None,,,,-0.033,-0.03333333333333333,0.603156596768912,0.6,trial_list_0.8_red.csv,0.5995769000146538,0.6331288000219502,p15_high2_01,001,2023-05-15_14h56.27.774,expectation_shapes_perceived_time,2022.2.4,119.80782825861411,
,233,0.8,met,,red,green,,1022.5067123997412,,,,,0,36,36,315,trial,,,,,,red,1.0225067123997411,1.025,2.299598200013861,0.9969777999795042,1e-05,1e-05,1.0245147999958135,1.058471800002735,1.9999776000040583,2.299598200013861,2.616195200011134,0.3165969999972731,2.299598200013861,2.499491999973543,3.874828099971637,1.575229899957776,1.258632899960503,0.98038,0.009107572766960111,-0.14754267882475378,,,,None,,0.03346,2.032834500016179,0.233,0.23333333333333334,1.288836712399741,1.2833333333333332,trial_list_0.8_red.csv,1.2834339999826625,1.3162463000044227,p15_high2_01,001,2023-05-15_14h56.27.774,expectation_shapes_perceived_time,2022.2.4,119.80782825861411,
,-233,0.1999999999999999,unmet,,green,red,,1247.187415757788,,,,,0,37,37,3,trial,,,,,,green,1.2471874157577878,1.2416666666666667,2.3001208000350744,0.9968713999842294,1e-05,1e-05,1.2418403000338003,1.2752358000143431,1.9996756000327878,2.3001208000350744,2.991717900033109,0.6915970999980345,2.3001208000350744,2.499710400006734,4.342057600035332,2.041936800000258,1.3503397000022233,0.95383,0.021365477342723295,-0.14627134488479795,,,,None,,,,-0.233,-0.23333333333333334,0.9808574157577878,0.9833333333333333,trial_list_0.8_red.csv,0.9830558000248857,1.0167517000227235,p15_high2_01,001,2023-05-15_14h56.27.774,expectation_shapes_perceived_time,2022.2.4,119.80782825861411,
,300,0.8,met,,red,green,,844.4172674691581,,,,,0,38,38,386,trial,,,,,,red,0.8444172674691581,0.8416666666666667,2.2995398999773897,0.9972963000182062,2e-05,2e-05,0.8413324999855831,0.87487770000007,1.9998589999740943,2.2995398999773897,2.599937899969518,0.30039799999212846,2.2995398999773897,2.500005899986718,3.5744465999887325,1.2749067000113428,0.9745087000192143,0.98394,0.007456330213968823,-0.1476353382365827,,,,None,,0.03334,2.032881399965845,0.3,0.3,1.177747267469158,1.175,trial_list_0.8_red.csv,1.1748697999864817,1.2078772999811918,p15_high2_01,001,2023-05-15_14h56.27.774,expectation_shapes_perceived_time,2022.2.4,119.80782825861411,
,300,0.8,met,,red,green,,610.6174603432115,,,,,0,39,39,441,trial,,,,,,red,0.6106174603432115,0.6083333333333333,2.300248700019438,0.99785400001565,1e-05,1e-05,0.6087554999976419,0.6420764000504278,1.9997500000172295,2.300248700019438,2.5581903000129387,0.25794159999350086,2.300248700019438,2.4997555000009015,3.5583835000288673,1.2581348000094295,1.0001932000159286,0.81567,0.08089632139958569,-0.1237237856699546,,,,None,,0.03351,2.033184900006745,0.3,0.3,0.9439474603432115,0.9416666666666667,trial_list_0.8_red.csv,0.9419577000080608,0.9752434000256471,p15_high2_01,001,2023-05-15_14h56.27.774,expectation_shapes_perceived_time,2022.2.4,119.80782825861411,
,-300,0.8,met,,red,green,,911.6348713375244,,,,,0,40,40,128,trial,,,,,,red,0.9116348713375244,0.9083333333333333,2.299696900008712,0.9969390000333078,1e-05,1e-05,0.9080008000019006,0.9415267999866046,1.9999451999901794,2.299696900008712,2.299696900008712,0.0,2.299696900008712,2.499546199978795,3.6333579999627545,1.3336610999540426,1.3336610999540426,0.76113,0.10081061118853689,-0.10811572794132943,,,,None,,0.03354,2.0333826999994926,-0.3,-0.3,0.5783048713375243,0.575,trial_list_0.8_red.csv,0.5747474000090733,0.6083111999905668,p15_high2_01,001,2023-05-15_14h56.27.774,expectation_shapes_perceived_time,2022.2.4,119.80782825861411,
,-100,0.8,met,,red,green,,1348.430603969803,,,,,0,41,41,292,trial,,,,,,red,1.348430603969803,1.35,2.2996216000174172,0.997528699983377,1e-05,1e-05,1.349961300031282,1.3832850999897346,1.99977370002307,2.2996216000174172,2.2996216000174172,0.0,2.2996216000174172,2.4996261000051163,3.4496273000258952,1.150005700008478,1.150005700008478,1.36756,-0.13521218389629117,-0.05974491846580308,,,,None,,,,-0.1,-0.1,1.2151006039698031,1.2166666666666666,trial_list_0.8_red.csv,1.2163259999942966,1.2497985000372864,p15_high2_01,001,2023-05-15_14h56.27.774,expectation_shapes_perceived_time,2022.2.4,119.80782825861411,
,233,0.8,met,,red,green,,1292.0998055107568,,,,,0,42,42,267,trial,,,,,,red,1.2920998055107569,1.2916666666666667,2.2999391999910586,0.9987316000042483,2e-05,2e-05,1.2915022000088356,1.324687200016342,1.9997899999725632,2.2999391999910586,2.2999391999910586,0.0,2.2999391999910586,2.500329700007569,3.482995899976231,1.1830566999851726,1.1830566999851726,1.38813,-0.13878799198679498,-0.05088893039515817,,,,None,,,,0.233,0.23333333333333334,1.5584298055107568,1.5583333333333333,trial_list_0.8_red.csv,1.5582715999917127,1.5917481000069529,p15_high2_01,001,2023-05-15_14h56.27.774,expectation_shapes_perceived_time,2022.2.4,119.80782825861411,
,-233,0.8,met,,red,green,,1762.1108888369918,,,,,0,43,43,112,trial,,,,,,red,1.7621108888369919,1.7583333333333333,2.2996592999552377,0.9984532999806106,2e-05,2e-05,1.7583025000058115,1.791796899982728,2.0002794999745674,2.2996592999552377,2.2996592999552377,0.0,2.2996592999552377,2.4996551999938674,3.491447899956256,1.1917886000010185,1.1917886000010185,1.52962,-0.14718383218150005,0.01373715767027334,,,,None,,0.03329,2.033125799964182,-0.233,-0.23333333333333334,1.495780888836992,1.4916666666666667,trial_list_0.8_red.csv,1.4918395999702625,1.5249972000019625,p15_high2_01,001,2023-05-15_14h56.27.774,expectation_shapes_perceived_time,2022.2.4,119.80782825861411,
,233,0.8,met,,red,green,,1308.34227271406,,,,,0,44,44,201,trial,,,,,,red,1.3083422727140601,1.3083333333333333,2.3001110999612138,0.9972126000211574,1e-05,1e-05,1.3085372999776155,1.341894599958323,2.00051409995649,2.3001110999612138,2.7750513999490067,0.47494029998779297,2.3001110999612138,2.5003541999612935,3.541936999943573,1.2418258999823593,0.7668855999945663,1.33331,-0.12801256607804795,-0.07392274942535164,,,,None,,0.03328,2.0339452999760397,0.233,0.23333333333333334,1.57467227271406,1.575,trial_list_0.8_red.csv,1.5750553999678232,1.6086918999790214,p15_high2_01,001,2023-05-15_14h56.27.774,expectation_shapes_perceived_time,2022.2.4,119.80782825861411,
,-100,0.8,met,,red,green,,943.2137860836012,,,,,0,45,45,421,trial,,,,,,red,0.9432137860836012,0.9416666666666667,2.2997947999974713,0.9976090000127442,1e-05,1e-05,0.9415336999809369,0.9753325000056066,2.0003537999582477,2.2997947999974713,2.9001447999617085,0.6003499999642372,2.2997947999974713,2.5000529999961145,4.083482199988794,1.7836873999913223,1.183337400027085,1.0,0.0,-0.14782350948509485,,,,None,,0.03348,2.0336152999661863,-0.1,-0.1,0.8098837860836012,0.8083333333333333,trial_list_0.8_red.csv,0.8083273000083864,0.8418293999857269,p15_high2_01,001,2023-05-15_14h56.27.774,expectation_shapes_perceived_time,2022.2.4,119.80782825861411,
,33,0.8,met,,red,green,,838.9799289526009,,,,,0,46,46,278,trial,,,,,,red,0.8389799289526009,0.8416666666666667,2.299730599974282,0.9977890999871306,5e-05,5e-05,0.8415408000000753,0.8747113000135869,1.999716599995736,2.299730599974282,2.6244328999891877,0.32470230001490563,2.299730599974282,2.4996273000142537,3.9495377999846824,1.6498072000104003,1.3251048999954946,0.97609,0.011095115996378677,-0.14740654109474527,,,,None,,,,0.033,0.03333333333333333,0.9053099289526009,0.9,trial_list_0.8_red.csv,0.9000257999869063,0.9329761000117287,p15_high2_01,001,2023-05-15_14h56.27.774,expectation_shapes_perceived_time,2022.2.4,119.80782825861411,
,167,0.8,met,,red,green,,1395.2596297545924,,,,,0,47,47,392,trial,,,,,,red,1.3952596297545925,1.3916666666666666,2.30029410001589,0.9985218999790959,3e-05,3e-05,1.3916528000263497,1.4254579999833368,2.000321800005622,2.30029410001589,2.5171295999898575,0.21683549997396767,2.30029410001589,2.500286700029392,3.4083218000014313,1.1080276999855414,0.8911922000115737,1.34234,-0.13005820171589538,-0.07026132736375958,,,,None,,,,0.167,0.16666666666666666,1.5955896297545924,1.5916666666666666,trial_list_0.8_red.csv,1.5923141000093892,1.6253265999839641,p15_high2_01,001,2023-05-15_14h56.27.774,expectation_shapes_perceived_time,2022.2.4,119.80782825861411,
,-33,0.8,met,,red,green,,330.7528959196709,,,,,0,48,48,163,trial,,,,,,red,0.3307528959196709,0.3333333333333333,2.300697200000286,0.9977187999757007,2e-05,2e-05,0.33325870003318414,0.3666411000303924,2.000259199994616,2.300697200000286,2.300697200000286,0.0,2.300697200000286,2.500021399988327,3.400370799994562,1.0996735999942757,1.0996735999942757,0.35562,0.13287506470570323,0.06477659404403033,,,,None,,0.03357,2.0337032999959774,-0.033,-0.03333333333333333,0.2644228959196709,0.26666666666666666,trial_list_0.8_red.csv,0.2666347000049427,0.3047099999967031,p15_high2_01,001,2023-05-15_14h56.27.774,expectation_shapes_perceived_time,2022.2.4,119.80782825861411,
,167,0.1999999999999999,unmet,,green,red,,1318.4634796549103,,,,,0,49,49,140,trial,,,,,,green,1.3184634796549104,1.3166666666666667,2.3001954999635927,0.998375200026203,3e-05,3e-05,1.3169309999793768,1.349964799999725,1.9999245000071824,2.3001954999635927,2.3001954999635927,0.0,2.3001954999635927,2.500046500004828,3.3253168999799527,1.02512140001636,1.02512140001636,1.43238,-0.14450059133178395,-0.031166794208816146,,,,None,,0.0336,2.033483100007288,0.167,0.16666666666666666,1.5187934796549103,1.5166666666666666,trial_list_0.8_red.csv,1.5166852999827825,1.5496823999565095,p15_high2_01,001,2023-05-15_14h56.27.774,expectation_shapes_perceived_time,2022.2.4,119.80782825861411,
,33,0.8,met,,red,green,,806.5146167694229,0,0,0,0,0,50,50,495,fam,0.532533899997361,0.532533899997361,270.0,2.531969500007108,2.531969500007108,,,,,,,,,,,,,,,,,,,,,,,,,,,,,,,,,,,,p15_high2_01,001,2023-05-15_14h56.27.774,expectation_shapes_perceived_time,2022.2.4,119.80782825861411,
,33,0.8,met,,red,green,,806.5146167694229,1,0,1,0,0,50,50,495,fam,0.4982313999789767,0.4982313999789767,270.0,2.498688400024548,2.498688400024548,,,,,,,,,,,,,,,,,,,,,,,,,,,,,,,,,,,,p15_high2_01,001,2023-05-15_14h56.27.774,expectation_shapes_perceived_time,2022.2.4,119.80782825861411,
,33,0.8,met,,red,green,,806.5146167694229,2,0,2,0,0,50,50,495,fam,0.4991495000431314,0.4991495000431314,270.0,2.49923250003485,2.49923250003485,,,,,,,,,,,,,,,,,,,,,,,,,,,,,,,,,,,,p15_high2_01,001,2023-05-15_14h56.27.774,expectation_shapes_perceived_time,2022.2.4,119.80782825861411,
,33,0.8,met,,red,green,,806.5146167694229,3,0,3,0,0,50,50,495,fam,0.498669599997811,0.498669599997811,270.0,2.4987434000358917,2.4987434000358917,,,,,,,,,,,,,,,,,,,,,,,,,,,,,,,,,,,,p15_high2_01,001,2023-05-15_14h56.27.774,expectation_shapes_perceived_time,2022.2.4,119.80782825861411,
,33,0.8,met,,red,green,,806.5146167694229,,,,,0,50,50,495,trial,,,,,,red,0.8065146167694229,0.8083333333333333,2.2995536999660544,0.9908162000356242,1e-05,1e-05,0.8081368999555707,0.8419944999623112,1.999731999996584,2.2995536999660544,2.2995536999660544,0.0,2.2995536999660544,2.4997406999464147,3.1723528999718837,0.8727992000058293,0.8727992000058293,0.69743,0.12028893749926792,-0.08592066964233423,,,,None,,,,0.033,0.03333333333333333,0.8728446167694229,0.875,trial_list_0.8_red.csv,0.8748536999919452,0.908210399968084,p15_high2_01,001,2023-05-15_14h56.27.774,expectation_shapes_perceived_time,2022.2.4,119.80782825861411,
,-233,0.8,met,,red,green,,1470.096237778657,,,,,0,51,51,142,trial,,,,,,red,1.470096237778657,1.4666666666666666,2.300178999954369,0.9930121999932453,4e-05,4e-05,1.4666586999665014,1.5001630999613553,1.9999670999823138,2.300178999954369,2.566601799975615,0.2664228000212461,2.300178999954369,2.500124699959997,3.749771300004795,1.4495923000504263,1.1831695000291802,1.0,0.0,-0.14782350948509485,,,,None,,0.03339,2.033766599954106,-0.233,-0.23333333333333334,1.203766237778657,1.2,trial_list_0.8_red.csv,1.200100099958945,1.2333168999757618,p15_high2_01,001,2023-05-15_14h56.27.774,expectation_shapes_perceived_time,2022.2.4,119.80782825861411,
,300,0.8,met,,red,green,,1419.6217001818598,,,,,0,52,52,458,trial,,,,,,red,1.4196217001818598,1.4166666666666667,2.300089900032617,0.9983270000084303,2e-05,2e-05,1.4165276000276208,1.4500952999806032,2.0003804999869317,2.300089900032617,2.3249889999860898,0.024899099953472614,2.300089900032617,2.5001648000325076,3.0832493000198156,0.7831593999871984,0.7582603000337258,1.51462,-0.14766751576325265,0.006789311069574834,,,,None,,0.03336,2.033355000021402,0.3,0.3,1.7529517001818598,1.75,trial_list_0.8_red.csv,1.749920500034932,1.7832592999911867,p15_high2_01,001,2023-05-15_14h56.27.774,expectation_shapes_perceived_time,2022.2.4,119.80782825861411,
,100,0.8,met,,red,green,,1726.3708232803606,,,,,0,53,53,205,trial,,,,,,red,1.7263708232803605,1.7249999999999999,2.3002716999617405,0.9973322000005282,3e-05,3e-05,1.725345999991987,1.7586690999451093,1.9999964999733493,2.3002716999617405,2.683446199982427,0.38317450002068654,2.3002716999617405,2.500248099968303,3.700420899956953,1.4001491999952123,1.0169746999745257,1.72199,-0.11330974762025536,0.09493519395210584,,,,None,,,,0.1,0.1,1.8597008232803605,1.8583333333333334,trial_list_0.8_red.csv,1.8589034999604337,1.891936399973929,p15_high2_01,001,2023-05-15_14h56.27.774,expectation_shapes_perceived_time,2022.2.4,119.80782825861411,
,-300,0.8,met,,red,green,,1449.3819775073375,,,,,0,54,54,271,trial,,,,,,red,1.4493819775073375,1.45,2.30029480002122,0.9966843000147492,3e-05,3e-05,1.4503225000225939,1.4836805000086315,2.0002835000050254,2.30029480002122,2.992081300006248,0.6917864999850281,2.30029480002122,2.5005950999911875,4.033586199977435,1.7332913999562152,1.0415048999711871,1.51939,-0.14754946766867968,0.008996918760285345,,,,None,,,,-0.3,-0.3,1.1160519775073376,1.1166666666666667,trial_list_0.8_red.csv,1.1170426000026055,1.1505656000226736,p15_high2_01,001,2023-05-15_14h56.27.774,expectation_shapes_perceived_time,2022.2.4,119.80782825861411,
,100,0.1999999999999999,unmet,,green,red,,643.5414401077587,,,,,0,55,55,169,trial,,,,,,green,0.6435414401077587,0.6416666666666666,2.3008767999708652,0.9970966999535449,1e-05,1e-05,0.6420445999829099,0.6752500999718904,2.0001312000094913,2.3008767999708652,2.3008767999708652,0.0,2.3008767999708652,2.5003962999908254,3.242397299967706,0.941520499996841,0.941520499996841,0.66525,0.12834674835520357,-0.07334099906011632,,,,None,,0.03337,2.0335204000002705,0.1,0.1,0.7768714401077588,0.775,trial_list_0.8_red.csv,0.7751596000161953,0.8086055999738164,p15_high2_01,001,2023-05-15_14h56.27.774,expectation_shapes_perceived_time,2022.2.4,119.80782825861411,
,167,0.8,met,,red,green,,1363.7178333111117,,,,,0,56,56,181,trial,,,,,,red,1.3637178333111117,1.3583333333333334,2.2997433000127785,0.9959811000153422,1e-05,1e-05,1.3581759000080638,1.391639599984046,2.0001789999660105,2.2997433000127785,2.4416831000125967,0.1419397999998182,2.2997433000127785,2.500238000007812,3.2501703000161797,0.9504270000034012,0.808487200003583,1.28522,-0.11543076785931652,-0.0923446142874532,,,,None,,0.03315,2.0333048999891616,0.167,0.16666666666666666,1.5640478333111116,1.5583333333333333,trial_list_0.8_red.csv,1.5584158999845386,1.5918879000237212,p15_high2_01,001,2023-05-15_14h56.27.774,expectation_shapes_perceived_time,2022.2.4,119.80782825861411,
,167,0.8,met,,red,green,,511.6945158889708,,,,,0,57,57,129,trial,,,,,,red,0.5116945158889707,0.5083333333333333,2.2997615999775007,0.997313599975314,1e-05,1e-05,0.5082932999939658,0.5414962000213563,1.999802100006491,2.2997615999775007,2.2997615999775007,0.0,2.2997615999775007,2.4998787000076845,3.116282199975103,0.8165205999976024,0.8165205999976024,0.67405,0.12627062828802527,-0.0768603824361893,,,,None,,0.03335,2.0331492999684997,0.167,0.16666666666666666,0.7120245158889708,0.7083333333333334,trial_list_0.8_red.csv,0.7082866000127979,0.7414591999840923,p15_high2_01,001,2023-05-15_14h56.27.774,expectation_shapes_perceived_time,2022.2.4,119.80782825861411,
,-100,0.8,met,,red,green,,1594.3983242945253,,,,,0,58,58,411,trial,,,,,,red,1.5943983242945252,1.5916666666666666,2.300572100037243,0.9975723000243306,1e-05,1e-05,1.5916647000121884,1.6247189000132494,1.9999442000407726,2.300572100037243,2.300572100037243,0.0,2.300572100037243,2.499745300039649,3.1250277000362985,0.8244555999990553,0.8244555999990553,1.49099,-0.147764341948742,-0.004182009677794585,,,,None,,,,-0.1,-0.1,1.4610683242945255,1.4583333333333333,trial_list_0.8_red.csv,1.4583406000165269,1.4920351000037044,p15_high2_01,001,2023-05-15_14h56.27.774,expectation_shapes_perceived_time,2022.2.4,119.80782825861411,
,-300,0.8,met,,red,green,,1658.0629540667585,,,,,0,59,59,85,trial,,,,,,red,1.6580629540667584,1.6583333333333332,2.3000067999819294,0.9976916000014171,1e-05,1e-05,1.6580976999830455,1.6913737999857403,1.9996792000019923,2.3000067999819294,2.7659775000065565,0.46597070002462715,2.3000067999819294,2.4994232999742962,3.5076730999862775,1.2076663000043482,0.741695599979721,1.50663,-0.1477914401692852,0.003078988336860108,,,,None,,0.03291,2.0329222999862395,-0.3,-0.3,1.3247329540667585,1.325,trial_list_0.8_red.csv,1.3249453000025824,1.3579400000162423,p15_high2_01,001,2023-05-15_14h56.27.774,expectation_shapes_perceived_time,2022.2.4,119.80782825861411,
,-167,0.8,met,,red,green,,741.8278919251068,,,,,0,60,60,437,trial,,,,,,red,0.7418278919251068,0.7416666666666667,2.3004633000236936,0.9983525000279769,1e-05,1e-05,0.7421435000142083,0.7751871999935247,1.9997629999998026,2.3004633000236936,2.3004633000236936,0.0,2.3004633000236936,2.5004555000341497,3.3248059999896213,1.0243426999659277,1.0243426999659277,0.75976,0.10127302106906044,-0.10768270594684907,,,,None,,0.0338,2.0335653999936767,-0.167,-0.16666666666666666,0.5414978919251068,0.5416666666666666,trial_list_0.8_red.csv,0.5417059999890625,0.5750649000401609,p15_high2_01,001,2023-05-15_14h56.27.774,expectation_shapes_perceived_time,2022.2.4,119.80782825861411,
,233,0.8,met,,red,green,,338.2621198902825,,,,,0,61,61,465,trial,,,,,,red,0.33826211989028254,0.3416666666666667,2.3001517999800853,0.9986124999704771,6e-05,6e-05,0.3414653000072576,0.3745914999744855,1.9997505000210367,2.3001517999800853,2.3001517999800853,0.0,2.3001517999800853,2.4998283999739215,3.158329500001855,0.8581777000217699,0.8581777000217699,0.49739,0.14781854388239654,0.0012116274088721031,,,,None,,,,0.233,0.23333333333333334,0.6045921198902826,0.6,trial_list_0.8_red.csv,0.5999685000278987,0.633463500009384,p15_high2_01,001,2023-05-15_14h56.27.774,expectation_shapes_perceived_time,2022.2.4,119.80782825861411,
,300,0.8,met,,red,green,,397.8464175921049,,,,,0,62,62,430,trial,,,,,,red,0.3978464175921049,0.4,2.299800699984189,0.9976212999899872,5e-05,5e-05,0.3994691999978386,0.4328300000051968,2.000016499951016,2.299800699984189,2.299800699984189,0.0,2.299800699984189,2.5000963999773376,3.4249168999958783,1.1251162000116892,1.1251162000116892,0.55829,0.14535219679034342,-0.026917073479693222,,,,None,,0.03337,2.033453199954238,0.3,0.3,0.7311764175921049,0.7333333333333333,trial_list_0.8_red.csv,0.7330249999649823,0.7672670999891125,p15_high2_01,001,2023-05-15_14h56.27.774,expectation_shapes_perceived_time,2022.2.4,119.80782825861411,
,-300,0.8,met,,red,green,,979.1756189764586,,,,,0,63,63,87,trial,,,,,,red,0.9791756189764587,0.975,2.299984699988272,0.9973060000338592,2e-05,2e-05,0.9746259999810718,1.0079776999773458,1.9999665999785066,2.299984699988272,2.5417964999796823,0.24181179999141023,2.299984699988272,2.4999416999635287,3.7333103999844752,1.4333256999962032,1.191513900004793,0.64758,0.1322173663525028,-0.0661086831762514,,,,None,,0.03366,2.03332569997292,-0.3,-0.3,0.6458456189764585,0.6416666666666666,trial_list_0.8_red.csv,0.6418949999497272,0.6753710999619216,p15_high2_01,001,2023-05-15_14h56.27.774,expectation_shapes_perceived_time,2022.2.4,119.80782825861411,
,-33,0.8,met,,red,green,,1575.3717685042295,,,,,0,64,64,464,trial,,,,,,red,1.5753717685042294,1.575,2.3002387000015005,0.9974269000231288,1e-05,1e-05,1.5754073000280187,1.608685199986212,2.0004010000266135,2.3002387000015005,2.358531200035941,0.05829250003444031,2.3002387000015005,2.5002719000331126,3.1839863000204787,0.8837476000189781,0.8254550999845378,1.64758,-0.1322173663525028,0.0661086831762514,,,,None,,0.03384,2.0336143000167795,-0.033,-0.03333333333333333,1.5090417685042297,1.5083333333333333,trial_list_0.8_red.csv,1.508268500037957,1.5420536000165157,p15_high2_01,001,2023-05-15_14h56.27.774,expectation_shapes_perceived_time,2022.2.4,119.80782825861411,
,-300,0.8,met,,red,green,,995.361058562802,,,,,0,65,65,311,trial,,,,,,red,0.995361058562802,0.9916666666666667,2.2996928000357,0.9974288000375964,1e-05,1e-05,0.9918641000404023,1.0252094000461511,1.9996784999966621,2.2996928000357,2.308156500046607,0.008463700010906905,2.2996928000357,2.5002725000376813,3.2750609000213444,0.9753680999856442,0.9669043999747373,0.71651,0.11492512973293753,-0.09297313866035395,,,,None,,,,-0.3,-0.3,0.662031058562802,0.6583333333333333,trial_list_0.8_red.csv,0.6585262000444345,0.6917610000236891,p15_high2_01,001,2023-05-15_14h56.27.774,expectation_shapes_perceived_time,2022.2.4,119.80782825861411,
,-100,0.8,met,,red,green,,1597.2185345757423,,,,,0,66,66,407,trial,,,,,,red,1.5972185345757424,1.5916666666666666,2.2995647999923676,0.9969629000406712,1e-05,1e-05,1.59156220004661,1.6251101000234485,1.9996175999986008,2.2995647999923676,2.2995647999923676,0.0,2.2995647999923676,2.4999550000065938,3.283153199998196,0.9835884000058286,0.9835884000058286,1.52427,-0.14739409341112572,0.011259271024460994,,,,None,,0.03313,2.0327858999953605,-0.1,-0.1,1.4638885345757424,1.4583333333333333,trial_list_0.8_red.csv,1.4579379000351764,1.4914430000353605,p15_high2_01,001,2023-05-15_14h56.27.774,expectation_shapes_perceived_time,2022.2.4,119.80782825861411,
,167,0.1999999999999999,unmet,,green,red,,1330.2297435737933,,,,,0,67,67,379,trial,,,,,,green,1.3302297435737933,1.325,2.299928499967791,0.9976430000388063,2e-05,2e-05,1.3250356999924406,1.3581673000007868,1.9999978999840096,2.299928499967791,2.674639399978332,0.3747109000105411,2.299928499967791,2.49996960000135,3.4915388000081293,1.1916103000403382,0.8168994000297971,1.59127,-0.14178779543640976,0.04180922173124903,,,,None,,0.03311,2.033739299979061,0.167,0.16666666666666666,1.5305597435737932,1.525,trial_list_0.8_red.csv,1.5245867999619804,1.5581114999949932,p15_high2_01,001,2023-05-15_14h56.27.774,expectation_shapes_perceived_time,2022.2.4,119.80782825861411,
,33,0.8,met,,red,green,,341.9780433687534,,,,,0,68,68,0,trial,,,,,,red,0.34197804336875337,0.3416666666666667,2.2997834000270814,0.9979251000331715,2e-05,2e-05,0.3420779000152834,0.37473829998634756,2.0001040999777615,2.2997834000270814,2.2997834000270814,0.0,2.2997834000270814,2.500155600020662,3.274763500026893,0.9749800999998115,0.9749800999998115,0.29786,0.11900617920903656,0.08768876362771115,,,,None,,,,0.033,0.03333333333333333,0.40830804336875337,0.4083333333333333,trial_list_0.8_red.csv,0.40835370001150295,0.4420932999928482,p15_high2_01,001,2023-05-15_14h56.27.774,expectation_shapes_perceived_time,2022.2.4,119.80782825861411,
,167,0.8,met,,red,green,,685.9084641435117,,,,,0,69,69,231,trial,,,,,,red,0.6859084641435117,0.6833333333333333,2.2999809000175446,0.9982281000120565,3e-05,3e-05,0.6833625000435859,0.7172531000105664,1.9999693999998271,2.2999809000175446,2.2999809000175446,0.0,2.2999809000175446,2.500280400039628,3.3671202000114135,1.067139299993869,1.067139299993869,0.81525,0.08106005060598157,-0.12361657717412189,,,,None,,0.03335,2.033770300040487,0.167,0.16666666666666666,0.8862384641435117,0.8833333333333333,trial_list_0.8_red.csv,0.8832573000108823,0.9169986000051722,p15_high2_01,001,2023-05-15_14h56.27.774,expectation_shapes_perceived_time,2022.2.4,119.80782825861411,
,233,0.8,met,,red,green,,515.4869406513767,,,,,0,70,70,389,trial,,,,,,red,0.5154869406513767,0.5166666666666666,2.299666900013108,0.9986483000102453,5e-05,5e-05,0.515862800006289,0.5491568999714218,1.9993096999824047,2.299666900013108,2.58299480000278,0.283327899989672,2.299666900013108,2.499203099985607,3.333127899968531,1.0334609999554232,0.7501330999657512,0.80257,0.08592066964233425,-0.12028893749926794,,,,None,,,,0.233,0.23333333333333334,0.7818169406513767,0.7833333333333333,trial_list_0.8_red.csv,0.7832736999844201,0.8163173999637365,p15_high2_01,001,2023-05-15_14h56.27.774,expectation_shapes_perceived_time,2022.2.4,119.80782825861411,
,-100,0.8,met,,red,green,,1019.6329350332112,,,,,0,71,71,197,trial,,,,,,red,1.0196329350332112,1.0166666666666666,2.300148900016211,0.9970199999515899,1e-05,1e-05,1.0163614999619313,1.0500891999690793,2.0000747999874875,2.300148900016211,2.491496599977836,0.19134769996162504,2.300148900016211,2.499946900003124,3.3248477000161074,1.0246987999998964,0.8333511000382714,0.61859,0.13768291222479895,-0.053807115122335214,,,,None,,0.03371,2.033438699960243,-0.1,-0.1,0.8863029350332111,0.8833333333333333,trial_list_0.8_red.csv,0.8833845999906771,0.9164620999945328,p15_high2_01,001,2023-05-15_14h56.27.774,expectation_shapes_perceived_time,2022.2.4,119.80782825861411,
,100,0.8,met,,red,green,,1585.5044674530975,,,,,0,72,72,444,trial,,,,,,red,1.5855044674530976,1.5833333333333333,2.2998789999983273,0.9980199999990873,1e-05,1e-05,1.5832166000036523,1.6166643000324257,1.9998956000199541,2.2998789999983273,2.3082427000044845,0.00836370000615716,2.2998789999983273,2.499907199991867,3.6500877999933437,1.3502087999950163,1.3418450999888591,1.66525,-0.12834674835520354,0.0733409990601163,,,,None,,,,0.1,0.1,1.7188344674530975,1.7166666666666666,trial_list_0.8_red.csv,1.716714000038337,1.749952599988319,p15_high2_01,001,2023-05-15_14h56.27.774,expectation_shapes_perceived_time,2022.2.4,119.80782825861411,
,-300,0.8,met,,red,green,,1620.9327649117593,,,,,0,73,73,404,trial,,,,,,red,1.6209327649117593,1.6166666666666667,2.299903800012544,0.9967833999544382,1e-05,1e-05,1.61651379999239,1.649829400004819,2.0001040000352077,2.299903800012544,2.299903800012544,0.0,2.299903800012544,2.499836100032553,3.4498804000322707,1.149976600019727,1.149976600019727,1.59313,-0.14154222088886456,0.04263319906291101,,,,None,,,,-0.3,-0.3,1.2876027649117594,1.2833333333333332,trial_list_0.8_red.csv,1.2834363000001758,1.3166204000008292,p15_high2_01,001,2023-05-15_14h56.27.774,expectation_shapes_perceived_time,2022.2.4,119.80782825861411,
,-167,0.8,met,,red,green,,1240.4316247370098,,,,,0,74,74,96,trial,,,,,,red,1.2404316247370097,1.2416666666666667,2.3003738000406884,0.9972554999985732,2e-05,2e-05,1.241828300000634,1.2750829000142403,1.999950700032059,2.3003738000406884,2.883386600005906,0.5830127999652177,2.3003738000406884,2.5001702000154182,3.916929099999834,1.6165552999591455,1.0335424999939278,1.49323,-0.14779006146803922,-0.003144469392937004,,,,None,,,,-0.167,-0.16666666666666666,1.0401016247370098,1.0416666666666667,trial_list_0.8_red.csv,1.0416358000366017,1.0749586000456475,p15_high2_01,001,2023-05-15_14h56.27.774,expectation_shapes_perceived_time,2022.2.4,119.80782825861411,
,-300,0.8,met,,red,green,,585.1683120163416,0,0,0,0,0,75,75,454,fam,0.9402567999786697,0.9402567999786697,270.0,3.254057499987539,3.254057499987539,,,,,,,,,,,,,,,,,,,,,,,,,,,,,,,,,,,,p15_high2_01,001,2023-05-15_14h56.27.774,expectation_shapes_perceived_time,2022.2.4,119.80782825861411,
,-300,0.8,met,,red,green,,585.1683120163416,1,0,1,0,0,75,75,454,fam,0.498378699994646,0.498378699994646,270.0,2.4984117000130937,2.4984117000130937,,,,,,,,,,,,,,,,,,,,,,,,,,,,,,,,,,,,p15_high2_01,001,2023-05-15_14h56.27.774,expectation_shapes_perceived_time,2022.2.4,119.80782825861411,
,-300,0.8,met,,red,green,,585.1683120163416,2,0,2,0,0,75,75,454,fam,0.4989292999962345,0.4989292999962345,270.0,2.4983018999919295,2.4983018999919295,,,,,,,,,,,,,,,,,,,,,,,,,,,,,,,,,,,,p15_high2_01,001,2023-05-15_14h56.27.774,expectation_shapes_perceived_time,2022.2.4,119.80782825861411,
,-300,0.8,met,,red,green,,585.1683120163416,3,0,3,0,0,75,75,454,fam,0.49648830003570765,0.49648830003570765,270.0,2.4965568000334315,2.4965568000334315,,,,,,,,,,,,,,,,,,,,,,,,,,,,,,,,,,,,p15_high2_01,001,2023-05-15_14h56.27.774,expectation_shapes_perceived_time,2022.2.4,119.80782825861411,
,-300,0.8,met,,red,green,,585.1683120163416,,,,,0,75,75,454,trial,,,,,,red,0.5851683120163416,0.5833333333333334,2.300095100014005,0.9910337000037543,4e-05,4e-05,0.5833000999991782,0.6167262000381015,1.9999070000485517,2.300095100014005,2.408377700019628,0.10828260000562295,2.300095100014005,2.5004753000102937,3.8164906000019982,1.5163954999879934,1.4081128999823704,0.28247,0.11462765021790304,0.0933396580345782,,,,None,,0.03349,2.0333949000341818,-0.3,-0.3,0.2518383120163416,0.25,trial_list_0.8_red.csv,0.25012490001972765,0.2835253000375815,p15_high2_01,001,2023-05-15_14h56.27.774,expectation_shapes_perceived_time,2022.2.4,119.80782825861411,
,-300,0.8,met,,red,green,,1346.5322015140084,,,,,0,76,76,330,trial,,,,,,red,1.3465322015140084,1.3416666666666666,2.3002087000058964,0.9967001000186428,5e-05,5e-05,1.3419631000142545,1.3754893000004813,2.0001201000413857,2.3002087000058964,2.441941100056283,0.1417324000503868,2.3002087000058964,2.50002850004239,3.699933100026101,1.3997244000202045,1.2579919999698177,1.19208,-0.08388583721571827,-0.12171670497966965,,,,None,,,,-0.3,-0.3,1.0132022015140083,1.0083333333333333,trial_list_0.8_red.csv,1.0085677000461146,1.041941300034523,p15_high2_01,001,2023-05-15_14h56.27.774,expectation_shapes_perceived_time,2022.2.4,119.80782825861411,
,100,0.8,met,,red,green,,717.6079012106829,,,,,0,77,77,361,trial,,,,,,red,0.717607901210683,0.7166666666666667,2.300078600004781,0.9978031999780796,1e-05,1e-05,0.7172760999528691,0.7504169999738224,2.000430799962487,2.300078600004781,2.300078600004781,0.0,2.300078600004781,2.500364299979992,3.416947599966079,1.116868999961298,1.116868999961298,0.66611,0.12814913211271406,-0.07368575096481059,,,,None,,,,0.1,0.1,0.850937901210683,0.85,trial_list_0.8_red.csv,0.8506647999747656,0.8840215000091121,p15_high2_01,001,2023-05-15_14h56.27.774,expectation_shapes_perceived_time,2022.2.4,119.80782825861411,
,-167,0.8,met,,red,green,,327.03807839916107,,,,,0,78,78,388,trial,,,,,,red,0.32703807839916105,0.325,2.3006727999891154,0.9967073000152595,2e-05,2e-05,0.32546119997277856,0.35860360000515357,2.000304099987261,2.3006727999891154,2.3006727999891154,0.0,2.3006727999891154,2.5004872999852523,3.3167741000070237,1.0161013000179082,1.0161013000179082,0.26161,0.10826977742027317,0.10064514520757786,,,,None,,0.03334,2.0337351000052877,-0.167,-0.16666666666666666,0.12670807839916107,0.125,trial_list_0.8_red.csv,0.12502819998189807,0.1583639999735169,p15_high2_01,001,2023-05-15_14h56.27.774,expectation_shapes_perceived_time,2022.2.4,119.80782825861411,
,33,0.8,met,,red,green,,1317.9190599167569,,,,,0,79,79,6,trial,,,,,,red,1.317919059916757,1.3166666666666667,2.2999629999976605,0.9975591999827884,1e-05,1e-05,1.3166673999512568,1.3500346999499016,1.9998916999902576,2.2999629999976605,2.3335028999717906,0.033539899974130094,2.2999629999976605,2.5004242999712005,3.241643799992744,0.9416807999950834,0.9081409000209533,1.07721,-0.03550428047985775,-0.1434964669394251,,,,None,,0.03389,2.033756999997422,0.033,0.03333333333333333,1.3842490599167567,1.3833333333333333,trial_list_0.8_red.csv,1.3832658999599516,1.4165924999979325,p15_high2_01,001,2023-05-15_14h56.27.774,expectation_shapes_perceived_time,2022.2.4,119.80782825861411,
,-233,0.8,met,,red,green,,1603.537009072155,,,,,0,80,80,382,trial,,,,,,red,1.6035370090721548,1.6,2.2994853000272997,0.9979678000090644,1e-05,1e-05,1.599420500046108,1.6327506999950856,2.0000246000126936,2.2994853000272997,2.2994853000272997,0.0,2.2994853000272997,2.4997693999903277,3.1831105000455864,0.8836252000182867,0.8836252000182867,1.48744,-0.14770847669041628,-0.00583059776409538,,,,None,,0.03305,2.0332591999904253,-0.233,-0.23333333333333334,1.337207009072155,1.3333333333333333,trial_list_0.8_red.csv,1.3327040000003763,1.3660491000046022,p15_high2_01,001,2023-05-15_14h56.27.774,expectation_shapes_perceived_time,2022.2.4,119.80782825861411,
,-233,0.8,met,,red,green,,1744.11288762147,,,,,0,81,81,293,trial,,,,,,red,1.74411288762147,1.7416666666666667,2.299676400027238,0.9970215000212193,1e-05,1e-05,1.7415303000016138,1.7750641999882646,1.9999933000071906,2.299676400027238,2.574945400003344,0.275268999976106,2.299676400027238,2.4998081999947317,3.358193400024902,1.0585169999976642,0.7832480000215583,1.43107,-0.14437101258754526,-0.03176162276925996,,,,None,,0.03341,2.0332868000259623,-0.233,-0.23333333333333334,1.47778288762147,1.475,trial_list_0.8_red.csv,1.47504150000168,1.508541100018192,p15_high2_01,001,2023-05-15_14h56.27.774,expectation_shapes_perceived_time,2022.2.4,119.80782825861411,
,-233,0.8,met,,red,green,,917.9788727684912,,,,,0,82,82,289,trial,,,,,,red,0.9179788727684912,0.9166666666666666,2.3000770999933593,0.9970100999926217,1e-05,1e-05,0.916844499995932,0.9499972999910824,1.9999679999891669,2.3000770999933593,2.3000770999933593,0.0,2.3000770999933593,2.500136599992402,3.766694199992344,1.4666170999989845,1.4666170999989845,0.8275,0.0762445238929079,-0.12664344646618603,,,,None,,0.03301,2.0333258000318892,-0.233,-0.23333333333333334,0.6516488727684911,0.65,trial_list_0.8_red.csv,0.6498914000112563,0.6834384999820031,p15_high2_01,001,2023-05-15_14h56.27.774,expectation_shapes_perceived_time,2022.2.4,119.80782825861411,
,-167,0.8,met,,red,green,,1467.7098505297545,,,,,0,83,83,329,trial,,,,,,red,1.4677098505297546,1.4666666666666666,2.2999609999824315,0.9981476999819279,3e-05,3e-05,1.4667232999927364,1.50003990001278,1.9997364999726415,2.2999609999824315,2.6996662999736145,0.399705299991183,2.2999609999824315,2.500272999983281,3.8415315999882296,1.541570600005798,1.141865300014615,1.36652,-0.13501566560984737,-0.060187706356197024,,,,None,,0.03327,2.0334713999764062,-0.167,-0.16666666666666666,1.2673798505297547,1.2666666666666666,trial_list_0.8_red.csv,1.2669752999790944,1.299799799977336,p15_high2_01,001,2023-05-15_14h56.27.774,expectation_shapes_perceived_time,2022.2.4,119.80782825861411,
,300,0.1999999999999999,unmet,,green,red,,1086.884198123234,,,,,0,84,84,467,trial,,,,,,green,1.086884198123234,1.0833333333333333,2.3003163000103086,0.9979539000196382,1e-05,1e-05,1.0833423999720253,1.1170050000073388,2.0004287000047043,2.3003163000103086,2.5004033999866806,0.20008709997637197,2.3003163000103086,2.5004033999866806,3.5164894000045024,1.2161730999941938,1.0160860000178218,1.27886,-0.11356116561121439,-0.09463430467601198,,,,None,,0.03362,2.033358999993652,0.3,0.3,1.420214198123234,1.4166666666666667,trial_list_0.8_red.csv,1.4164143999805674,1.4502378999604844,p15_high2_01,001,2023-05-15_14h56.27.774,expectation_shapes_perceived_time,2022.2.4,119.80782825861411,
,167,0.8,met,,red,green,,178.51820606537842,,,,,0,85,85,367,trial,,,,,,red,0.1785182060653784,0.175,2.2997024999931455,0.9985899000312202,6e-05,6e-05,0.17474919999949634,0.20825570001034066,2.0001839000033215,2.2997024999931455,2.2997024999931455,0.0,2.2997024999931455,2.5000802999711595,3.266703100001905,0.9670006000087596,0.9670006000087596,0.21899,0.0938627658869766,0.11419969849582154,,,,None,,,,0.167,0.16666666666666666,0.3788482060653784,0.375,trial_list_0.8_red.csv,0.37469939998118207,0.4079988999874331,p15_high2_01,001,2023-05-15_14h56.27.774,expectation_shapes_perceived_time,2022.2.4,119.80782825861411,
,-100,0.8,met,,red,green,,1156.194444893129,,,,,0,86,86,344,trial,,,,,,red,1.156194444893129,1.1583333333333332,2.3000435000285506,0.9969308000290766,1e-05,1e-05,1.158684300025925,1.1919102999963798,2.000016800011508,2.3000435000285506,2.3000435000285506,0.0,2.3000435000285506,2.5002792000304908,3.2090276000089943,0.9089840999804437,0.9089840999804437,1.0907,-0.04155563081344035,-0.14186232588036535,,,,None,,0.03342,2.033477600023616,-0.1,-0.1,1.022864444893129,1.025,trial_list_0.8_red.csv,1.024978400033433,1.0585889000212774,p15_high2_01,001,2023-05-15_14h56.27.774,expectation_shapes_perceived_time,2022.2.4,119.80782825861411,
,-300,0.8,met,,red,green,,720.9259599330709,,,,,0,87,87,101,trial,,,,,,red,0.7209259599330708,0.7166666666666667,2.2998686999781057,0.997190399968531,2e-05,2e-05,0.7165989999775775,0.7499947000178508,1.9997002999880351,2.2998686999781057,2.2998686999781057,0.0,2.2998686999781057,2.4998830999829806,3.1246606999775395,0.8247919999994338,0.8247919999994338,0.28685,0.1159004053690722,0.09175448758384883,,,,None,,0.03323,2.033268600003794,-0.3,-0.3,0.3875959599330709,0.3833333333333333,trial_list_0.8_red.csv,0.38282479997724295,0.416135800012853,p15_high2_01,001,2023-05-15_14h56.27.774,expectation_shapes_perceived_time,2022.2.4,119.80782825861411,
,-300,0.8,met,,red,green,,1344.158995203229,,,,,0,88,88,198,trial,,,,,,red,1.3441589952032291,1.3416666666666666,2.3002255000174046,0.997156500001438,1e-05,1e-05,1.3413924999767914,1.3747856999980286,1.999789600027725,2.3002255000174046,2.9252289999858476,0.6250034999684431,2.3002255000174046,2.500009700015653,4.408686899987515,2.1084613999701105,1.4834579000016674,0.45383,0.14627134488479795,0.021365477342723295,,,,None,,,,-0.3,-0.3,1.010828995203229,1.0083333333333333,trial_list_0.8_red.csv,1.0083726000157185,1.041916800022591,p15_high2_01,001,2023-05-15_14h56.27.774,expectation_shapes_perceived_time,2022.2.4,119.80782825861411,
,100,0.8,met,,red,green,,848.3329456843373,,,,,0,89,89,494,trial,,,,,,red,0.8483329456843374,0.85,2.299752700026147,0.9968988000182435,1e-05,1e-05,0.8494525999994949,0.8827942000352778,1.999623900046572,2.299752700026147,3.3917973000206985,1.0920445999945514,2.299752700026147,2.5000225999974646,4.308125100040343,2.0083724000141956,0.9163278000196442,0.69336,0.12137925052239673,-0.08437338146069041,,,,None,,,,0.1,0.1,0.9816629456843374,0.9833333333333333,trial_list_0.8_red.csv,0.9828182000201195,1.0158758999896236,p15_high2_01,001,2023-05-15_14h56.27.774,expectation_shapes_perceived_time,2022.2.4,119.80782825861411,
,100,0.8,met,,red,green,,1504.2999850213102,,,,,0,90,90,20,trial,,,,,,red,1.5042999850213103,1.5,2.299886399996467,0.9971815000171773,1e-05,1e-05,1.4996926000458188,1.5329903000383638,1.999794200004544,2.299886399996467,2.299886399996467,0.0,2.299886399996467,2.499833600013517,3.74972500000149,1.4498386000050232,1.4498386000050232,1.50535,-0.14780263635459187,0.0024840779219259144,,,,None,,0.03311,2.0332813000422902,0.1,0.1,1.63762998502131,1.6333333333333333,trial_list_0.8_red.csv,1.6333591000293382,1.666693800012581,p15_high2_01,001,2023-05-15_14h56.27.774,expectation_shapes_perceived_time,2022.2.4,119.80782825861411,
,-233,0.8,met,,red,green,,1388.4089718343666,,,,,0,91,91,488,trial,,,,,,red,1.3884089718343666,1.3833333333333333,2.300260200048797,0.9966082000173628,2e-05,2e-05,1.3838169000227936,1.4166069000493735,1.9999905000440776,2.300260200048797,2.300260200048797,0.0,2.300260200048797,2.5003265000414103,3.3420184000278823,1.0417581999790855,1.0417581999790855,1.51049,-0.14774324574140993,0.004870656453013514,,,,None,,0.03374,2.0336061000125483,-0.233,-0.23333333333333334,1.1220789718343667,1.1166666666666667,trial_list_0.8_red.csv,1.1170765000279061,1.1505761000444181,p15_high2_01,001,2023-05-15_14h56.27.774,expectation_shapes_perceived_time,2022.2.4,119.80782825861411,
,-33,0.8,met,,red,green,,1513.811269582307,,,,,0,92,92,146,trial,,,,,,red,1.513811269582307,1.5083333333333333,2.2995091000339016,0.9976723999716341,1e-05,1e-05,1.5077703000279143,1.5411377000273205,2.000139700016007,2.2995091000339016,2.666485299996566,0.3669761999626644,2.2995091000339016,2.500165899982676,3.6250874000252225,1.3255782999913208,0.9586021000286564,1.53081,-0.14713170716022345,0.014284631763128488,,,,None,,,,-0.033,-0.03333333333333333,1.447481269582307,1.4416666666666667,trial_list_0.8_red.csv,1.4413123999838717,1.474499800009653,p15_high2_01,001,2023-05-15_14h56.27.774,expectation_shapes_perceived_time,2022.2.4,119.80782825861411,
,-167,0.1999999999999999,unmet,,green,red,,1325.7621416083157,,,,,0,93,93,446,trial,,,,,,green,1.3257621416083156,1.325,2.300246300001163,0.9967604999546893,1e-05,1e-05,1.3250393000198528,1.3584591000108048,1.999900599999819,2.300246300001163,2.97070339997299,0.6704570999718271,2.300246300001163,2.4998303999891505,4.075164999987464,1.7749186999863014,1.1044616000144742,1.00715,-0.0033210381833491546,-0.14778619915903737,,,,None,,0.03322,2.033238700008951,-0.167,-0.16666666666666666,1.1254321416083157,1.125,trial_list_0.8_red.csv,1.1251596999936737,1.1586180999875069,p15_high2_01,001,2023-05-15_14h56.27.774,expectation_shapes_perceived_time,2022.2.4,119.80782825861411,
,-233,0.1999999999999999,unmet,,green,red,,1001.0329368425068,,,,,0,94,94,282,trial,,,,,,green,1.0010329368425068,1.0,2.3004464999539778,0.9967719000414945,1e-05,1e-05,1.00046209996799,1.033625199983362,1.9999639999587089,2.3004464999539778,2.333580999984406,0.03313450003042817,2.3004464999539778,2.5001205999869853,3.7835267999907956,1.4830803000368178,1.4499458000063896,0.88781,0.05102947274822113,-0.1387363790342262,,,,None,,,,-0.233,-0.23333333333333334,0.7347029368425068,0.7333333333333333,trial_list_0.8_red.csv,0.7337349999579601,0.766939299996011,p15_high2_01,001,2023-05-15_14h56.27.774,expectation_shapes_perceived_time,2022.2.4,119.80782825861411,
,167,0.8,met,,red,green,,294.2441667060058,,,,,0,95,95,123,trial,,,,,,red,0.2942441667060058,0.2916666666666667,2.2998973000212573,0.9973061999771744,1e-05,1e-05,0.2918886999832466,0.32524089998332784,1.9999592999811284,2.2998973000212573,2.2998973000212573,0.0,2.2998973000212573,2.500024900014978,3.5085392000037245,1.2086418999824673,1.2086418999824673,0.34681,0.1310321141667858,0.06842788184265483,,,,None,,0.03383,2.0333098999690264,0.167,0.16666666666666666,0.4945741667060058,0.49166666666666664,trial_list_0.8_red.csv,0.491856699984055,0.5254023000015877,p15_high2_01,001,2023-05-15_14h56.27.774,expectation_shapes_perceived_time,2022.2.4,119.80782825861411,
,-233,0.8,met,,red,green,,1353.1970179320358,,,,,0,96,96,371,trial,,,,,,red,1.3531970179320358,1.35,2.2999662999645807,0.9973505999660119,1e-05,1e-05,1.34955159999663,1.3829227999667637,1.999729799979832,2.2999662999645807,2.2999662999645807,0.0,2.2999662999645807,2.4995161999831907,3.332721600017976,1.0327553000533953,1.0327553000533953,1.3033,-0.12048478939449088,-0.0856458141478911,,,,None,,,,-0.233,-0.23333333333333334,1.0868670179320359,1.0833333333333333,trial_list_0.8_red.csv,1.0829206999624148,1.1159967000130564,p15_high2_01,001,2023-05-15_14h56.27.774,expectation_shapes_perceived_time,2022.2.4,119.80782825861411,
,300,0.8,met,,red,green,,540.9387346640441,,,,,0,97,97,147,trial,,,,,,red,0.5409387346640441,0.5416666666666666,2.2997929000412114,0.9987381999962963,1e-05,1e-05,0.541040200041607,0.5749287000508048,1.999911200022325,2.2997929000412114,2.2997929000412114,0.0,2.2997929000412114,2.499534100003075,3.349251300038304,1.0494583999970928,1.0494583999970928,0.84749,0.06814513424553506,-0.13117938342265498,,,,None,,0.0329,2.033282800053712,0.3,0.3,0.8742687346640441,0.875,trial_list_0.8_red.csv,0.8749189000227489,0.9081681000534445,p15_high2_01,001,2023-05-15_14h56.27.774,expectation_shapes_perceived_time,2022.2.4,119.80782825861411,
,-300,0.1999999999999999,unmet,,green,red,,1698.3810241052213,,,,,0,98,98,178,trial,,,,,,green,1.6983810241052213,1.6916666666666667,2.2997844999772497,0.998634499963373,5e-05,5e-05,1.6916555999778211,1.7249526999657974,1.9998791999532841,2.2997844999772497,2.2997844999772497,0.0,2.2997844999772497,2.4997108999523334,3.483081199985463,1.1832967000082135,1.1832967000082135,1.42529,-0.14377002501547942,-0.034379788590658114,,,,None,,0.03288,2.0334440000005998,-0.3,-0.3,1.3650510241052214,1.3666666666666667,trial_list_0.8_red.csv,1.3664240999496542,1.3998668999993242,p15_high2_01,001,2023-05-15_14h56.27.774,expectation_shapes_perceived_time,2022.2.4,119.80782825861411,
,33,0.8,met,,red,green,,602.1881318608087,,,,,0,99,99,235,trial,,,,,,red,0.6021881318608087,0.6,2.300350100034848,0.9981173999840394,2e-05,2e-05,0.6000453000306152,0.6337795000290498,2.000107100000605,2.300350100034848,2.300350100034848,0.0,2.300350100034848,2.5007038000039756,3.425404100038577,1.125054000003729,1.125054000003729,0.45318,0.1462275273999561,0.021663337392586086,,,,None,,0.03327,2.0335828000097536,0.033,0.03333333333333333,0.6685181318608087,0.6666666666666666,trial_list_0.8_red.csv,0.6670467000221834,0.6999973000492901,p15_high2_01,001,2023-05-15_14h56.27.774,expectation_shapes_perceived_time,2022.2.4,119.80782825861411,
,233,0.8,met,,red,green,,307.0507969843586,0,0,0,0,0,100,100,314,fam,0.5322268000454642,0.5322268000454642,270.0,2.532821500033606,2.532821500033606,,,,,,,,,,,,,,,,,,,,,,,,,,,,,,,,,,,,p15_high2_01,001,2023-05-15_14h56.27.774,expectation_shapes_perceived_time,2022.2.4,119.80782825861411,
,233,0.8,met,,red,green,,307.0507969843586,1,0,1,0,0,100,100,314,fam,0.4992404000367969,0.4992404000367969,270.0,2.4985242999973707,2.4985242999973707,,,,,,,,,,,,,,,,,,,,,,,,,,,,,,,,,,,,p15_high2_01,001,2023-05-15_14h56.27.774,expectation_shapes_perceived_time,2022.2.4,119.80782825861411,
,233,0.8,met,,red,green,,307.0507969843586,2,0,2,0,0,100,100,314,fam,0.498068000015337,0.498068000015337,270.0,2.4978446000022814,2.4978446000022814,,,,,,,,,,,,,,,,,,,,,,,,,,,,,,,,,,,,p15_high2_01,001,2023-05-15_14h56.27.774,expectation_shapes_perceived_time,2022.2.4,119.80782825861411,
,233,0.8,met,,red,green,,307.0507969843586,3,0,3,0,0,100,100,314,fam,0.4988522999919951,0.4988522999919951,270.0,2.4989115999778733,2.4989115999778733,,,,,,,,,,,,,,,,,,,,,,,,,,,,,,,,,,,,p15_high2_01,001,2023-05-15_14h56.27.774,expectation_shapes_perceived_time,2022.2.4,119.80782825861411,
,233,0.8,met,,red,green,,307.0507969843586,,,,,0,100,100,314,trial,,,,,,red,0.3070507969843586,0.30833333333333335,2.2996505000046454,0.9907737000030465,1e-05,1e-05,0.30825140001252294,0.3416391999926418,1.999723700049799,2.2996505000046454,2.2996505000046454,0.0,2.2996505000046454,2.499513000017032,3.716970000008587,1.4173195000039414,1.4173195000039414,0.14593,0.06541916376165346,0.1325598844644031,,,,None,,0.03342,2.033186200016644,0.233,0.23333333333333334,0.5733807969843586,0.575,trial_list_0.8_red.csv,0.5745611000456847,0.6081914000096731,p15_high2_01,001,2023-05-15_14h56.27.774,expectation_shapes_perceived_time,2022.2.4,119.80782825861411,
,-233,0.8,met,,red,green,,1689.4219911573964,,,,,0,101,101,187,trial,,,,,,red,1.6894219911573964,1.6833333333333333,2.3001812999718823,0.998115099966526,1e-05,1e-05,1.6836069999844767,1.7167652999632992,1.9999518999829888,2.3001812999718823,2.8081145999603905,0.5079332999885082,2.3001812999718823,2.4996608999790624,3.6247602999792434,1.3245790000073612,0.816645700018853,1.17887,-0.0787623274252334,-0.12509310826360598,,,,None,,0.03369,2.0336388999712653,-0.233,-0.23333333333333334,1.4230919911573965,1.4166666666666667,trial_list_0.8_red.csv,1.4168759000021964,1.4501493999850936,p15_high2_01,001,2023-05-15_14h56.27.774,expectation_shapes_perceived_time,2022.2.4,119.80782825861411,
,-167,0.8,met,,red,green,,744.8693757407905,,,,,0,102,102,482,trial,,,,,,red,0.7448693757407905,0.7416666666666667,2.299963299999945,0.9984555999981239,2e-05,2e-05,0.7419363000080921,0.7746711000218056,1.999855900008697,2.299963299999945,2.299963299999945,0.0,2.299963299999945,2.500153200002387,3.3248906999942847,1.0249273999943398,1.0249273999943398,0.70419,0.11843847084499601,-0.08845404784626285,,,,None,,0.03326,2.0333228000090457,-0.167,-0.16666666666666666,0.5445393757407905,0.5416666666666666,trial_list_0.8_red.csv,0.5415326000074856,0.5745561000076123,p15_high2_01,001,2023-05-15_14h56.27.774,expectation_shapes_perceived_time,2022.2.4,119.80782825861411,
,-100,0.8,met,,red,green,,1269.61600602283,,,,,0,103,103,58,trial,,,,,,red,1.26961600602283,1.2666666666666666,2.2999139000312425,0.9987148999935016,2e-05,2e-05,1.2668823000276461,1.29974340001354,1.9997908000368625,2.2999139000312425,2.5665328000322916,0.26661890000104904,2.2999139000312425,2.4997849000501446,3.7245484000304714,1.4246344999992289,1.1580155999981798,0.73903,0.10806715537922829,-0.1008626783539464,,,,None,,0.03307,2.033387500036042,-0.1,-0.1,1.1362860060228301,1.1333333333333333,trial_list_0.8_red.csv,1.1332489000051282,1.1668587000458501,p15_high2_01,001,2023-05-15_14h56.27.774,expectation_shapes_perceived_time,2022.2.4,119.80782825861411,
,233,0.8,met,,red,green,,787.9598027432548,,,,,0,104,104,66,trial,,,,,,red,0.7879598027432548,0.7833333333333333,2.300055700005032,0.9981668000109494,6e-05,6e-05,0.7830448999884538,0.8162636999622919,1.9998410999542102,2.300055700005032,2.46650519996183,0.1664494999567978,2.300055700005032,2.4995111000025645,3.4665579999564216,1.1665022999513894,1.0000527999945916,0.6631,0.12883935467910743,-0.07247213700699794,,,,None,,0.03322,,0.233,0.23333333333333334,1.0542898027432548,1.05,trial_list_0.8_red.csv,1.0501193999662064,1.0834385000052862,p15_high2_01,001,2023-05-15_14h56.27.774,expectation_shapes_perceived_time,2022.2.4,119.80782825861411,
,33,0.8,met,,red,green,,1073.1566489193028,,,,,0,105,105,316,trial,,,,,,red,1.0731566489193027,1.075,2.300256700022146,0.9973861000034958,2e-05,2e-05,1.0750692000146955,1.1085551000433043,2.0001200000406243,2.300256700022146,2.6000690000364557,0.2998123000143096,2.300256700022146,2.5004151000175625,3.908205099985935,1.6079483999637887,1.308136099949479,0.95113,0.022608301450661568,-0.14608440937350547,,,,None,,0.03337,2.0336329000419937,0.033,0.03333333333333333,1.1394866489193027,1.1416666666666666,trial_list_0.8_red.csv,1.1415647999965586,1.175225600018166,p15_high2_01,001,2023-05-15_14h56.27.774,expectation_shapes_perceived_time,2022.2.4,119.80782825861411,
,-233,0.8,met,,red,green,,999.8731445731088,,,,,0,106,106,374,trial,,,,,,red,0.9998731445731088,1.0,2.3002947000204585,0.9972450000350364,2e-05,2e-05,1.0006627999828197,1.0336366000119597,2.0002690000110306,2.3002947000204585,2.7836626000353135,0.48336790001485497,2.3002947000204585,2.5002767000114545,3.8337122999946587,1.5334175999742001,1.0500496999593452,0.87163,0.05801166368147918,-0.1359648367534668,,,,None,,0.03354,2.0335646999883465,-0.233,-0.23333333333333334,0.7335431445731088,0.7333333333333333,trial_list_0.8_red.csv,0.7335596000193618,0.7672490000259131,p15_high2_01,001,2023-05-15_14h56.27.774,expectation_shapes_perceived_time,2022.2.4,119.80782825861411,
,-167,0.1999999999999999,unmet,,green,red,,1844.282013740912,,,,,0,107,107,460,trial,,,,,,green,1.844282013740912,1.8416666666666666,2.3001925999997184,0.9976153000025079,3e-05,3e-05,1.8417570000165142,1.8751314000110142,2.0000005000038072,2.3001925999997184,2.3001925999997184,0.0,2.3001925999997184,2.5000910999951884,3.333757299988065,1.0335646999883465,1.0335646999883465,1.38244,-0.1378554891207167,-0.053363415143503255,,,,None,,0.03341,2.0334561999770813,-0.167,-0.16666666666666666,1.643952013740912,1.6416666666666666,trial_list_0.8_red.csv,1.6417911000316963,1.6754719000309706,p15_high2_01,001,2023-05-15_14h56.27.774,expectation_shapes_perceived_time,2022.2.4,119.80782825861411,
,100,0.8,met,,red,green,,1610.146322310149,,,,,0,108,108,287,trial,,,,,,red,1.6101463223101489,1.6083333333333334,2.300603800045792,0.9972658999613486,1e-05,1e-05,1.6087801000103354,1.6422826999914832,2.00029729999369,2.300603800045792,2.8500348000088707,0.5494309999630786,2.300603800045792,2.500618099991698,3.7171827999991365,1.4165789999533445,0.8671479999902658,1.45637,-0.14643709189485815,-0.020198219571704576,,,,None,,,,0.1,0.1,1.7434763223101488,1.7416666666666667,trial_list_0.8_red.csv,1.741936300008092,1.775299500033725,p15_high2_01,001,2023-05-15_14h56.27.774,expectation_shapes_perceived_time,2022.2.4,119.80782825861411,
,300,0.1999999999999999,unmet,,green,red,,704.5878538785211,,,,,0,109,109,46,trial,,,,,,green,0.7045878538785211,0.7,2.300013000029139,0.9977435999899171,1e-05,1e-05,0.6994721000082791,0.7326802000170574,1.9997127000242472,2.300013000029139,2.300013000029139,0.0,2.300013000029139,2.499946700001601,3.9167404000181705,1.6167273999890313,1.6167273999890313,0.76128,0.1007570443752682,-0.10816565057933206,,,,None,,0.03313,2.0333300000056624,0.3,0.3,1.0379178538785212,1.0333333333333332,trial_list_0.8_red.csv,1.032953499990981,1.0665002000168897,p15_high2_01,001,2023-05-15_14h56.27.774,expectation_shapes_perceived_time,2022.2.4,119.80782825861411,
,233,0.1999999999999999,unmet,,green,red,,892.3445201661846,,,,,0,110,110,325,trial,,,,,,green,0.8923445201661846,0.8916666666666666,2.300203299964778,0.9970068999682553,2e-05,2e-05,0.8913779999711551,0.924710999999661,2.0000083999475464,2.300203299964778,3.8833660999662243,1.5831628000014462,2.300203299964778,2.500202299968805,5.608425399987027,3.308222100022249,1.7250593000208028,0.96434,0.016525895696981596,-0.14689685063983643,,,,None,,0.03346,2.0335639999830164,0.233,0.23333333333333334,1.1586745201661846,1.1583333333333332,trial_list_0.8_red.csv,1.158427499991376,1.191701199975796,p15_high2_01,001,2023-05-15_14h56.27.774,expectation_shapes_perceived_time,2022.2.4,119.80782825861411,
,-167,0.8,met,,red,green,,554.3578478516406,,,,,0,111,111,436,trial,,,,,,red,0.5543578478516406,0.55,2.300662800029386,0.9957727000000887,2e-05,2e-05,0.5503265000297688,0.5836622000206262,2.0004498999915086,2.300662800029386,2.300662800029386,0.0,2.300662800029386,2.500732699991204,3.450236600008793,1.1495737999794073,1.1495737999794073,0.31547,0.12367188700209339,0.08097564029898971,,,,None,,,,-0.167,-0.16666666666666666,0.3540278478516406,0.35,trial_list_0.8_red.csv,0.3504147999919951,0.38343330001225695,p15_high2_01,001,2023-05-15_14h56.27.774,expectation_shapes_perceived_time,2022.2.4,119.80782825861411,
,167,0.8,met,,red,green,,1519.0878369210984,,,,,0,112,112,477,trial,,,,,,red,1.5190878369210985,1.5166666666666666,2.3003549000131898,0.9982345000025816,4e-05,4e-05,1.517045499989763,1.550215900002513,2.0004469999694265,2.3003549000131898,2.3089550000149757,0.008600100001785904,2.3003549000131898,2.500588199996855,3.250513700011652,0.9501587999984622,0.9415586999966763,1.26807,-0.11028816189647864,-0.09842921975707233,,,,None,,,,0.167,0.16666666666666666,1.7194178369210984,1.7166666666666666,trial_list_0.8_red.csv,1.717387199983932,1.7501689000055194,p15_high2_01,001,2023-05-15_14h56.27.774,expectation_shapes_perceived_time,2022.2.4,119.80782825861411,
,33,0.8,met,,red,green,,1285.5671483402016,,,,,0,113,113,7,trial,,,,,,red,1.2855671483402016,1.2833333333333332,2.300302899966482,0.9974204000318423,1e-05,1e-05,1.2830262999632396,1.3163757999427617,1.999916199943982,2.300302899966482,2.5754910999676213,0.2751882000011392,2.300302899966482,2.4999919999972917,3.58333529997617,1.283032400009688,1.0078442000085488,1.12208,-0.055314675362667376,-0.13708419546400177,,,,None,,,,0.033,0.03333333333333333,1.3518971483402016,1.35,trial_list_0.8_red.csv,1.3497368999524042,1.3829980999580584,p15_high2_01,001,2023-05-15_14h56.27.774,expectation_shapes_perceived_time,2022.2.4,119.80782825861411,
,300,0.8,met,,red,green,,687.9292414236186,,,,,0,114,114,240,trial,,,,,,red,0.6879292414236186,0.6833333333333333,2.300074000027962,0.9976362000452355,1e-05,1e-05,0.6836480000056326,0.7167788000078872,2.000364699983038,2.300074000027962,2.300074000027962,0.0,2.300074000027962,2.500046300003305,3.7669725000159815,1.4668984999880195,1.4668984999880195,0.71013,0.11676749651914886,-0.09064845124512873,,,,None,,0.03367,2.0334341999841854,0.3,0.3,1.0212592414236186,1.0166666666666666,trial_list_0.8_red.csv,1.0163480000337586,1.0497168999863788,p15_high2_01,001,2023-05-15_14h56.27.774,expectation_shapes_perceived_time,2022.2.4,119.80782825861411,
,300,0.1999999999999999,unmet,,green,red,,1016.7533140346604,,,,,0,115,115,340,trial,,,,,,green,1.0167533140346605,1.0166666666666666,2.300187300017569,0.9967828000080772,2e-05,2e-05,1.0167485999991186,1.0499854999943636,1.9996780999936163,2.300187300017569,2.983731499989517,0.6835441999719478,2.300187300017569,2.5002424999838695,4.175327200035099,1.8751399000175297,1.191595700045582,0.83895,0.07164103587385237,-0.12930333304061162,,,,None,,,,0.3,0.3,1.3500833140346604,1.35,trial_list_0.8_red.csv,1.3497011000290513,1.3830834000254981,p15_high2_01,001,2023-05-15_14h56.27.774,expectation_shapes_perceived_time,2022.2.4,119.80782825861411,
,-300,0.8,met,,red,green,,911.1164406129736,,,,,0,116,116,89,trial,,,,,,red,0.9111164406129736,0.9083333333333333,2.299770299985539,0.9974955000216141,1e-05,1e-05,0.9083705999655649,0.9412983999936841,1.9994880000012927,2.299770299985539,2.6496214999933727,0.34985120000783354,2.299770299985539,2.4997110999538563,4.024742499983404,1.7249721999978647,1.3751209999900311,0.95903,0.01897189584932189,-0.1466010133811237,,,,None,,0.03275,2.032783999980893,-0.3,-0.3,0.5777864406129736,0.575,trial_list_0.8_red.csv,0.575045500008855,0.6078448999905959,p15_high2_01,001,2023-05-15_14h56.27.774,expectation_shapes_perceived_time,2022.2.4,119.80782825861411,
,-33,0.8,met,,red,green,,1542.9734386660396,,,,,0,117,117,226,trial,,,,,,red,1.5429734386660396,1.5416666666666667,2.300385600014124,0.9973077999893576,1e-05,1e-05,1.5418934000190347,1.5750921000144444,1.99998860002961,2.300385600014124,2.300385600014124,0.0,2.300385600014124,2.5002018000232056,4.308981100039091,2.008595500024967,2.008595500024967,0.96562,0.015935644365095536,-0.14696205358921438,,,,None,,,,-0.033,-0.03333333333333333,1.4766434386660396,1.475,trial_list_0.8_red.csv,1.4751939999987371,1.508559999987483,p15_high2_01,001,2023-05-15_14h56.27.774,expectation_shapes_perceived_time,2022.2.4,119.80782825861411,
,167,0.8,met,,red,green,,258.2940945987765,,,,,0,118,118,253,trial,,,,,,red,0.2582940945987765,0.2583333333333333,2.2998683000332676,0.998265000001993,3e-05,3e-05,0.2585765000549145,0.291757500031963,1.999984000052791,2.2998683000332676,2.2998683000332676,0.0,2.2998683000332676,2.4999418000224978,3.5749778000172228,1.2751094999839552,1.2751094999839552,0.30589,0.12117967269375587,0.08465977133399384,,,,None,,,,0.167,0.16666666666666666,0.45862409459877646,0.4583333333333333,trial_list_0.8_red.csv,0.45825170003809035,0.49177040002541617,p15_high2_01,001,2023-05-15_14h56.27.774,expectation_shapes_perceived_time,2022.2.4,119.80782825861411,
,167,0.8,met,,red,green,,755.3239744411585,,,,,0,119,119,68,trial,,,,,,red,0.7553239744411585,0.75,2.30020619998686,0.997274000023026,2e-05,2e-05,0.7500874000252225,0.7834687000140548,1.9998158999951556,2.30020619998686,2.30020619998686,0.0,2.30020619998686,2.5002792000304908,3.549922499980312,1.2497162999934517,1.2497162999934517,0.95066,0.02282053222540528,-0.14605140624259377,,,,None,,0.03345,2.0329942000098526,0.167,0.16666666666666666,0.9556539744411585,0.95,trial_list_0.8_red.csv,0.9502577999955975,0.98342559998855,p15_high2_01,001,2023-05-15_14h56.27.774,expectation_shapes_perceived_time,2022.2.4,119.80782825861411,
,33,0.8,met,,red,green,,1354.0826960064628,,,,,0,120,120,438,trial,,,,,,red,1.354082696006463,1.35,2.2994006000226364,0.9977164000156336,1e-05,1e-05,1.3495292000006884,1.3832016999949701,1.9996747000259347,2.2994006000226364,2.2994006000226364,0.0,2.2994006000226364,2.499317600042559,3.383366300025955,1.0839657000033185,1.0839657000033185,1.19549,-0.08518651413845861,-0.1208099655054504,,,,None,,0.03313,2.0330556000117213,0.033,0.03333333333333333,1.4204126960064627,1.4166666666666667,trial_list_0.8_red.csv,1.4163649000111036,1.4497668000403792,p15_high2_01,001,2023-05-15_14h56.27.774,expectation_shapes_perceived_time,2022.2.4,119.80782825861411,
,300,0.8,met,,red,green,,206.18287031176516,,,,,0,121,121,461,trial,,,,,,red,0.20618287031176516,0.20833333333333334,2.2996614999719895,0.9972362999687903,1e-05,1e-05,0.20870459999423474,0.24158500001067296,2.0001121999812312,2.2996614999719895,2.374619900016114,0.07495840004412457,2.2996614999719895,2.499625800002832,3.499666499963496,1.2000049999915063,1.1250465999473818,0.3321,0.12773178351191952,0.07440686418170067,,,,None,,0.03344,2.033458099991549,0.3,0.3,0.5395128703117651,0.5416666666666666,trial_list_0.8_red.csv,0.5413134999689646,0.5748958999756724,p15_high2_01,001,2023-05-15_14h56.27.774,expectation_shapes_perceived_time,2022.2.4,119.80782825861411,
,-300,0.8,met,,red,green,,529.3001569512254,,,,,0,122,122,353,trial,,,,,,red,0.5293001569512255,0.525,2.300665899994783,0.9969276000047103,2e-05,2e-05,0.5250591000076383,0.5589887000387534,2.0002631000243127,2.300665899994783,2.450224000029266,0.14955810003448278,2.300665899994783,2.5004984000115655,3.474976300029084,1.174310400034301,1.0247522999998182,0.32261,0.12545612512646456,0.07818280261504312,,,,None,,0.03359,2.0335550000309013,-0.3,-0.3,0.1959701569512254,0.19166666666666665,trial_list_0.8_red.csv,0.19191890000365674,0.22562199999811128,p15_high2_01,001,2023-05-15_14h56.27.774,expectation_shapes_perceived_time,2022.2.4,119.80782825861411,
,167,0.8,met,,red,green,,1501.9227730980208,,,,,0,123,123,39,trial,,,,,,red,1.5019227730980207,1.5,2.300332599959802,0.9983162999851629,1e-05,1e-05,1.500388299988117,1.5336456999648362,1.9999625000054948,2.300332599959802,2.300332599959802,0.0,2.300332599959802,2.500247699965257,3.283448899979703,0.9831163000199012,0.9831163000199012,1.39534,-0.1399050289062923,-0.04773230397979385,,,,None,,0.03339,2.0336424999986775,0.167,0.16666666666666666,1.7022527730980208,1.7,trial_list_0.8_red.csv,1.7002226999611594,1.7339497999637388,p15_high2_01,001,2023-05-15_14h56.27.774,expectation_shapes_perceived_time,2022.2.4,119.80782825861411,
,-33,0.1999999999999999,unmet,,green,red,,610.4789085792872,,,,,0,124,124,107,trial,,,,,,green,0.6104789085792872,0.6083333333333333,2.300229999993462,0.9979521999484859,1e-05,1e-05,0.6083631999790668,0.6423458000062965,2.00002229999518,2.300229999993462,2.4503299999632873,0.15009999996982515,2.300229999993462,2.500445999961812,3.742098599963356,1.4418685999698937,1.2917686000000685,0.34058,0.12966913710944333,0.0709767908388532,,,,None,,0.03343,2.0336051000049338,-0.033,-0.03333333333333333,0.5441489085792872,0.5416666666666666,trial_list_0.8_red.csv,0.5423180999932811,0.5756564000039361,p15_high2_01,001,2023-05-15_14h56.27.774,expectation_shapes_perceived_time,2022.2.4,119.80782825861411,
