id,delay,expectation,congruency,trial_num,stim_color,distractor_color,block,targetTimeMs,famLoop.thisRepN,famLoop.thisTrialN,famLoop.thisN,famLoop.thisIndex,trialss.thisRepN,trialss.thisTrialN,trialss.thisN,trialss.thisIndex,isTrial,handMove.started,audioCue2Start.started,handOri,handMove.ended,audioCue2End.started,target_color,expected_target_onset,expected_target_onset_in_frames,fixationPoint.started,fixationPoint.stopped,audCueStart.started,placeholder.started,target.started,target.stopped,audCueEnd.started,responsePointer.started,cueForRep.started,space2pass.started,responseStarted,rtUntillMotionTreshold,responsePointer.stopped,rTAfterMotionTreshold,rtDurationBtwRespMotion,perceivedTime,resp_x_coord,resp_y_coord,feedbackPointer.stopped,actualTime_x_coord,actualTime_y_coord,space2pass.keys,space2pass.rt,audCueStart.stopped,audCueEnd.stopped,expected_delay,expected_delays_frame,expected_distractor,expected_distractor_frame,expBlockFiles,distractor.started,distractor.stopped,participant,session,date,expName,psychopyVersion,frameRate,
,,,,,,,,,0,0,0,0,,,,,fam,0.6397122000053059,0.6397122000053059,270.0000000000009,2.6315641999972286,2.6315641999972286,,,,,,,,,,,,,,,,,,,,,,,,,,,,,,,,,,,,marika_expectedh2,001,2023-04-28_16h29.23.427,expectation_shapes_perceived_time,2022.2.4,119.65300626534918,
,,,,,,,,,1,0,1,0,,,,,fam,0.4979340999998385,0.4979340999998385,270.0000000000009,2.48971929999243,2.48971929999243,,,,,,,,,,,,,,,,,,,,,,,,,,,,,,,,,,,,marika_expectedh2,001,2023-04-28_16h29.23.427,expectation_shapes_perceived_time,2022.2.4,119.65300626534918,
,,,,,,,,,2,0,2,0,,,,,fam,0.4984139000007417,0.4984139000007417,270.0000000000009,2.4905547999951523,2.4905547999951523,,,,,,,,,,,,,,,,,,,,,,,,,,,,,,,,,,,,marika_expectedh2,001,2023-04-28_16h29.23.427,expectation_shapes_perceived_time,2022.2.4,119.65300626534918,
,,,,,,,,,3,0,3,0,,,,,fam,0.4988063000055263,0.4988063000055263,270.0000000000009,2.490457099993364,2.490457099993364,,,,,,,,,,,,,,,,,,,,,,,,,,,,,,,,,,,,marika_expectedh2,001,2023-04-28_16h29.23.427,expectation_shapes_perceived_time,2022.2.4,119.65300626534918,
,,,,,,,,,4,0,4,0,,,,,fam,0.498042200008058,0.498042200008058,270.0000000000009,2.489736300005461,2.489736300005461,,,,,,,,,,,,,,,,,,,,,,,,,,,,,,,,,,,,marika_expectedh2,001,2023-04-28_16h29.23.427,expectation_shapes_perceived_time,2022.2.4,119.65300626534918,
,,,,,,,,,5,0,5,0,,,,,fam,0.498724700009916,0.498724700009916,270.0000000000009,2.4903783000045223,2.4903783000045223,,,,,,,,,,,,,,,,,,,,,,,,,,,,,,,,,,,,marika_expectedh2,001,2023-04-28_16h29.23.427,expectation_shapes_perceived_time,2022.2.4,119.65300626534918,
,,,,,,,,,6,0,6,0,,,,,fam,0.4987346999987494,0.4987346999987494,270.0000000000009,2.490372100000968,2.490372100000968,,,,,,,,,,,,,,,,,,,,,,,,,,,,,,,,,,,,marika_expectedh2,001,2023-04-28_16h29.23.427,expectation_shapes_perceived_time,2022.2.4,119.65300626534918,
,,,,,,,,,7,0,7,0,,,,,fam,0.4985828000062611,0.4985828000062611,270.0000000000009,2.4900752999965334,2.4900752999965334,,,,,,,,,,,,,,,,,,,,,,,,,,,,,,,,,,,,marika_expectedh2,001,2023-04-28_16h29.23.427,expectation_shapes_perceived_time,2022.2.4,119.65300626534918,
,,,,,,,,,8,0,8,0,,,,,fam,0.4982864000048721,0.4982864000048721,270.0000000000009,2.490116899993154,2.490116899993154,,,,,,,,,,,,,,,,,,,,,,,,,,,,,,,,,,,,marika_expectedh2,001,2023-04-28_16h29.23.427,expectation_shapes_perceived_time,2022.2.4,119.65300626534918,
,,,,,,,,,9,0,9,0,,,,,fam,0.4989841999922646,0.4989841999922646,270.0000000000009,2.4902277999935905,2.4902277999935905,,,,,,,,,,,,,,,,,,,,,,,,,,,,,,,,,,,,marika_expectedh2,001,2023-04-28_16h29.23.427,expectation_shapes_perceived_time,2022.2.4,119.65300626534918,
,,,,,,,,,10,0,10,0,,,,,fam,0.49868679999781307,0.49868679999781307,270.0000000000009,2.490304399994784,2.490304399994784,,,,,,,,,,,,,,,,,,,,,,,,,,,,,,,,,,,,marika_expectedh2,001,2023-04-28_16h29.23.427,expectation_shapes_perceived_time,2022.2.4,119.65300626534918,
,,,,,,,,,11,0,11,0,,,,,fam,0.497134700010065,0.497134700010065,270.0000000000009,2.4887455999996746,2.4887455999996746,,,,,,,,,,,,,,,,,,,,,,,,,,,,,,,,,,,,marika_expectedh2,001,2023-04-28_16h29.23.427,expectation_shapes_perceived_time,2022.2.4,119.65300626534918,
,,,,,,,,,12,0,12,0,,,,,fam,0.4987457999959588,0.4987457999959588,270.0000000000009,2.4906939999928,2.4906939999928,,,,,,,,,,,,,,,,,,,,,,,,,,,,,,,,,,,,marika_expectedh2,001,2023-04-28_16h29.23.427,expectation_shapes_perceived_time,2022.2.4,119.65300626534918,
,,,,,,,,,13,0,13,0,,,,,fam,0.49894059999496676,0.49894059999496676,270.0000000000009,2.4899369000049774,2.4899369000049774,,,,,,,,,,,,,,,,,,,,,,,,,,,,,,,,,,,,marika_expectedh2,001,2023-04-28_16h29.23.427,expectation_shapes_perceived_time,2022.2.4,119.65300626534918,
,,,,,,,,,14,0,14,0,,,,,fam,0.49831780001113657,0.49831780001113657,270.0000000000009,2.4902659000072163,2.4902659000072163,,,,,,,,,,,,,,,,,,,,,,,,,,,,,,,,,,,,marika_expectedh2,001,2023-04-28_16h29.23.427,expectation_shapes_perceived_time,2022.2.4,119.65300626534918,
,,,,,,,,,15,0,15,0,,,,,fam,0.4985113000002457,0.4985113000002457,270.0000000000009,2.4903095999907237,2.4903095999907237,,,,,,,,,,,,,,,,,,,,,,,,,,,,,,,,,,,,marika_expectedh2,001,2023-04-28_16h29.23.427,expectation_shapes_perceived_time,2022.2.4,119.65300626534918,
,,,,,,,,,16,0,16,0,,,,,fam,0.49814570001035463,0.49814570001035463,270.0000000000009,2.489817200010293,2.489817200010293,,,,,,,,,,,,,,,,,,,,,,,,,,,,,,,,,,,,marika_expectedh2,001,2023-04-28_16h29.23.427,expectation_shapes_perceived_time,2022.2.4,119.65300626534918,
,,,,,,,,,17,0,17,0,,,,,fam,0.4990737999905832,0.4990737999905832,270.0000000000009,2.4910702999914065,2.4910702999914065,,,,,,,,,,,,,,,,,,,,,,,,,,,,,,,,,,,,marika_expectedh2,001,2023-04-28_16h29.23.427,expectation_shapes_perceived_time,2022.2.4,119.65300626534918,
,,,,,,,,,18,0,18,0,,,,,fam,0.49827940000977833,0.49827940000977833,270.0000000000009,2.4898882000125013,2.4898882000125013,,,,,,,,,,,,,,,,,,,,,,,,,,,,,,,,,,,,marika_expectedh2,001,2023-04-28_16h29.23.427,expectation_shapes_perceived_time,2022.2.4,119.65300626534918,
,,,,,,,,,19,0,19,0,,,,,fam,0.4984385999996448,0.4984385999996448,270.0000000000009,2.4899308000021847,2.4899308000021847,,,,,,,,,,,,,,,,,,,,,,,,,,,,,,,,,,,,marika_expectedh2,001,2023-04-28_16h29.23.427,expectation_shapes_perceived_time,2022.2.4,119.65300626534918,
,,,,,,,,,,,,,0,0,0,0,test,,,,,,red,0.6375228844435017,0.6333333333333333,2.291369599988684,0.9987014999933308,1.3500000932253897e-05,1e-05,0.6335331999871414,0.6667906999937259,1.999945999996271,2.291369599988684,2.291369599988684,2.591350999995484,3.275084099994274,0.9837145000055898,9.158244599995669,6.866875000006985,5.883160500001395,0.72715,0.127399066752406,-0.1103089480417174,9.158244599995669,0.15303412598412797,-0.0705630392750224,space,6.566445300006308,,,,,,,,,,marika_expectedh2,001,2023-04-28_16h29.23.427,expectation_shapes_perceived_time,2022.2.4,119.65300626534918,
,,,,,,,,,,,,,1,0,1,0,test,,,,,,red,0.25162513066718833,0.25,2.291154699996696,0.9976780000142753,1.3700002455152571e-05,1e-05,0.2500365000014426,0.2834197000047425,1.9999853000044823,2.291154699996696,2.291154699996696,2.5914769999944838,2.4499078999942867,0.15875319999759085,6.116895999992266,3.8257412999955704,3.6669880999979796,0.17359,0.08741532632487262,0.14407340820210485,6.116895999992266,0.11976760636935542,0.11855086120315383,space,3.520729299998493,0.03315489999658894,2.0334210000000894,,,,,,,,marika_expectedh2,001,2023-04-28_16h29.23.427,expectation_shapes_perceived_time,2022.2.4,119.65300626534918,
,,,,,,,,,,,,,2,0,2,0,test,,,,,,red,0.7173649808020016,0.7166666666666667,2.291620000003604,0.9981009000039194,1.410000550094992e-05,1e-05,0.7171323000075063,0.7501029999984894,2.000068800000008,2.291620000003604,2.291620000003604,2.599956400008523,2.3498628999950597,0.05824289999145549,5.066855700002634,2.7752356999990297,2.7169928000075743,1.20667,-0.10188587764109998,-0.13423060070176662,5.066855700002634,0.13073073097200946,-0.10633937279755974,space,2.4670314000104554,0.03365009999834001,2.033245500002522,,,,,,,,marika_expectedh2,001,2023-04-28_16h29.23.427,expectation_shapes_perceived_time,2022.2.4,119.65300626534918,
,,,,,,,,,,,,,3,0,3,0,test,,,,,,red,0.24224078175748653,0.24166666666666667,2.291755500002182,0.9979178000066895,1.3800003216601908e-05,1e-05,0.2415642999985721,0.2748353000060888,2.0001420000044163,2.291755500002182,2.291755500002182,2.5919329000025755,2.291755500002182,0.0,4.8587961000012,2.567040599999018,2.567040599999018,0.09624,0.050180899782629816,0.16087406106784266,4.8587961000012,0.11622097385544065,0.12202979744122862,space,2.265482900009374,,,,,,,,,,marika_expectedh2,001,2023-04-28_16h29.23.427,expectation_shapes_perceived_time,2022.2.4,119.65300626534918,
,,,,,,,,,,,,,4,0,4,0,test,,,,,,green,1.8386311228261403,1.8333333333333333,2.2917580000066664,0.9982356000109576,2.370000584051013e-05,2e-05,1.8337269000039669,1.8670379999966826,2.000245100003667,2.2917580000066664,2.2917580000066664,2.5916729000018677,2.858212999999523,0.5664549999928568,6.691969400009839,4.4002114000031725,3.8337564000103157,1.31405,-0.1405725561800007,-0.0929405330115707,6.691969400009839,-0.08181886474337038,0.14732365594011154,space,4.094521300008637,,,,,,,,,,marika_expectedh2,001,2023-04-28_16h29.23.427,expectation_shapes_perceived_time,2022.2.4,119.65300626534918,
,,,,,,,,,,,,,5,0,5,0,test,,,,,,green,1.4136571577982604,1.4083333333333332,2.2915867999981856,0.998166699995636,1.3600001693703234e-05,1e-05,1.4084040000016103,1.4418961000046693,1.9997881000017514,2.2915867999981856,2.2915867999981856,2.591729599997052,2.6002880000014557,0.30870120000327006,4.250063600004069,1.958476800005883,1.649775600002613,1.51082,-0.1684214034792066,0.0057286191659594084,4.250063600004069,-0.16235701990583945,-0.04515289929505247,space,1.6512137000099756,,,,,,,,,,marika_expectedh2,001,2023-04-28_16h29.23.427,expectation_shapes_perceived_time,2022.2.4,119.65300626534918,
,,,,,,,,,,,,,6,0,6,0,test,,,,,,red,0.9004611125772874,0.9,2.291990199999418,0.9981266999966465,1.2300006346777081e-05,1e-05,0.9002993000030983,0.9340070000034757,2.0007247000030475,2.291990199999418,2.291990199999418,2.5923421000043163,2.4340852000023006,0.14209500000288244,5.97546840000723,3.683478200007812,3.5413832000049297,0.93592,0.033697021432120874,-0.16511540501739227,5.97546840000723,0.05184294586345094,-0.16034617298723908,space,3.3761249000090174,,,,,,,,,,marika_expectedh2,001,2023-04-28_16h29.23.427,expectation_shapes_perceived_time,2022.2.4,119.65300626534918,
,,,,,,,,,,,,,7,0,7,0,test,,,,,,red,0.3573798612569851,0.35833333333333334,2.2913543000031495,0.9986346000077901,3.0100010917522013e-05,3e-05,0.35813920000509825,0.3912581000040518,2.0000735000066925,2.2913543000031495,2.2913543000031495,2.591469600010896,2.2913543000031495,0.0,3.9250761000002967,1.6337217999971472,1.6337217999971472,0.28657,0.13203408931994332,0.1047166915296102,3.9250761000002967,0.15188459227277468,0.07300449888594063,space,1.3295696000132011,0.03317110000352841,2.0334164000087185,,,,,,,,marika_expectedh2,001,2023-04-28_16h29.23.427,expectation_shapes_perceived_time,2022.2.4,119.65300626534918,
,,,,,,,,,,,,,8,0,8,0,test,,,,,,green,0.971985970561681,0.9666666666666667,2.2919628999952693,0.998154799992335,2.2899999748915434e-05,2e-05,0.9669881999870995,1.0003336999943713,2.0000042999890866,2.2919628999952693,2.2919628999952693,2.5920082999946317,2.2919628999952693,0.0,4.3085943999903975,2.0166314999951283,2.0166314999951283,1.00263,-0.0013926698022923695,-0.16851304607737672,4.3085943999903975,0.014811976990124851,-0.16786658859075657,space,1.716738000017358,,,,,,,,,,marika_expectedh2,001,2023-04-28_16h29.23.427,expectation_shapes_perceived_time,2022.2.4,119.65300626534918,
,,,,,,,,,,,,,9,0,9,0,test,,,,,,red,1.2463167600258125,1.2416666666666667,2.291781499996432,0.9977333999995608,4.050000279676169e-05,4e-05,1.2418958000052953,1.2755015000002459,2.0004263000009814,2.291781499996432,2.291781499996432,2.5919964000058826,2.474918100007926,0.183136600011494,11.250170900006196,8.958389400009764,8.77525279999827,1.26849,-0.1258761753389382,-0.11204362859839552,11.250170900006196,-0.11777400221770924,-0.12053161671975252,space,8.655901800011634,,,,,,,,,,marika_expectedh2,001,2023-04-28_16h29.23.427,expectation_shapes_perceived_time,2022.2.4,119.65300626534918,
,,,,,,,,,,,,,10,0,10,0,test,,,,,,green,1.4172171945869434,1.4166666666666667,2.2916641000047093,0.998198900007992,2.0699997548945248e-05,2e-05,1.417015300001367,1.4501848000072641,1.9996748999983538,2.2916641000047093,2.2916641000047093,2.591685300008976,2.2916641000047093,0.0,10.85016529999848,8.55850119999377,8.55850119999377,1.43451,-0.16496466233761697,-0.03442740779219833,10.85016529999848,-0.16285185358637821,-0.04333428216706885,space,8.25409450000734,,,,,,,,,,marika_expectedh2,001,2023-04-28_16h29.23.427,expectation_shapes_perceived_time,2022.2.4,119.65300626534918,
,,,,,,,,,,,,,11,0,11,0,test,,,,,,green,0.3560117057561647,0.35833333333333334,2.291994999992312,0.9983671999943908,1.3800003216601908e-05,1e-05,0.35808380000526085,0.391775800002506,2.0003444000030868,2.291994999992312,2.291994999992312,2.5916457999992417,2.291994999992312,0.0,4.45036170000094,2.158366700008628,2.158366700008628,0.25328,0.1203828514838167,0.11792605859639185,4.45036170000094,0.15156940324391147,0.07365665094028423,space,1.8524950000137324,,,,,,,,,,marika_expectedh2,001,2023-04-28_16h29.23.427,expectation_shapes_perceived_time,2022.2.4,119.65300626534918,
,,,,,,,,,,,,,12,0,12,0,test,,,,,,red,1.4809116699746654,1.475,2.2921759000018938,0.9974478999938583,1.2799995602108538e-05,1e-05,1.4752229000005173,1.5087346999935107,2.000392000001739,2.2921759000018938,2.2921759000018938,2.5922716000059154,2.2921759000018938,0.0,4.275633500001277,1.983457599999383,1.983457599999383,1.39526,-0.15947774289414135,-0.05445581464677997,4.275633500001277,-0.16821588368706097,-0.010099638747771148,space,1.6829477000137558,,,,,,,,,,marika_expectedh2,001,2023-04-28_16h29.23.427,expectation_shapes_perceived_time,2022.2.4,119.65300626534918,
,,,,,,,,,,,,,13,0,13,0,test,,,,,,green,1.7077843660823293,1.7,2.2916420999972615,0.9983240000001388,2.7999994927085936e-05,3e-05,1.700305100006517,1.7332505999947898,1.9999340000067605,2.2916420999972615,2.2916420999972615,2.5916235000040615,2.3748551000026055,0.08321300000534393,4.29155670000182,1.9999146000045585,1.9167015999992145,1.7273,-0.12734781801922207,0.11036810894999245,4.29155670000182,-0.13387168066767127,0.1023570190200328,space,1.6961240000091493,0.033261100004892796,2.0333231999975396,,,,,,,,marika_expectedh2,001,2023-04-28_16h29.23.427,expectation_shapes_perceived_time,2022.2.4,119.65300626534918,
,,,,,,,,,,,,,14,0,14,0,test,,,,,,red,0.9633715907285231,0.9583333333333334,2.291686500000651,0.9985907999944175,2.0399995264597237e-05,2e-05,0.9583746999996947,0.9914834999945015,2.0000651000009384,2.291686500000651,2.291686500000651,2.591620699997293,2.291686500000651,0.0,4.000071599992225,1.708385099991574,1.708385099991574,1.08475,-0.04434022969711581,-0.16258084222275798,4.000071599992225,0.019348950727240913,-0.16740431396236213,space,1.4042892000143183,0.033332199993310496,2.0332225000020117,,,,,,,,marika_expectedh2,001,2023-04-28_16h29.23.427,expectation_shapes_perceived_time,2022.2.4,119.65300626534918,
,,,,,,,,,,,,,15,0,15,0,test,,,,,,red,1.4269007548906147,1.425,2.291690199999721,0.9982139999920037,2.2599997464567423e-05,2e-05,1.4254449000000022,1.458731099992292,2.0004227999888826,2.291690199999721,2.291690199999721,2.5914817999873776,2.291690199999721,0.0,3.7500492999970447,1.458359099997324,1.458359099997324,1.27466,-0.12802556652555608,-0.10958120524645054,3.7500492999970447,-0.16409460445194868,-0.03836074839224081,space,1.1567391000135103,0.033313099993392825,2.0333905999868875,,,,,,,,marika_expectedh2,001,2023-04-28_16h29.23.427,expectation_shapes_perceived_time,2022.2.4,119.65300626534918,
,,,,,,,,,,,,,16,0,16,0,test,,,,,,green,0.9532409392827734,0.95,2.2915015000035055,0.9985198000067612,2.78999941656366e-05,3e-05,0.9498794999963138,0.9834853999927873,2.000205200005439,2.2915015000035055,2.2915015000035055,2.5915692999988096,2.2915015000035055,0.0,4.299661900004139,2.0081604000006337,2.0081604000006337,1.02575,-0.013618993291116993,-0.16796758392377625,4.299661900004139,0.02466612603115588,-0.16670383455118673,space,1.702179400002933,0.03332760000193957,2.0330660000036005,,,,,,,,marika_expectedh2,001,2023-04-28_16h29.23.427,expectation_shapes_perceived_time,2022.2.4,119.65300626534918,
,,,,,,,,,,,,,17,0,17,0,test,,,,,,green,1.1566574313058708,1.15,2.291878900010488,0.9986959999951068,2.2599997464567423e-05,2e-05,1.1505253000068478,1.183506400004262,2.0004965999978594,2.291878900010488,2.291878900010488,2.591898900005617,2.291878900010488,0.0,4.241462899997714,1.949583999987226,1.949583999987226,1.00297,-0.0015748732874086694,-0.16851144175272761,4.241462899997714,-0.07962937917480514,-0.14851851130310129,space,1.6415754000190645,0.033806699997512624,2.0333585000043968,,,,,,,,marika_expectedh2,001,2023-04-28_16h29.23.427,expectation_shapes_perceived_time,2022.2.4,119.65300626534918,
,,,,,,,,,,,,,18,0,18,0,test,,,,,,green,1.4290735827375973,1.425,2.2916188999952283,0.9990672999992967,1.750000228639692e-05,2e-05,1.4249716000049375,1.458313700000872,2.0000215000036405,2.2916188999952283,2.2916188999952283,2.591850800003158,2.2916188999952283,0.0,3.9912704000016674,1.6996515000064392,1.6996515000064392,1.53986,-0.16719942783176817,0.02104608182497781,3.9912704000016674,-0.16435263518084559,-0.03723973061887241,space,1.391445900022518,0.03315640000801068,2.0331674000044586,,,,,,,,marika_expectedh2,001,2023-04-28_16h29.23.427,expectation_shapes_perceived_time,2022.2.4,119.65300626534918,
,,,,,,,,,,,,,19,0,19,0,test,,,,,,green,1.2458242109890945,1.2416666666666667,2.2912359000038123,0.9990247999958228,1.2699994840659201e-05,1e-05,1.241163400001824,1.2747658000007505,1.9996629999950528,2.2912359000038123,2.2912359000038123,2.5913392000074964,2.2912359000038123,0.0,4.5829029000015,2.2916669999976875,2.2916669999976875,1.06379,-0.03354533973129662,-0.1651462879079218,4.5829029000015,-0.11758735206268738,-0.12071371447495069,space,1.9918214000063017,,,,,,,,,,marika_expectedh2,001,2023-04-28_16h29.23.427,expectation_shapes_perceived_time,2022.2.4,119.65300626534918,
,,,,,,,,,,,,,20,0,20,0,test,,,,,,red,0.538317719662861,0.5333333333333333,2.2917049000097904,0.9979301999992458,1.4000004739500582e-05,1e-05,0.5334617000044091,0.5665910000097938,2.0000614000018686,2.2917049000097904,2.2917049000097904,2.591582799999742,2.2917049000097904,0.0,3.8167683000065153,1.525063399996725,1.525063399996725,0.26987,0.1263617761903232,0.1114956848738146,3.8167683000065153,0.16729926962803207,-0.020237109709178604,space,1.224721300008241,0.03362400000332855,2.033175200005644,,,,,,,,marika_expectedh2,001,2023-04-28_16h29.23.427,expectation_shapes_perceived_time,2022.2.4,119.65300626534918,
,,,,,,,,,,,,,21,0,21,0,test,,,,,,red,1.732219873920636,1.7249999999999999,2.291870699991705,0.9983330999966711,1.3999990187585354e-05,1e-05,1.7252033999975538,1.7582054999948014,2.0001548000000184,2.291870699991705,2.291870699991705,2.591497299988987,2.349873299986939,0.05800259999523405,4.500424199999543,2.208553500007838,2.150550900012604,1.66699,-0.14585476217620716,0.08440956449346457,4.500424199999543,-0.12562755015236687,0.11232232578685704,space,1.905078700001468,,,,,,,,,,marika_expectedh2,001,2023-04-28_16h29.23.427,expectation_shapes_perceived_time,2022.2.4,119.65300626534918,
,,,,,,,,,,,,,22,0,22,0,test,,,,,,red,1.6356231530046659,1.6333333333333333,2.2917140999925323,0.995224699989194,1.3700002455152571e-05,1e-05,1.6336385000031441,1.6666548999928636,1.999930599995423,2.2917140999925323,2.2917140999925323,2.5919140999903902,2.3503714999969816,0.0586574000044493,4.008418500001426,1.7167044000088936,1.6580470000044443,1.42069,-0.1633152930595701,-0.04155359527551192,4.008418500001426,-0.15345253109985113,0.06964845243437594,space,1.4118547000107355,,,,,,,,,,marika_expectedh2,001,2023-04-28_16h29.23.427,expectation_shapes_perceived_time,2022.2.4,119.65300626534918,
,,,,,,,,,,,,,23,0,23,0,test,,,,,,green,0.5374340423733784,0.5333333333333333,2.291338499999256,0.9983661000005668,1.3899989426136017e-05,1e-05,0.533566999991308,0.5667515999957686,2.000376399999368,2.291338499999256,2.291338499999256,2.5918788999988465,2.291338499999256,0.0,4.375525800001924,2.084187300002668,2.084187300002668,0.374,0.1554870690177056,0.06497967063426502,4.375525800001924,0.16735480620061446,-0.019772583771704485,space,1.7790783000091324,0.03366289999394212,2.0333316000032937,,,,,,,,marika_expectedh2,001,2023-04-28_16h29.23.427,expectation_shapes_perceived_time,2022.2.4,119.65300626534918,
,,,,,,,,,,,,,24,0,24,0,test,,,,,,green,1.0947667033739958,1.0916666666666666,2.291564799990738,0.9980484000116121,1.4199991710484028e-05,1e-05,1.091761999996379,1.1250570999982301,2.000123399993754,2.291564799990738,2.291564799990738,2.5912576999980956,2.291564799990738,0.0,3.9000032999902032,1.6084384999994654,1.6084384999994654,1.02558,-0.01352818166333844,-0.16797492231978564,3.9000032999902032,-0.04943325846329606,-0.1611053667174228,space,1.302332600011141,0.03332010000303853,2.033631400001468,,,,,,,,marika_expectedh2,001,2023-04-28_16h29.23.427,expectation_shapes_perceived_time,2022.2.4,119.65300626534918,
,,,,,,,,,,,,,25,0,25,0,test,,,,,,red,1.273822762880369,1.2666666666666666,2.291730800003279,0.9983326999936253,1.3500000932253897e-05,1e-05,1.2669915000005858,1.3000834999984363,2.0000880000006873,2.291730800003279,2.291730800003279,2.5916603000077885,2.291730800003279,0.0,3.8252400000055786,1.5335092000022996,1.5335092000022996,1.01136,-0.006014693921132641,-0.16841142979171395,3.8252400000055786,-0.12773705760324455,-0.10991737961905608,space,1.2324155000096653,0.03368680000130553,2.0335684000019683,,,,,,,,marika_expectedh2,001,2023-04-28_16h29.23.427,expectation_shapes_perceived_time,2022.2.4,119.65300626534918,
,,,,,,,,,,,,,26,0,26,0,test,,,,,,red,0.45066414556550044,0.45,2.2916580000019167,0.9980916000058642,1.990000600926578e-05,2e-05,0.45016550000582356,0.48348860000260174,2.00048770000285,2.2916580000019167,2.2916580000019167,2.5921331999998074,2.2916580000019167,0.0,4.124938000008115,1.833280000006198,1.833280000006198,0.45414,0.1667728602824387,0.02419502636221909,4.124938000008115,0.1664986963566289,0.02601480999349014,space,1.5268853000015952,0.03338619999703951,,,,,,,,,marika_expectedh2,001,2023-04-28_16h29.23.427,expectation_shapes_perceived_time,2022.2.4,119.65300626534918,
,,,,,,,,,,,,,27,0,27,0,test,,,,,,green,1.4695959385981567,1.4666666666666666,2.2916965000040364,0.9982733999931952,1.3700002455152571e-05,1e-05,1.467034799992689,1.4998979999945732,2.000075200005085,2.2916965000040364,2.2916965000040364,2.591744099991047,2.2916965000040364,0.0,3.841801899994607,1.5501053999905707,1.5501053999905707,1.5584,-0.1656901658230174,0.030746628709425912,3.841801899994607,-0.1677506418631745,-0.01607197504811649,space,1.2428388000116684,0.033342900002026,2.033478900004411,,,,,,,,marika_expectedh2,001,2023-04-28_16h29.23.427,expectation_shapes_perceived_time,2022.2.4,119.65300626534918,
,,,,,,,,,,,,,28,0,28,0,test,,,,,,red,1.3313917917013163,1.325,2.2916093000094406,0.9985490999970352,1.4200006262399256e-05,1e-05,1.3252217000117525,1.3579140000074403,1.9998150000028545,2.2916093000094406,2.2916093000094406,2.5915918000100646,2.2916093000094406,0.0,3.86669830000028,1.5750889999908395,1.5750889999908395,1.38312,-0.1572862823014297,-0.06049472396208835,3.86669830000028,-0.14542490790034746,-0.08514800285168035,space,1.2738166000053752,0.03317420001258142,2.0333055000082823,,,,,,,,marika_expectedh2,001,2023-04-28_16h29.23.427,expectation_shapes_perceived_time,2022.2.4,119.65300626534918,
,,,,,,,,,,,,,29,0,29,0,test,,,,,,red,0.32913942502678684,0.325,2.2918881999939913,0.9980604999873322,1.3600001693703234e-05,1e-05,0.32503529998939484,0.35843219999514986,2.0004330999945523,2.2918881999939913,2.2918881999939913,2.5914804999920307,2.2918881999939913,0.0,3.916584699996747,1.6246965000027558,1.6246965000027558,0.43774,0.1653059878266516,0.03274929947509135,3.916584699996747,0.14481876337629468,0.08617489194431908,space,1.3187378000147874,,2.0336367999989307,,,,,,,,marika_expectedh2,001,2023-04-28_16h29.23.427,expectation_shapes_perceived_time,2022.2.4,119.65300626534918,
,,,,,,,,,,,,,30,0,30,0,test,,,,,,red,1.4504606516301208,1.45,2.291674399995827,0.9976951999997254,5.259999306872487e-05,5e-05,1.450244899999234,1.4838562999939313,2.000116099996376,2.291674399995827,2.291674399995827,2.5919401999999536,2.291674399995827,0.0,4.0001545999984955,1.7084802000026684,1.7084802000026684,1.51201,-0.16839894389826254,0.006354677128236323,4.0001545999984955,-0.1664820311945882,-0.026121246462955616,space,1.4010846000164747,0.033219199991435744,2.0333599999867147,,,,,,,,marika_expectedh2,001,2023-04-28_16h29.23.427,expectation_shapes_perceived_time,2022.2.4,119.65300626534918,
,,,,,,,,,,,,,31,0,31,0,test,,,,,,red,0.723433474754192,0.725,2.291788300004555,0.9985930999973789,1.3500000932253897e-05,1e-05,0.7247891000006348,0.7583258000086062,1.9997431000083452,2.291788300004555,2.291788300004555,2.5917771000094945,2.291788300004555,0.0,4.124989300005836,1.8332010000012815,1.8332010000012815,0.90856,0.047749151899246146,-0.1616125141205254,4.124989300005836,0.12867976446140272,-0.10881224400595838,space,1.5300011000072118,0.033081800007494166,,,,,,,,,marika_expectedh2,001,2023-04-28_16h29.23.427,expectation_shapes_perceived_time,2022.2.4,119.65300626534918,
,,,,,,,,,,,,,32,0,32,0,test,,,,,,green,1.426127108849274,1.425,2.291319600000861,0.9985268999880645,1.340000017080456e-05,1e-05,1.4246764999988955,1.458260599989444,1.9996395999914967,2.291319600000861,2.291319600000861,2.591435399997863,2.2998240000015358,0.00850440000067465,4.174938899988774,1.883619299987913,1.8751148999872385,1.52467,-0.16801278469217454,0.013049536675120352,4.174938899988774,-0.1640008848117896,-0.03875946346899596,space,1.5805826000141678,0.03321999999752734,2.0333333000016864,,,,,,,,marika_expectedh2,001,2023-04-28_16h29.23.427,expectation_shapes_perceived_time,2022.2.4,119.65300626534918,
,,,,,,,,,,,,,33,0,33,0,test,,,,,,green,0.9644116110473323,0.9583333333333334,2.291825599997537,0.9979408999934094,1.4199991710484028e-05,1e-05,0.9581575999909546,0.9914840999990702,2.0001249999913853,2.291825599997537,2.291825599997537,2.5913005999900633,2.291825599997537,0.0,4.625240999987,2.3334153999894625,2.3334153999894625,0.99874,0.0006660770136775291,-0.16851748446041484,4.625240999987,0.018801884926362873,-0.16746663951566626,space,2.030999900001916,0.03308299998752773,2.033173199990415,,,,,,,,marika_expectedh2,001,2023-04-28_16h29.23.427,expectation_shapes_perceived_time,2022.2.4,119.65300626534918,
,,,,,,,,,,,,,34,0,34,0,test,,,,,,green,1.4947741843887208,1.4916666666666667,2.2913907999900403,0.9980928000004496,1.3899989426136017e-05,1e-05,1.4917663999949582,1.5251859999989392,1.999972899997374,2.2913907999900403,2.2913907999900403,2.5918330999993486,2.2913907999900403,0.0,4.149983999988763,1.8585931999987224,1.8585931999987224,1.63948,-0.15259732463203068,0.07150274639900867,4.149983999988763,-0.1684960908451825,-0.002766513572407926,space,1.5569137000129558,0.03329019999364391,2.033690399999614,,,,,,,,marika_expectedh2,001,2023-04-28_16h29.23.427,expectation_shapes_perceived_time,2022.2.4,119.65300626534918,
,,,,,,,,,,,,,35,0,35,0,test,,,,,,red,0.571556988482713,0.5666666666666667,2.2910916000109864,0.9986407999967923,1.4600009308196604e-05,1e-05,0.5662022000033176,0.5996379999996861,1.999621399998432,2.2910916000109864,2.2910916000109864,2.5946636000007857,2.299324500010698,0.008232899999711663,3.933300800010329,1.6422091999993427,1.633976299999631,0.44767,0.16624658051212574,0.02758007787297938,3.933300800010329,0.1642785409116981,-0.037565239562364405,space,1.3314685000077588,0.03299649999826215,2.0332824000070104,,,,,,,,marika_expectedh2,001,2023-04-28_16h29.23.427,expectation_shapes_perceived_time,2022.2.4,119.65300626534918,
,,,,,,,,,,,,,36,0,36,0,test,,,,,,red,1.6269551064219878,1.625,2.290992499998538,0.9984781999955885,1.3600001693703234e-05,1e-05,1.6249903999996604,1.6581833999953233,1.9995333999977447,2.290992499998538,2.290992499998538,2.5914474000019254,2.290992499998538,0.0,4.266830599997775,1.9758380999992369,1.9758380999992369,1.80303,-0.09775272047602593,0.13726977768973853,4.266830599997775,-0.15529203346556963,0.06544440823769972,space,1.674251100004767,0.03323679999448359,2.033053499995731,,,,,,,,marika_expectedh2,001,2023-04-28_16h29.23.427,expectation_shapes_perceived_time,2022.2.4,119.65300626534918,
,,,,,,,,,,,,,37,0,37,0,test,,,,,,green,1.4993096718853465,1.4916666666666667,2.291841900005238,0.9979433000116842,1.3700002455152571e-05,1e-05,1.4916842999955406,1.525091400006204,1.9997430999937933,2.291841900005238,2.291841900005238,2.59180870000273,2.291841900005238,0.0,4.700248599998304,2.4084066999930656,2.4084066999930656,1.53173,-0.16768247405853243,0.016768247405853243,4.700248599998304,-0.16851840450845532,-0.00036547144749490184,space,2.1023238000198035,0.033767899993108585,2.033110200005467,,,,,,,,marika_expectedh2,001,2023-04-28_16h29.23.427,expectation_shapes_perceived_time,2022.2.4,119.65300626534918,
,,,,,,,,,,,,,38,0,38,0,test,,,,,,green,0.7289078510291486,0.725,2.2919991000089794,0.9982195999909891,1.5099998563528061e-05,2e-05,0.7249979000043822,0.7584575000073528,2.000291600008495,2.2919991000089794,2.2919991000089794,2.5918088000034913,2.2919991000089794,0.0,4.691858000005595,2.399858899996616,2.399858899996616,0.88221,0.06094826798811365,-0.15711109081380406,4.691858000005595,0.12678944542656956,-0.11100911113902875,space,2.099483500016504,0.033428499998990446,2.033933099999558,,,,,,,,marika_expectedh2,001,2023-04-28_16h29.23.427,expectation_shapes_perceived_time,2022.2.4,119.65300626534918,
,,,,,,,,,,,,,39,0,39,0,test,,,,,,red,1.5932370861076073,1.5916666666666666,2.29182139999466,0.9985110999987228,1.3599987141788006e-05,1e-05,1.591527299999143,1.6247052999970037,2.0001540999946883,2.29182139999466,2.29182139999466,2.59186509999563,2.6498554999998305,0.35803410000517033,5.033553499990376,2.7417320999957155,2.383697999990545,1.68717,-0.14021611781792387,0.09347741187861591,5.033553499990376,-0.16134105394720752,0.04865850941673591,space,2.438899200002197,0.033387999996193685,2.033577999987756,,,,,,,,marika_expectedh2,001,2023-04-28_16h29.23.427,expectation_shapes_perceived_time,2022.2.4,119.65300626534918,
,,,,,,,,,0,0,0,0,,,,,fam,0.5487600999913411,0.5487600999913411,270.0000000000009,2.5409535999933723,2.5409535999933723,,,,,,,,,,,,,,,,,,,,,,,,,,,,,,,,,,,,marika_expectedh2,001,2023-04-28_16h29.23.427,expectation_shapes_perceived_time,2022.2.4,119.65300626534918,
,,,,,,,,,1,0,1,0,,,,,fam,0.498337500001071,0.498337500001071,270.0000000000009,2.4899363000004087,2.4899363000004087,,,,,,,,,,,,,,,,,,,,,,,,,,,,,,,,,,,,marika_expectedh2,001,2023-04-28_16h29.23.427,expectation_shapes_perceived_time,2022.2.4,119.65300626534918,
,,,,,,,,,2,0,2,0,,,,,fam,0.49853660000371747,0.49853660000371747,270.0000000000009,2.489816899993457,2.489816899993457,,,,,,,,,,,,,,,,,,,,,,,,,,,,,,,,,,,,marika_expectedh2,001,2023-04-28_16h29.23.427,expectation_shapes_perceived_time,2022.2.4,119.65300626534918,
,,,,,,,,,3,0,3,0,,,,,fam,0.4967520000063814,0.4967520000063814,270.0000000000009,2.488546900000074,2.488546900000074,,,,,,,,,,,,,,,,,,,,,,,,,,,,,,,,,,,,marika_expectedh2,001,2023-04-28_16h29.23.427,expectation_shapes_perceived_time,2022.2.4,119.65300626534918,
,,,,,,,,,4,0,4,0,,,,,fam,0.4987136999989161,0.4987136999989161,270.0000000000009,2.490410600003088,2.490410600003088,,,,,,,,,,,,,,,,,,,,,,,,,,,,,,,,,,,,marika_expectedh2,001,2023-04-28_16h29.23.427,expectation_shapes_perceived_time,2022.2.4,119.65300626534918,
,,,,,,,,,,,,,0,0,0,0,testSingleStim,,,,,,red,0.5136551840624232,0.5083333333333333,0.029645499991602264,0.9985578999912832,1.379998866468668e-05,1e-05,0.5088199999881908,0.5417144999955781,1.9997268999868538,2.291789799986873,2.291789799986873,2.5914813999988837,2.500075999996625,0.20828620000975206,3.5000361999991583,1.2082464000122854,0.9999602000025334,0.22192,0.10820047412250329,0.12919459596716812,,,,None,,0.033643699993263,2.033244199992623,,,,,,,,marika_expectedh2,001,2023-04-28_16h29.23.427,expectation_shapes_perceived_time,2022.2.4,119.65300626534918,
,,,,,,,,,,,,,1,0,1,0,testSingleStim,,,,,,green,1.3035342434158468,1.3,0.0025233999913325533,0.9975184999930207,5.110001075081527e-05,5e-05,1.3000809000077425,1.3334189000015613,2.000054700009059,2.2916686000098707,2.2916686000098707,2.5911158000089927,2.2916686000098707,0.0,3.291145700000925,0.9994770999910543,0.9994770999910543,1.52534,-0.16798495275193015,0.01340305474084549,,,,None,,0.033119100000476465,2.0331574000010733,,,,,,,,marika_expectedh2,001,2023-04-28_16h29.23.427,expectation_shapes_perceived_time,2022.2.4,119.65300626534918,
,,,,,,,,,,,,,2,0,2,0,testSingleStim,,,,,,red,1.3801873392956565,1.375,0.002220599999418482,0.9976247000013245,2.78999941656366e-05,3e-05,1.3750225999974646,1.4081121000053827,2.0000417999981437,2.291606500002672,2.291606500002672,2.591512800005148,2.650028999996721,0.35842249999404885,3.766943099995842,1.4753365999931702,1.1169140999991214,1.52801,-0.16786660778031884,0.014811759510028133,,,,None,,0.03329950000625104,,,,,,,,,marika_expectedh2,001,2023-04-28_16h29.23.427,expectation_shapes_perceived_time,2022.2.4,119.65300626534918,
,,,,,,,,,,,,,3,0,3,0,testSingleStim,,,,,,green,0.6657988420496194,0.6666666666666666,0.002381799989962019,0.9977524999994785,1.4300007023848593e-05,1e-05,0.6664005000056932,0.6997820999968098,1.9997640999936266,2.2912063999974634,2.2912063999974634,2.5913376999960747,2.2912063999974634,0.0,3.407773700004327,1.1165673000068637,1.1165673000068637,0.90895,0.047550330548870756,-0.1616711238661606,,,,None,,0.0330991999944672,2.0335001000057673,,,,,,,,marika_expectedh2,001,2023-04-28_16h29.23.427,expectation_shapes_perceived_time,2022.2.4,119.65300626534918,
,,,,,,,,,,,,,4,0,4,0,testSingleStim,,,,,,red,1.3778477770377016,1.375,0.0026076000067405403,0.9990061999997124,1.3800003216601908e-05,1e-05,1.374760899998364,1.4081528999959119,1.9997148999973433,2.291306799990707,2.291306799990707,2.5916446999908658,2.449572600002284,0.15826580001157708,3.5165144999918994,1.2252077000011923,1.0669418999896152,1.56844,-0.1646383553118727,0.03595550288420209,,,,None,,0.032896799995796755,2.033203599989065,,,,,,,,marika_expectedh2,001,2023-04-28_16h29.23.427,expectation_shapes_perceived_time,2022.2.4,119.65300626534918,
,,,,,,,,,,,,,5,0,5,0,testSingleStim,,,,,,green,0.5278969262228965,0.525,0.002238100001704879,0.9979392999957781,2.300000051036477e-05,2e-05,0.5250439999945229,0.5585968999948818,2.000171899999259,2.2918136999942362,2.2918136999942362,2.5916096000000834,2.4580869999917923,0.16627329999755602,3.2832227000035346,0.9914090000092983,0.8251357000117423,0.39639,0.15967026263450693,0.05388871363914609,,,,None,,,,,,,,,,,marika_expectedh2,001,2023-04-28_16h29.23.427,expectation_shapes_perceived_time,2022.2.4,119.65300626534918,
,,,,,,,,,,,,,6,0,6,0,testSingleStim,,,,,,red,0.5662235149300404,0.5666666666666667,0.0023686999920755625,0.9982255999930203,1.4200006262399256e-05,1e-05,0.5665924000059022,0.6000133000052301,2.0001466999965487,2.2915291999961482,2.2915291999961482,2.591828300006455,2.2915291999961482,0.0,3.258371200005058,0.96684200000891,0.96684200000891,0.2574,0.12189900886051572,0.11635814482140136,,,,None,,0.0334389000054216,2.033392700002878,,,,,,,,marika_expectedh2,001,2023-04-28_16h29.23.427,expectation_shapes_perceived_time,2022.2.4,119.65300626534918,
,,,,,,,,,,,,,7,0,7,0,testSingleStim,,,,,,green,1.2877863255515618,1.2833333333333332,0.0026781999913509935,0.9983025999972597,1.3700002455152571e-05,1e-05,1.283462799998233,1.3170255000004545,2.000224599993089,2.291849100001855,2.291849100001855,2.591678700002376,2.291849100001855,0.0,3.2999915999971563,1.0081424999953015,1.0081424999953015,1.10129,-0.052725079653926976,-0.16005827752084978,,,,None,,,,,,,,,,,marika_expectedh2,001,2023-04-28_16h29.23.427,expectation_shapes_perceived_time,2022.2.4,119.65300626534918,
,,,,,,,,,,,,,8,0,8,0,testSingleStim,,,,,,red,0.6839809226062484,0.6833333333333333,0.003236100004869513,0.9982013999979245,1.3699987903237343e-05,1e-05,0.6829606999963289,0.716200700000627,1.999786199987284,2.2912986999872373,2.2912986999872373,2.5917329999938374,2.2912986999872373,0.0,3.5745045999938156,1.2832059000065783,1.2832059000065783,0.66238,0.1470635123948792,-0.0822855366971348,,,,None,,0.033207299988134764,,,,,,,,,marika_expectedh2,001,2023-04-28_16h29.23.427,expectation_shapes_perceived_time,2022.2.4,119.65300626534918,
,,,,,,,,,,,,,9,0,9,0,testSingleStim,,,,,,red,1.0480352838686566,1.0416666666666667,0.0022424999915529042,0.9980063999973936,1.4300007023848593e-05,1e-05,1.0415309000090929,1.0751221999962581,2.000053099996876,2.291269499997725,2.291269499997725,2.5920788000075845,2.291269499997725,0.0,4.141976800005068,1.8507073000073433,1.8507073000073433,1.0,0.0,-0.16851880081300813,,,,None,,0.03342279999924358,2.0333721000060905,,,,,,,,marika_expectedh2,001,2023-04-28_16h29.23.427,expectation_shapes_perceived_time,2022.2.4,119.65300626534918,
,,,,,,,,,,,,,10,0,10,0,testSingleStim,,,,,,green,0.22546601556902282,0.225,0.0023295999999390915,0.9973664999997709,1.4299992471933365e-05,1e-05,0.22487809999438468,0.25853589999314863,1.9999662999907741,2.2918417999899248,2.2918417999899248,2.592196099998546,2.2918417999899248,0.0,3.4169064999878174,1.1250646999978926,1.1250646999978926,0.12888,0.06638280781366264,0.15489321823187946,,,,None,,0.033603699994273484,2.0332380999898305,,,,,,,,marika_expectedh2,001,2023-04-28_16h29.23.427,expectation_shapes_perceived_time,2022.2.4,119.65300626534918,
,,,,,,,,,,,,,11,0,11,0,testSingleStim,,,,,,green,0.7090395326249537,0.7083333333333334,0.0022357999987434596,0.997940600005677,1.5400000847876072e-05,2e-05,0.708184600007371,0.7415617000078782,2.0002995999966515,2.2916683000075864,2.2916683000075864,2.591263099995558,2.3001069000019925,0.008438599994406104,4.908140200001071,2.616471899993485,2.6080332999990787,1.0,0.0,-0.16851880081300813,,,,None,,0.03324309999879915,2.0335176999942632,,,,,,,,marika_expectedh2,001,2023-04-28_16h29.23.427,expectation_shapes_perceived_time,2022.2.4,119.65300626534918,
,,,,,,,,,,,,,12,0,12,0,testSingleStim,,,,,,green,0.48603330445119514,0.48333333333333334,0.0032405999954789877,0.9982062000053702,1.650000922381878e-05,2e-05,0.48308299999916926,0.5167123999999603,2.0005177999992156,2.29155819999869,2.29155819999869,2.5915420000092126,2.29155819999869,0.0,4.091538299995591,1.7999800999969011,1.7999800999969011,0.41178,0.1620874860377978,0.04611109516592524,,,,None,,0.03334700000414159,2.033674999998766,,,,,,,,marika_expectedh2,001,2023-04-28_16h29.23.427,expectation_shapes_perceived_time,2022.2.4,119.65300626534918,
,,,,,,,,,,,,,13,0,13,0,testSingleStim,,,,,,green,0.42250623589469344,0.425,0.0022529999987455085,0.9982807999913348,1.3700002455152571e-05,1e-05,0.4248914999916451,0.4582165000028908,2.0001013000000967,2.2913625999935903,2.2913625999935903,2.591551299992716,2.6999090000026627,0.4085464000090724,4.058364600001369,1.7670020000077784,1.358455599998706,0.34938,0.15000091438694535,0.07680046816611599,,,,None,,0.03294889999961015,2.033459300000686,,,,,,,,marika_expectedh2,001,2023-04-28_16h29.23.427,expectation_shapes_perceived_time,2022.2.4,119.65300626534918,
,,,,,,,,,,,,,14,0,14,0,testSingleStim,,,,,,red,1.8398200198812629,1.8333333333333333,0.0024873000074876472,0.9976935000013327,1.3500000932253897e-05,1e-05,1.8331656999944244,1.866503700002795,2.000265299997409,2.2919153999973787,2.2919153999973787,2.5917456000024686,2.3001355000014883,0.008220100004109554,4.183342599993921,1.8914271999965422,1.8832070999924326,1.81048,-0.09451345686216658,0.13951986489176973,,,,None,,0.03339149999374058,2.033526699990034,,,,,,,,marika_expectedh2,001,2023-04-28_16h29.23.427,expectation_shapes_perceived_time,2022.2.4,119.65300626534918,
,,,,,,,,,,,,,15,0,15,0,testSingleStim,,,,,,red,0.15741096404370605,0.15833333333333333,0.002716799994232133,0.9980581999989226,1.6599995433352888e-05,2e-05,0.15825609999592416,0.1917152999958489,2.000140400006785,2.2914706000010483,2.2914706000010483,2.5917379000020446,2.2914706000010483,0.0,3.966938500001561,1.6754679000005126,1.6754679000005126,0.19275,0.0959225830432813,0.1385548421736285,,,,None,,0.03328839999448974,2.0335195000079693,,,,,,,,marika_expectedh2,001,2023-04-28_16h29.23.427,expectation_shapes_perceived_time,2022.2.4,119.65300626534918,
,,,,,,,,,,,,,16,0,16,0,testSingleStim,,,,,,red,0.2747006040706963,0.275,0.002484199998434633,0.9977379000047222,1.2999997125007212e-05,1e-05,0.27512239999487065,0.3081946999882348,2.000243099988438,2.291588399995817,2.291588399995817,2.5916133999999147,2.291588399995817,0.0,3.7418179999949643,1.4502295999991475,1.4502295999991475,0.49293,0.16847720663717697,0.003743937925270599,,,,None,,0.033756199991330504,2.033144099987112,,,,,,,,marika_expectedh2,001,2023-04-28_16h29.23.427,expectation_shapes_perceived_time,2022.2.4,119.65300626534918,
,,,,,,,,,,,,,17,0,17,0,testSingleStim,,,,,,red,0.3742950202097118,0.375,0.002334399992832914,0.9981484000018099,1.4199991710484028e-05,1e-05,0.3746915999945486,0.40802099999564234,2.0000006999907782,2.291672599996673,2.291672599996673,2.5914988000004087,2.599749000000884,0.3080764000042109,3.7670466999989003,1.4753741000022274,1.1672976999980165,0.47675,0.16806948311002276,0.012297767056830933,,,,None,,0.033518399999593385,2.0334855999972206,,,,,,,,marika_expectedh2,001,2023-04-28_16h29.23.427,expectation_shapes_perceived_time,2022.2.4,119.65300626534918,
,,,,,,,,,,,,,18,0,18,0,testSingleStim,,,,,,red,1.3321774673065818,1.325,0.0022348999918904155,0.9980328999954509,1.6599995433352888e-05,2e-05,1.3248935999872629,1.3581207999959588,1.9993045999872265,2.2911008999944897,2.2911008999944897,2.5916177999897627,2.2911008999944897,0.0,3.4829798999999184,1.1918790000054287,1.1918790000054287,1.53327,-0.1675992772669646,0.01758034376926202,,,,None,,0.03313529999286402,,,,,,,,,marika_expectedh2,001,2023-04-28_16h29.23.427,expectation_shapes_perceived_time,2022.2.4,119.65300626534918,
,,,,,,,,,,,,,19,0,19,0,testSingleStim,,,,,,green,0.979254186822866,0.975,0.0022603999968850985,0.997919000001275,1.2899996363557875e-05,1e-05,0.9752486999932444,1.0079777000064496,2.0001100999943446,2.291681000002427,2.291681000002427,2.5912800999940373,2.466355900003691,0.17467490000126418,3.916799600003287,1.6251186000008602,1.450443699999596,1.00994,-0.005263643014384833,-0.16843657646031465,,,,None,,0.03364609999698587,2.0333183000038844,,,,,,,,marika_expectedh2,001,2023-04-28_16h29.23.427,expectation_shapes_perceived_time,2022.2.4,119.65300626534918,
,,,,,,,,,,,,,20,0,20,0,testSingleStim,,,,,,green,1.4732909170093627,1.4666666666666666,0.00287949999619741,0.9975771999888821,1.6699996194802225e-05,2e-05,1.4668676000001142,1.500098300006357,2.0000479000009364,2.2920682999974815,2.2920682999974815,2.591443800003617,2.3000705000013113,0.008002200003829785,3.6917544000025373,1.3996861000050558,1.391683900001226,1.51941,-0.16820544115864838,0.010272088009688452,,,,None,,,,,,,,,,,marika_expectedh2,001,2023-04-28_16h29.23.427,expectation_shapes_perceived_time,2022.2.4,119.65300626534918,
,,,,,,,,,,,,,21,0,21,0,testSingleStim,,,,,,red,0.2134575600759905,0.21666666666666667,0.003174199999193661,0.9978200999903493,1.410000550094992e-05,1e-05,0.21664440000313334,0.24998079999932088,2.0000041000021156,2.291838800010737,2.291838800010737,2.591679600009229,2.591679600009229,0.299840799998492,4.666329700005008,2.374490899994271,2.074650099995779,0.38095,0.15686961902548238,0.061567108542259205,,,,None,,0.03339770001184661,2.0332633000070928,,,,,,,,marika_expectedh2,001,2023-04-28_16h29.23.427,expectation_shapes_perceived_time,2022.2.4,119.65300626534918,
,,,,,,,,,,,,,22,0,22,0,testSingleStim,,,,,,green,0.2597209180285047,0.2583333333333333,0.0025350000069011003,0.9980773999996018,2.8599999495781958e-05,3e-05,0.25813480000942945,0.2919109000067692,2.000282499997411,2.2914059000031557,2.2914059000031557,2.5921214999980293,2.692344499999308,0.40093859999615233,4.124933099999907,1.8335271999967517,1.4325886000005994,0.42877,0.16431708035244402,0.03739630104572864,,,,None,,,,,,,,,,,marika_expectedh2,001,2023-04-28_16h29.23.427,expectation_shapes_perceived_time,2022.2.4,119.65300626534918,
,,,,,,,,,,,,,23,0,23,0,testSingleStim,,,,,,green,1.7000480463194017,1.6916666666666667,0.0033927000040421262,0.9980820000055246,1.9700004486367106e-05,2e-05,1.6914114999963203,1.7248540000000503,2.000225900002988,2.291307000006782,2.291307000006782,2.5915781000076095,2.5416707999975188,0.2503637999907369,4.117006300002686,1.8256992999959039,1.575335500005167,1.60357,-0.15967754737203813,0.05386712441466346,,,,None,,0.03328679999685846,2.03310159999819,,,,,,,,marika_expectedh2,001,2023-04-28_16h29.23.427,expectation_shapes_perceived_time,2022.2.4,119.65300626534918,
,,,,,,,,,,,,,24,0,24,0,testSingleStim,,,,,,green,1.108703432497555,1.1083333333333334,0.002428100007819012,0.9978469000052428,1.68999977177009e-05,2e-05,1.1082550999999512,1.1417871000012383,1.9993946000031428,2.291268500004662,2.291268500004662,2.591375000003609,2.3748845999944024,0.08361609998974018,3.333377400005702,1.0421089000010397,0.9584928000112996,0.9858,0.007515675165603747,-0.16835112370952393,,,,None,,0.033000700001139194,,,,,,,,,marika_expectedh2,001,2023-04-28_16h29.23.427,expectation_shapes_perceived_time,2022.2.4,119.65300626534918,
,,,,,,,,,,,,,25,0,25,0,testSingleStim,,,,,,green,0.6844148037278978,0.6833333333333333,0.0022621999960392714,0.9979586999979801,1.3700002455152571e-05,1e-05,0.6831577999982983,0.716549999997369,2.0000812000071164,2.291566200001398,2.291566200001398,2.591420400000061,2.475007800007006,0.18344160000560805,3.941654700000072,1.6500884999986738,1.4666468999930657,0.68012,0.1422519222805902,-0.09034919388091539,,,,None,,0.03338419999636244,2.033150100003695,,,,,,,,marika_expectedh2,001,2023-04-28_16h29.23.427,expectation_shapes_perceived_time,2022.2.4,119.65300626534918,
,,,,,,,,,,,,,26,0,26,0,testSingleStim,,,,,,red,0.5601183114111921,0.5583333333333333,0.003261899997596629,0.9982824999897275,1.3999990187585354e-05,1e-05,0.5579776999948081,0.5916148999967845,1.9996023999992758,2.2913039999984903,2.2913039999984903,2.5916295999923022,2.2913039999984903,0.0,3.424584099993808,1.1332800999953179,1.1332800999953179,0.47927,0.16816155881251718,0.010967058183425034,,,,None,,0.03328529999998864,2.033072899997933,,,,,,,,marika_expectedh2,001,2023-04-28_16h29.23.427,expectation_shapes_perceived_time,2022.2.4,119.65300626534918,
,,,,,,,,,,,,,27,0,27,0,testSingleStim,,,,,,green,0.5146962127998607,0.5166666666666666,0.0027950000076089054,0.9983229000063147,1.6600009985268116e-05,2e-05,0.5166859000019031,0.5499668000120437,1.9996021000115434,2.291203200002201,2.291203200002201,2.5915570000070147,2.291203200002201,0.0,3.3914114000072004,1.1002082000049995,1.1002082000049995,0.53813,0.16731107253678862,-0.02013929576831715,,,,None,,0.03303520000190474,,,,,,,,,marika_expectedh2,001,2023-04-28_16h29.23.427,expectation_shapes_perceived_time,2022.2.4,119.65300626534918,
,,,,,,,,,,,,,28,0,28,0,testSingleStim,,,,,,green,1.1926578381517545,1.1916666666666667,0.0023739000025670975,0.9983999999967637,2.890000178012997e-05,3e-05,1.1916570000030333,1.2252855999977328,1.9997280999959912,2.291646199999377,2.291646199999377,2.591666100008297,5.482994400008465,3.191348200009088,9.274821600003634,6.9831754000042565,3.7918271999951685,1.04314,-0.02276911523566044,-0.16697351172817657,,,,None,,0.033353699996951036,2.0333203000045614,,,,,,,,marika_expectedh2,001,2023-04-28_16h29.23.427,expectation_shapes_perceived_time,2022.2.4,119.65300626534918,
,,,,,,,,,,,,,29,0,29,0,testSingleStim,,,,,,red,0.960579173172537,0.9583333333333334,0.002331600000616163,0.9980626999895321,1.2400007108226418e-05,1e-05,0.9585783000075025,0.9918978000059724,2.000039700011257,2.291677700006403,2.291677700006403,2.591819100009161,2.4500250999990385,0.15834739999263547,3.9168933000037214,1.6252155999973183,1.4668682000046829,1.0,0.0,-0.16851880081300813,,,,None,,0.03330090000235941,2.0333873000054155,,,,,,,,marika_expectedh2,001,2023-04-28_16h29.23.427,expectation_shapes_perceived_time,2022.2.4,119.65300626534918,
,,,,,,,,,,,,,30,0,30,0,testSingleStim,,,,,,green,0.19702980309700713,0.2,0.002321699997992255,0.9980756000004476,1.7099999240599573e-05,2e-05,0.20004640000115614,0.2334186999942176,2.0000237000058405,2.291706799995154,2.291706799995154,2.591700999997556,2.533405299996957,0.24169850000180304,3.3417448999971384,1.0500381000019843,0.8083396000001812,0.4084,0.16158854337448134,0.04783020883884648,,,,None,,0.0334900000016205,2.0333274000004167,,,,,,,,marika_expectedh2,001,2023-04-28_16h29.23.427,expectation_shapes_perceived_time,2022.2.4,119.65300626534918,
,,,,,,,,,,,,,31,0,31,0,testSingleStim,,,,,,red,1.1901262849216154,1.1833333333333333,0.00231349999376107,0.9979037000011886,2.2799998987466097e-05,2e-05,1.183304299993324,1.2165483999997377,1.9999184000043897,2.2915994999930263,2.2915994999930263,2.5920039000047836,2.4833981999981916,0.1917987000051653,4.666458399995463,2.3748589000024367,2.1830601999972714,1.10242,-0.05329032391293405,-0.15987097173880213,,,,None,,0.03328839999448974,2.033636899999692,,,,,,,,marika_expectedh2,001,2023-04-28_16h29.23.427,expectation_shapes_perceived_time,2022.2.4,119.65300626534918,
,,,,,,,,,,,,,32,0,32,0,testSingleStim,,,,,,green,0.7192523680519896,0.7166666666666667,0.003192100004525855,0.9983748000086052,1.5300000086426735e-05,2e-05,0.7164211999916006,0.7498030999995535,1.9998812999983784,2.291534399992088,2.291534399992088,2.591634600001271,2.291534399992088,0.0,3.9912004999932833,1.6996661000011954,1.6996661000011954,0.77975,0.10751800546500043,-0.12976311004396607,,,,None,,0.03325899998890236,2.0330200999887893,,,,,,,,marika_expectedh2,001,2023-04-28_16h29.23.427,expectation_shapes_perceived_time,2022.2.4,119.65300626534918,
,,,,,,,,,,,,,33,0,33,0,testSingleStim,,,,,,green,0.4537450487508504,0.45,0.00422029999026563,0.9979858000006061,1.920000067912042e-05,2e-05,0.4504205999983242,0.48341159999836236,1.9998254999954952,2.2917264999996405,2.2917264999996405,2.5917962999956217,2.4086364999966463,0.1169099999970058,3.4333508999989135,1.141624399999273,1.0247144000022672,0.48429,0.1683136964609507,0.008311787479553122,,,,None,,0.03345610000542365,2.033244599995669,,,,,,,,marika_expectedh2,001,2023-04-28_16h29.23.427,expectation_shapes_perceived_time,2022.2.4,119.65300626534918,
,,,,,,,,,,,,,34,0,34,0,testSingleStim,,,,,,red,1.362464303061645,1.3583333333333334,0.002367500012042001,0.9980353999999352,2.7999994927085936e-05,3e-05,1.358487100005732,1.3917880000080913,2.00023869999859,2.2919050000054995,2.2919050000054995,2.5920687000034377,2.2919050000054995,0.0,4.73316089999571,2.4412558999902103,2.4412558999902103,1.27575,-0.12840110012110562,-0.10914093510293979,,,,None,,,,,,,,,,,marika_expectedh2,001,2023-04-28_16h29.23.427,expectation_shapes_perceived_time,2022.2.4,119.65300626534918,
,,,,,,,,,,,,,35,0,35,0,testSingleStim,,,,,,red,0.23833873011969292,0.24166666666666667,0.0037057000008644536,0.9974264000047697,1.3900003978051245e-05,1e-05,0.2419792000000598,0.27528020000318065,2.0000486000062665,2.2916492999938782,2.2916492999938782,2.5916253000032157,2.5835729999962496,0.29192370000237133,3.858181500007049,1.566532200013171,1.2746085000107996,0.4889,0.16841636122316178,0.005874989344994016,,,,None,,0.03366020000248682,2.0332869999983814,,,,,,,,marika_expectedh2,001,2023-04-28_16h29.23.427,expectation_shapes_perceived_time,2022.2.4,119.65300626534918,
,,,,,,,,,,,,,36,0,36,0,testSingleStim,,,,,,green,0.9441617689381384,0.9416666666666667,0.0036669999972218648,0.9978393999917898,1.3599987141788006e-05,1e-05,0.9416462999943178,0.9752063999912934,2.000284099995042,2.2918081999960123,2.2918081999960123,2.5920754999970086,2.2918081999960123,0.0,3.6913612999924226,1.3995530999964103,1.3995530999964103,0.99316,0.0036232224932218225,-0.16847984593481474,,,,None,,,,,,,,,,,marika_expectedh2,001,2023-04-28_16h29.23.427,expectation_shapes_perceived_time,2022.2.4,119.65300626534918,
,,,,,,,,,,,,,37,0,37,0,testSingleStim,,,,,,green,1.4046517478861609,1.4,0.003049999999348074,0.9982065999938641,4.159999662078917e-05,4e-05,1.3999655999941751,1.433311999993748,2.0000893999967957,2.291813599993475,2.291813599993475,2.5918131999933394,2.291813599993475,0.0,4.14156859999639,1.849755000002915,1.849755000002915,1.48788,-0.1683966525314422,-0.00641511057262637,,,,None,,,2.033625399999437,,,,,,,,marika_expectedh2,001,2023-04-28_16h29.23.427,expectation_shapes_perceived_time,2022.2.4,119.65300626534918,
,,,,,,,,,,,,,38,0,38,0,testSingleStim,,,,,,red,1.7055336837299329,1.7,0.0027592999977059662,0.9984649999969406,1.930000144056976e-05,2e-05,1.7003838999953587,1.7336106000002474,2.000168999991729,2.2917757999966852,2.2917757999966852,2.591996699993615,2.541463500005193,0.24968770000850782,4.408367900003213,2.116592100006528,1.8669043999980204,1.54682,-0.1666993812359499,0.024696204627548134,,,,None,,0.03362380000180565,2.033699699997669,,,,,,,,marika_expectedh2,001,2023-04-28_16h29.23.427,expectation_shapes_perceived_time,2022.2.4,119.65300626534918,
,,,,,,,,,,,,,39,0,39,0,testSingleStim,,,,,,red,1.368053166117849,1.3666666666666667,0.002869000003556721,0.9985386000043945,3.239999932702631e-05,3e-05,1.3668193999910727,1.3997987999900943,1.9998043999949005,2.2916056999965804,2.2916056999965804,2.591483899988816,2.5667625999922166,0.2751568999956362,4.02480139999534,1.7331956999987597,1.4580388000031235,1.51935,-0.16820747582603754,0.010238715919845764,,,,None,,0.033492299990030006,2.033373999991454,,,,,,,,marika_expectedh2,001,2023-04-28_16h29.23.427,expectation_shapes_perceived_time,2022.2.4,119.65300626534918,
1,-500,0.5,none,46,red,green,no_Expectation,,,,,,0,0,0,4,train_doubleStim,,,,,,red,0.8781961132379621,0.875,2.2918978999950923,0.9908228999993298,1e-05,1e-05,0.87502819999645,0.9085087999992538,2.0002112000074703,2.2918978999950923,2.2918978999950923,2.4915767000056803,3.0414452999975765,0.7495474000024842,6.058089800004382,3.7661919000092894,3.016644500006805,0.99769,0.0012211186704933195,-0.16851437652807807,,,,None,,,,-0.5,-0.5,0.3448661132379621,0.3416666666666667,training_double_stim.csv,0.34157129999948665,0.3750369000044884,marika_expectedh2,001,2023-04-28_16h29.23.427,expectation_shapes_perceived_time,2022.2.4,119.65300626534918,
1,-500,0.5,none,77,green,red,no_Expectation,,,,,,0,1,1,1,train_doubleStim,,,,,,green,1.834672884813559,1.8333333333333333,2.2914090999984182,0.9971174000093015,1e-05,1e-05,1.8333815000078175,1.8668831999966642,2.000018699996872,2.2914090999984182,2.2914090999984182,2.491378299993812,3.3748576999932993,1.083448599994881,5.658705599998939,3.3672965000005206,2.2838479000056395,1.49155,-0.1684594434659104,-0.004472374605289657,,,,None,,,,-0.5,-0.5,1.301342884813559,1.3,training_double_stim.csv,1.3000115000031656,1.3333705999975791,marika_expectedh2,001,2023-04-28_16h29.23.427,expectation_shapes_perceived_time,2022.2.4,119.65300626534918,
1,-500,0.5,none,23,green,red,no_Expectation,,,,,,0,2,2,2,train_doubleStim,,,,,,green,0.6726714539754788,0.6666666666666666,2.291555099989637,0.9980179999984102,1e-05,1e-05,0.6663229999976465,0.6996220000000903,2.0000796999956947,2.291555099989637,2.291555099989637,2.4915209999890067,3.0419532999949297,0.7503982000052929,6.041511899995385,3.749956800005748,2.999558600000455,0.94009,0.031531908039216176,-0.16554251720588495,,,,None,,0.0334,2.03315359998669,-0.5,-0.5,0.13934145397547884,0.14166666666666666,training_double_stim.csv,0.14171999999962281,0.17520469998999033,marika_expectedh2,001,2023-04-28_16h29.23.427,expectation_shapes_perceived_time,2022.2.4,119.65300626534918,
1,500,0.5,none,98,red,green,no_Expectation,,,,,,0,3,3,5,train_doubleStim,,,,,,red,1.050048279004164,1.05,2.2916178000014042,0.9981020999985049,3e-05,3e-05,1.04982139999629,1.0833918999996968,2.000044699991122,2.2916178000014042,2.2916178000014042,2.491658799990546,3.0829088000027696,0.7912910000013653,5.082958400002099,2.7913406000006944,2.000049599999329,1.0,0.0,-0.16851880081300813,,,,None,,,,0.5,0.5,1.583378279004164,1.575,training_double_stim.csv,1.5749532000045292,1.608074999996461,marika_expectedh2,001,2023-04-28_16h29.23.427,expectation_shapes_perceived_time,2022.2.4,119.65300626534918,
1,500,0.5,none,25,green,red,no_Expectation,,,,,,0,4,4,6,train_doubleStim,,,,,,green,1.1650237318077439,1.1583333333333332,2.2916765000118176,0.9980364999937592,2e-05,2e-05,1.1586063000140712,1.1918463000038173,1.9999722000065958,2.2916765000118176,2.2916765000118176,2.491488900006516,2.6163956000091275,0.32471909999730997,9.533503000013297,7.24182650000148,6.91710740000417,0.98776,0.006476703647994885,-0.168394294847867,,,,None,,,,0.5,0.5,1.6983537318077437,1.6916666666666667,training_double_stim.csv,1.6917414000054123,1.7250050000002375,marika_expectedh2,001,2023-04-28_16h29.23.427,expectation_shapes_perceived_time,2022.2.4,119.65300626534918,
1,500,0.5,none,88,red,green,no_Expectation,,,,,,0,5,5,9,train_doubleStim,,,,,,red,0.15868314996190222,0.15833333333333333,2.291112199993222,0.9983011000003899,1e-05,1e-05,0.15790539998852182,0.19129839999368414,1.999342399998568,2.291112199993222,2.291112199993222,2.4912668999895686,4.04148639999039,1.750374199997168,24.79122469999129,22.500112499998068,20.7497383000009,0.5115,0.168408829499602,-0.006087066126491639,,,,None,,0.03326,2.0327009999891743,0.5,0.5,0.6920131499619023,0.6916666666666667,training_double_stim.csv,0.6914067999896361,0.7246116999885999,marika_expectedh2,001,2023-04-28_16h29.23.427,expectation_shapes_perceived_time,2022.2.4,119.65300626534918,
1,-500,0.5,none,59,green,red,no_Expectation,,,,,,0,6,6,0,train_doubleStim,,,,,,green,1.0323331608239015,1.0333333333333332,2.2915245999902254,0.9987069000053452,1e-05,1e-05,1.0334495999995852,1.0666192999924533,1.999929899990093,2.2915245999902254,2.2915245999902254,2.491794299989124,2.9663969999965047,0.6748724000062793,4.366492899993318,2.0749683000030927,1.4000958999968134,0.997,0.0015897292665744442,-0.1685113022568911,,,,None,,0.03318,2.033250099993893,-0.5,-0.5,0.4990031608239014,0.5,training_double_stim.csv,0.5000458999857074,0.5328951999981655,marika_expectedh2,001,2023-04-28_16h29.23.427,expectation_shapes_perceived_time,2022.2.4,119.65300626534918,
1,-500,0.5,none,68,red,green,no_Expectation,,,,,,0,7,7,3,train_doubleStim,,,,,,red,1.427337291258086,1.425,2.291698200002429,0.9978559000010137,1e-05,1e-05,1.4249318000074709,1.4581670000043232,2.0004275999963284,2.291698200002429,2.291698200002429,2.4919599999993807,4.3331880000041565,2.0414898000017274,5.132998100001714,2.841299899999285,0.7998100999975577,1.0554,-0.02918204359753714,-0.16597287296099247,,,,None,,0.03343,2.0334622000082163,-0.5,-0.5,0.894007291258086,0.8916666666666666,training_double_stim.csv,0.8914032000029692,0.9246396999951685,marika_expectedh2,001,2023-04-28_16h29.23.427,expectation_shapes_perceived_time,2022.2.4,119.65300626534918,
1,500,0.5,none,60,red,green,no_Expectation,,,,,,0,8,8,8,train_doubleStim,,,,,,red,0.7115699765897888,0.7083333333333334,2.291967700002715,0.9988235999917379,1e-05,1e-05,0.7084695999947144,0.7416251999966335,2.000141700002132,2.291967700002715,2.291967700002715,2.4920045000035316,4.233512100006919,1.9415444000042044,5.224938300001668,2.932970599998953,0.9914261999947485,0.66093,0.14743595425672165,-0.0816163318206852,,,,None,,0.03342,2.0333699000038905,0.5,0.5,1.2448999765897888,1.2416666666666667,training_double_stim.csv,1.2420420999987982,1.2749097000050824,marika_expectedh2,001,2023-04-28_16h29.23.427,expectation_shapes_perceived_time,2022.2.4,119.65300626534918,
1,500,0.5,none,33,green,red,no_Expectation,,,,,,0,9,9,7,train_doubleStim,,,,,,green,1.296137539795768,1.2916666666666667,2.2924825999944005,0.9978102000022773,1e-05,1e-05,1.29212899999402,1.3257105999946361,2.000434299989138,2.2924825999944005,2.2924825999944005,2.492379199989955,4.458584299994982,2.1661017000005813,7.800377199993818,5.5078945999994176,3.341792899998836,1.22333,-0.1087721236776483,-0.12871367968521716,,,,None,,,2.033663800000795,0.5,0.5,1.8294675397957678,1.825,training_double_stim.csv,1.8255534999916563,1.8586950999888359,marika_expectedh2,001,2023-04-28_16h29.23.427,expectation_shapes_perceived_time,2022.2.4,119.65300626534918,
1,500,0.5,none,98,red,green,no_Expectation,,,,,,1,0,10,5,train_doubleStim,,,,,,red,1.341101952109729,1.3333333333333333,2.291882600009558,0.9976886000076775,2e-05,2e-05,1.3336288999998942,1.3669245000055525,2.0001863000070443,2.291882600009558,2.291882600009558,2.4919284000061452,2.917127000007895,0.625244399998337,3.7837685999984387,1.491885999988881,0.8666415999905439,1.13737,-0.07049143725700202,-0.15306712090091867,,,,None,,0.03328,2.0336055000079796,0.5,0.5,1.8744319521097288,1.8666666666666667,training_double_stim.csv,1.8673102000029758,1.9003157999977702,marika_expectedh2,001,2023-04-28_16h29.23.427,expectation_shapes_perceived_time,2022.2.4,119.65300626534918,
1,500,0.5,none,33,green,red,no_Expectation,,,,,,1,1,11,7,train_doubleStim,,,,,,green,1.215197636834819,1.2083333333333333,2.2918127000011737,0.9975632999994559,4e-05,4e-05,1.208618499993463,1.2419519999966724,2.0003476999991108,2.2918127000011737,2.2918127000011737,2.4922130000049947,2.73391619999893,0.44210349999775644,3.441958600000362,1.1501458999991883,0.7080424000014318,1.03522,-0.018609788346083577,-0.1674880951147522,,,,None,,0.03325,2.0336544000019785,0.5,0.5,1.7485276368348188,1.7416666666666667,training_double_stim.csv,1.742021800004295,1.7752917000034358,marika_expectedh2,001,2023-04-28_16h29.23.427,expectation_shapes_perceived_time,2022.2.4,119.65300626534918,
1,-500,0.5,none,46,red,green,no_Expectation,,,,,,1,2,12,4,train_doubleStim,,,,,,red,1.45417558113955,1.45,2.2919253000000026,0.9982378999993671,1e-05,1e-05,1.4498758999980055,1.483229499994195,1.999718799997936,2.2919253000000026,2.2919253000000026,2.491513999993913,2.874980599997798,0.5830552999977954,4.5336651999969035,2.241739899996901,1.6586845999991056,1.49592,-0.1685049531774358,-0.002160319912531228,,,,None,,0.03323,2.03325579999364,-0.5,-0.5,0.9208455811395501,0.9166666666666666,training_double_stim.csv,0.9165575999941211,0.9499589000042761,marika_expectedh2,001,2023-04-28_16h29.23.427,expectation_shapes_perceived_time,2022.2.4,119.65300626534918,
1,500,0.5,none,88,red,green,no_Expectation,,,,,,1,3,13,9,train_doubleStim,,,,,,red,1.1734097681943987,1.1666666666666667,2.2920767000032356,0.9977127000020118,2e-05,2e-05,1.1669691999995848,1.2003984000039054,2.0004447999963304,2.2920767000032356,2.2920767000032356,2.491876800006139,2.883487099999911,0.5914103999966756,3.8668408000085037,1.5747641000052681,0.9833537000085926,1.07055,-0.037047026516662813,-0.16439618016769122,,,,None,,,,0.5,0.5,1.7067397681943988,1.7,training_double_stim.csv,1.6999969000025885,1.7337221000052523,marika_expectedh2,001,2023-04-28_16h29.23.427,expectation_shapes_perceived_time,2022.2.4,119.65300626534918,
1,500,0.5,none,60,red,green,no_Expectation,,,,,,1,4,14,8,train_doubleStim,,,,,,red,0.46825489875760845,0.4666666666666667,2.2915376000019023,0.998108300002059,1e-05,1e-05,0.46635229999083094,0.499873499997193,2.000134399990202,2.2915376000019023,2.2915376000019023,2.491661899999599,2.841178899994702,0.5496412999927998,3.9748172999970848,1.6832796999951825,1.1336384000023827,0.5227,0.1680905439559777,-0.012006467425426978,,,,None,,0.03311,2.033256099995924,0.5,0.5,1.0015848987576084,1.0,training_double_stim.csv,1.0000080000027083,1.0335421999916434,marika_expectedh2,001,2023-04-28_16h29.23.427,expectation_shapes_perceived_time,2022.2.4,119.65300626534918,
1,500,0.5,none,25,green,red,no_Expectation,,,,,,1,5,15,6,train_doubleStim,,,,,,green,0.41833698515138634,0.4166666666666667,2.291373400003067,0.9981662999925902,1e-05,1e-05,0.41648990000248887,0.4496731999970507,1.999583700002404,2.291373400003067,2.291373400003067,2.491626000002725,3.0583041999925626,0.7669307999894954,4.4414403999981005,2.1500669999950333,1.3831362000055378,0.48567,0.16834809350120483,0.007583247455009226,,,,None,,0.03345,2.033488999994006,0.5,0.5,0.9516669851513864,0.95,training_double_stim.csv,0.9497588999947766,0.9831784999987576,marika_expectedh2,001,2023-04-28_16h29.23.427,expectation_shapes_perceived_time,2022.2.4,119.65300626534918,
1,-500,0.5,none,68,red,green,no_Expectation,,,,,,1,6,16,3,train_doubleStim,,,,,,red,0.8950645475267752,0.8916666666666666,2.2918209999916144,0.9983215000102064,5e-05,5e-05,0.8915908000053605,0.9249303999968106,1.9999473999923794,2.2918209999916144,2.2918209999916144,2.4915283000009367,2.783123599991086,0.49130259999947157,3.4413636999961454,1.149542700004531,0.6582401000050595,1.00979,-0.005182741083013709,-0.16843908519794554,,,,None,,0.03328,2.0334434999967925,-0.5,-0.5,0.3617345475267752,0.35833333333333334,training_double_stim.csv,0.3580076999933226,0.3915343999979086,marika_expectedh2,001,2023-04-28_16h29.23.427,expectation_shapes_perceived_time,2022.2.4,119.65300626534918,
1,-500,0.5,none,77,green,red,no_Expectation,,,,,,1,7,17,1,train_doubleStim,,,,,,green,1.685806063797798,1.6833333333333333,2.291485299996566,0.9984247999964282,1e-05,1e-05,1.6830170000030193,1.7164921999938088,1.999724099994637,2.291485299996566,2.291485299996566,2.491703299994697,2.7998431000014534,0.5083578000048874,3.858086199994432,1.5666008999978658,1.0582430999929784,1.5,-0.16851880081300813,0.0,,,,None,,0.03311,2.03301410000131,-0.5,-0.5,1.1524760637977982,1.15,training_double_stim.csv,1.1497783999948297,1.183143200003542,marika_expectedh2,001,2023-04-28_16h29.23.427,expectation_shapes_perceived_time,2022.2.4,119.65300626534918,
1,-500,0.5,none,23,green,red,no_Expectation,,,,,,1,8,18,2,train_doubleStim,,,,,,green,1.6711496350429165,1.6666666666666667,2.2912417000043206,0.9989869999990333,1e-05,1e-05,1.6664660000096774,1.699989500004449,1.9995006000099238,2.2912417000043206,2.2912417000043206,2.491648499999428,2.974482800011174,0.6832411000068532,4.53326310000557,2.2420214000012493,1.558780299994396,1.50618,-0.16848704076734106,0.0032715930246085636,,,,None,,0.0332,2.033286700010649,-0.5,-0.5,1.1378196350429166,1.1333333333333333,training_double_stim.csv,1.133070800002315,1.1663079999998445,marika_expectedh2,001,2023-04-28_16h29.23.427,expectation_shapes_perceived_time,2022.2.4,119.65300626534918,
1,-500,0.5,none,59,green,red,no_Expectation,,,,,,1,9,19,0,train_doubleStim,,,,,,green,1.0318741910341447,1.025,2.2921574999927543,0.9973568999994313,2e-05,2e-05,1.0252929999987828,1.0585030999936862,2.000307799986331,2.2921574999927543,2.2921574999927543,2.4918858999881195,2.7168631999957142,0.42470570000295993,4.2002815999876475,1.9081240999948932,1.4834183999919333,1.57188,-0.16424056256160746,0.03773094004793685,,,,None,,0.0333,2.0336898999958066,-0.5,-0.5,0.4985441910341446,0.5,training_double_stim.csv,0.5003536999865901,0.5336678999883588,marika_expectedh2,001,2023-04-28_16h29.23.427,expectation_shapes_perceived_time,2022.2.4,119.65300626534918,
1,500,0.5,none,33,green,red,no_Expectation,,,,,,2,0,20,7,train_doubleStim,,,,,,green,0.3674676269976111,0.36666666666666664,2.2915675999975065,0.998043300001882,6e-05,6e-05,0.36631739999575075,0.39973839999584015,1.9998178999958327,2.2915675999975065,2.2915675999975065,2.4917118000012124,3.024895900001866,0.7333283000043593,3.8915789000020595,1.600011300004553,0.8666830000001937,0.48995,0.16843483761088965,0.0053189948719228304,,,,None,,0.03306,2.033099199994467,0.5,0.5,0.9007976269976111,0.9,training_double_stim.csv,0.9000531000056071,0.9334889000019757,marika_expectedh2,001,2023-04-28_16h29.23.427,expectation_shapes_perceived_time,2022.2.4,119.65300626534918,
1,500,0.5,none,25,green,red,no_Expectation,,,,,,2,1,21,6,train_doubleStim,,,,,,green,0.21129540969921778,0.20833333333333334,2.292366100009531,0.9980161999992561,3e-05,3e-05,0.20845669999835081,0.24183470000571106,2.000223499999265,2.292366100009531,2.292366100009531,2.4922259000013582,2.8004992000060156,0.5081330999964848,3.716901899999357,1.424535799989826,0.9164026999933412,0.35242,0.15072779764185318,0.07536389882092659,,,,None,,,,0.5,0.5,0.7446254096992179,0.7416666666666667,training_double_stim.csv,0.7419382000080077,0.775667699999758,marika_expectedh2,001,2023-04-28_16h29.23.427,expectation_shapes_perceived_time,2022.2.4,119.65300626534918,
1,500,0.5,none,60,red,green,no_Expectation,,,,,,2,2,22,8,train_doubleStim,,,,,,red,0.5794334082630035,0.575,2.2915103000123054,0.9980991000047652,1e-05,1e-05,0.5748333000083221,0.6083512000041083,2.000312900010613,2.2915103000123054,2.2915103000123054,2.4919642000022577,2.941609600005904,0.6500992999935988,4.733750500003225,2.44224019999092,1.792140899997321,0.42887,0.16432821949134077,0.03734732261166836,,,,None,,0.03339,2.033211100002518,0.5,0.5,1.1127634082630034,1.1083333333333334,training_double_stim.csv,1.108263000001898,1.141657700005453,marika_expectedh2,001,2023-04-28_16h29.23.427,expectation_shapes_perceived_time,2022.2.4,119.65300626534918,
1,-500,0.5,none,68,red,green,no_Expectation,,,,,,2,3,23,3,train_doubleStim,,,,,,red,1.6066752640936384,1.6,2.2918528000009246,0.9974058999941917,3e-05,3e-05,1.6002994000009494,1.633313400001498,2.000485700002173,2.2918528000009246,2.2918528000009246,2.492051299996092,2.2918528000009246,0.0,3.4920200999913504,1.2001672999904258,1.2001672999904258,1.50413,-0.16850459120879946,0.0021883713143999927,,,,None,,,,-0.5,-0.5,1.0733452640936385,1.0666666666666667,training_double_stim.csv,1.066953100002138,1.1003282999881776,marika_expectedh2,001,2023-04-28_16h29.23.427,expectation_shapes_perceived_time,2022.2.4,119.65300626534918,
1,-500,0.5,none,23,green,red,no_Expectation,,,,,,2,4,24,2,train_doubleStim,,,,,,green,0.9364208570229359,0.9333333333333333,2.2920627999992575,0.9975197000021581,2e-05,2e-05,0.933745899994392,0.9672693999891635,2.000659999990603,2.2920627999992575,2.2920627999992575,2.49194149998948,2.658830100001069,0.36676730000181124,3.758393600001,1.4663308000017423,1.099563499999931,0.99242,0.004011215595526931,-0.1684710550121311,,,,None,,,,-0.5,-0.5,0.40309085702293584,0.4,training_double_stim.csv,0.40031849998922553,0.43360479999682866,marika_expectedh2,001,2023-04-28_16h29.23.427,expectation_shapes_perceived_time,2022.2.4,119.65300626534918,
1,500,0.5,none,88,red,green,no_Expectation,,,,,,2,5,25,9,train_doubleStim,,,,,,red,0.7873380667022392,0.7833333333333333,2.2916545999905793,0.9987350000010338,2e-05,2e-05,0.783356999992975,0.8167976999975508,2.0001360999885947,2.2916545999905793,2.2916545999905793,2.491361499996856,2.7082567999896128,0.4166021999990335,3.433167199997115,1.1415126000065356,0.7249104000075022,1.00909,-0.0048128588489294005,-0.168450059712529,,,,None,,,,0.5,0.5,1.3206680667022392,1.3166666666666667,training_double_stim.csv,1.3166375000000698,1.3501171999960206,marika_expectedh2,001,2023-04-28_16h29.23.427,expectation_shapes_perceived_time,2022.2.4,119.65300626534918,
1,-500,0.5,none,77,green,red,no_Expectation,,,,,,2,6,26,1,train_doubleStim,,,,,,green,1.2885568238525424,1.2833333333333332,2.291279899989604,0.9983042999956524,2e-05,2e-05,1.2829893000016455,1.3163789999962319,1.9998827999952482,2.291279899989604,2.291279899989604,2.491541099996539,2.924734100000933,0.6334542000113288,4.441340399993351,2.1500605000037467,1.516606299992418,1.50522,-0.16849616108686136,0.0027622321489649405,,,,None,,0.03333,2.033082399997511,-0.5,-0.5,0.7552268238525425,0.75,training_double_stim.csv,0.7494771999918157,0.7828237999929115,marika_expectedh2,001,2023-04-28_16h29.23.427,expectation_shapes_perceived_time,2022.2.4,119.65300626534918,
1,-500,0.5,none,46,red,green,no_Expectation,,,,,,2,7,27,4,train_doubleStim,,,,,,red,1.443231574924303,1.4416666666666667,2.2914646999997785,0.9978210999979638,2e-05,2e-05,1.4418564999941736,1.4752098999888403,1.999964299990097,2.2914646999997785,2.2914646999997785,2.4917260999936843,3.1500075999938417,0.8585428999940632,5.1168327999912435,2.825368099991465,1.9668251999974018,1.51157,-0.16840749379900632,0.006123908865418412,,,,None,,0.03311,2.033363599999575,-0.5,-0.5,0.909901574924303,0.9083333333333333,training_double_stim.csv,0.908208900000318,0.9414542999875266,marika_expectedh2,001,2023-04-28_16h29.23.427,expectation_shapes_perceived_time,2022.2.4,119.65300626534918,
1,500,0.5,none,98,red,green,no_Expectation,,,,,,2,8,28,5,train_doubleStim,,,,,,red,1.2326980077270555,1.225,2.291633800006821,0.9979282999993302,2e-05,2e-05,1.225514200006728,1.2584741000027861,2.0001054000022123,2.291633800006821,2.291633800006821,2.491448400003719,3.5168876000097953,1.2252538000029745,4.75853960000677,2.4669057999999495,1.241651999996975,1.17351,-0.08737755504008285,-0.14409631883803137,,,,None,,,,0.5,0.5,1.7660280077270554,1.7583333333333333,training_double_stim.csv,1.758565299998736,1.791497199999867,marika_expectedh2,001,2023-04-28_16h29.23.427,expectation_shapes_perceived_time,2022.2.4,119.65300626534918,
1,-500,0.5,none,59,green,red,no_Expectation,,,,,,2,9,29,0,train_doubleStim,,,,,,green,1.1154240140990541,1.1083333333333334,2.2916488999908324,0.9976596000051359,2e-05,2e-05,1.1086489000008442,1.1419310999917798,2.000241300003836,2.2916488999908324,2.2916488999908324,2.4921534000022803,2.8505323999997927,0.5588835000089603,5.89213860000018,3.600489700009348,3.0416062000003876,0.82055,0.09004945012500974,-0.14244185747046997,,,,None,,,,-0.5,-0.5,0.5820940140990541,0.5833333333333334,training_double_stim.csv,0.5835121999989497,0.6167715000046883,marika_expectedh2,001,2023-04-28_16h29.23.427,expectation_shapes_perceived_time,2022.2.4,119.65300626534918,
1,-500,0.5,none,59,green,red,no_Expectation,,,,,,3,0,30,0,train_doubleStim,,,,,,green,1.6578882393664423,1.65,2.2914011999964714,0.9983016000041971,1e-05,1e-05,1.649414200001047,1.6827315999980783,1.9998610000038752,2.2914011999964714,2.2914011999964714,2.491355399994063,3.132958200003486,0.8415570000070147,3.7663233000057517,1.4749221000092803,0.6333651000022655,0.97593,0.012730097729237092,-0.1680372900259296,,,,None,,,,-0.5,-0.5,1.1245582393664424,1.125,training_double_stim.csv,1.1248806999938097,1.1580704000080004,marika_expectedh2,001,2023-04-28_16h29.23.427,expectation_shapes_perceived_time,2022.2.4,119.65300626534918,
1,-500,0.5,none,46,red,green,no_Expectation,,,,,,3,1,31,4,train_doubleStim,,,,,,red,1.245923550391611,1.2416666666666667,2.291781899999478,0.9980004999961238,3e-05,3e-05,1.2419025999988662,1.2751882000011392,1.9997959999891464,2.291781899999478,2.291781899999478,2.4916998999979114,3.8751476999896113,1.5833657999901334,6.092030999992858,3.80024909999338,2.2168833000032464,1.29831,-0.13580623670539443,-0.09977601064069797,,,,None,,0.03354,2.033163699990837,-0.5,-0.5,0.7125935503916111,0.7083333333333334,training_double_stim.csv,0.7085535999940475,0.7419141999998828,marika_expectedh2,001,2023-04-28_16h29.23.427,expectation_shapes_perceived_time,2022.2.4,119.65300626534918,
1,500,0.5,none,88,red,green,no_Expectation,,,,,,3,2,32,9,train_doubleStim,,,,,,red,0.6899846183933459,0.6916666666666667,2.292102100007469,0.9973123999952804,1e-05,1e-05,0.692083800007822,0.7251852000044892,2.0002209000085713,2.292102100007469,2.292102100007469,2.4924056000018027,3.442194000002928,1.1500918999954592,4.466991300010704,2.1748892000032356,1.0247973000077764,0.71095,0.1328460304948712,-0.10368470672770433,,,,None,,,,0.5,0.5,1.2233146183933459,1.2166666666666666,training_double_stim.csv,1.2170894000009866,1.2504311000084272,marika_expectedh2,001,2023-04-28_16h29.23.427,expectation_shapes_perceived_time,2022.2.4,119.65300626534918,
1,500,0.5,none,60,red,green,no_Expectation,,,,,,3,3,33,8,train_doubleStim,,,,,,red,0.43327752688378446,0.43333333333333335,2.2919235000008484,0.9984786999993958,2e-05,2e-05,0.43327869998756796,0.4664642999996431,2.000288499999442,2.2919235000008484,2.2919235000008484,2.491930999996839,2.2919235000008484,0.0,3.8332436999917263,1.5413201999908779,1.5413201999908779,0.51178,0.16840333742102614,-0.006237160645223191,,,,None,,0.03316,2.0335827999952016,0.5,0.5,0.9666075268837846,0.9666666666666667,training_double_stim.csv,0.9669292999897152,1.0003078000008827,marika_expectedh2,001,2023-04-28_16h29.23.427,expectation_shapes_perceived_time,2022.2.4,119.65300626534918,
1,500,0.5,none,25,green,red,no_Expectation,,,,,,3,4,34,6,train_doubleStim,,,,,,green,0.4842318117538029,0.48333333333333334,2.2919439999968745,0.9987361000094097,3e-05,3e-05,0.48296579999441747,0.5164628999918932,1.999872400003369,2.2919439999968745,2.2919439999968745,2.4914293000038015,3.2332669000024907,0.9413229000056162,3.8417451999994228,1.5498012000025483,0.608478299996932,0.65967,0.1477593756472559,-0.08102933503236612,,,,None,,,,0.5,0.5,1.017561811753803,1.0166666666666666,training_double_stim.csv,1.0161385999963386,1.049481599999126,marika_expectedh2,001,2023-04-28_16h29.23.427,expectation_shapes_perceived_time,2022.2.4,119.65300626534918,
1,500,0.5,none,33,green,red,no_Expectation,,,,,,3,5,35,7,train_doubleStim,,,,,,green,0.9715856385688695,0.9666666666666667,2.2914816999982577,0.9977775000006659,5e-05,5e-05,0.9668747999967309,0.9998967999999877,2.0001144999987446,2.2914816999982577,2.2914816999982577,2.491613899997901,2.2914816999982577,0.0,3.883249699996668,1.5917679999984102,1.5917679999984102,1.00749,-0.003964051091078306,-0.16847217137082798,,,,None,,,,0.5,0.5,1.5049156385688693,1.5,training_double_stim.csv,1.4997595000022557,1.533175399992615,marika_expectedh2,001,2023-04-28_16h29.23.427,expectation_shapes_perceived_time,2022.2.4,119.65300626534918,
1,-500,0.5,none,68,red,green,no_Expectation,,,,,,3,6,36,3,train_doubleStim,,,,,,red,0.7792994358518073,0.775,2.2922010000038426,0.9974498999945354,3e-05,3e-05,0.7756241000024602,0.8084188000066206,2.000647699998808,2.2922010000038426,2.2922010000038426,2.4921071999997366,2.808553300012136,0.5163523000082932,7.592082300005131,5.299881300001289,4.7835289999929955,0.78622,0.1048598338548998,-0.13192043614003524,,,,None,,0.03343,2.0336114000092493,-0.5,-0.5,0.2459694358518073,0.24166666666666667,training_double_stim.csv,0.2419207000057213,0.2751754000055371,marika_expectedh2,001,2023-04-28_16h29.23.427,expectation_shapes_perceived_time,2022.2.4,119.65300626534918,
1,-500,0.5,none,23,green,red,no_Expectation,,,,,,3,7,37,2,train_doubleStim,,,,,,green,1.0811507580020858,1.075,2.29231720000098,0.9971644000033848,1e-05,1e-05,1.075433799996972,1.1090293000015663,2.0004609000025084,2.29231720000098,2.29231720000098,2.491989400004968,2.29231720000098,0.0,4.242577700002585,1.9502605000016047,1.9502605000016047,0.99204,0.0042116540840068835,-0.16846616336027534,,,,None,,0.03382,2.0336033000057796,-0.5,-0.5,0.5478207580020859,0.55,training_double_stim.csv,0.5503393999970285,0.5839964000042528,marika_expectedh2,001,2023-04-28_16h29.23.427,expectation_shapes_perceived_time,2022.2.4,119.65300626534918,
1,-500,0.5,none,77,green,red,no_Expectation,,,,,,3,8,38,1,train_doubleStim,,,,,,green,1.47201638606752,1.4666666666666666,2.291476900005364,0.9975093999964884,2e-05,2e-05,1.466482800009544,1.499692600002163,2.0000379999983124,2.291476900005364,2.291476900005364,2.4914500000013504,2.7334643000067445,0.4419874000013806,3.9249602000054438,1.63348330000008,1.1914958999986993,1.49564,-0.16850299155355095,-0.002308260158267821,,,,None,,0.03335,2.033409000010579,-0.5,-0.5,0.93868638606752,0.9333333333333333,training_double_stim.csv,0.9331527000031201,0.966116299998248,marika_expectedh2,001,2023-04-28_16h29.23.427,expectation_shapes_perceived_time,2022.2.4,119.65300626534918,
1,500,0.5,none,98,red,green,no_Expectation,,,,,,3,9,39,5,train_doubleStim,,,,,,red,0.45094916059418483,0.45,2.2918046999984654,0.9976764999883017,1e-05,1e-05,0.4499961999972584,0.4833974999928614,2.0001278999989154,2.2918046999984654,2.2918046999984654,2.4918988999997964,2.300332900005742,0.00852820000727661,3.9919661000021733,1.700161400003708,1.6916331999964314,0.49518,0.16849946084613282,0.0025530221340323155,,,,None,,0.03378,2.033356800006004,0.5,0.5,0.9842791605941849,0.9833333333333333,training_double_stim.csv,0.983187399993767,1.0165720999939367,marika_expectedh2,001,2023-04-28_16h29.23.427,expectation_shapes_perceived_time,2022.2.4,119.65300626534918,
,233,0.8,met,,red,green,,209.94347004276693,,,,,0,0,0,346,trial,,,,,,red,0.20994347004276692,0.20833333333333334,2.2918359999894165,0.9979977000039071,4e-05,4e-05,0.20831449999241158,0.24142559999017976,1.9997281999967527,2.2918359999894165,2.2918359999894165,2.491723999992246,3.9080524999881163,1.6162164999986999,5.133190199994715,2.8413542000052985,1.2251377000065986,0.18007,0.09032744841684667,0.1422657312565335,,,,None,,,,0.233,0.23333333333333334,0.47627347004276693,0.475,trial_list_0.8_red.csv,0.4748674000002211,0.5084205999883125,marika_expectedh2,001,2023-04-28_16h29.23.427,expectation_shapes_perceived_time,2022.2.4,119.65300626534918,
,-167,0.1999999999999999,unmet,,green,red,,1173.2042033700018,,,,,0,1,1,291,trial,,,,,,green,1.1732042033700019,1.1666666666666667,2.2918084999982966,0.995512499997858,3e-05,3e-05,1.1666560000012396,1.1998620000085793,2.0001183999993373,2.2918084999982966,2.2918084999982966,2.4916826999979094,4.817067199997837,2.52525869999954,7.074912900003255,4.783104400004959,2.2578457000054186,1.66611,-0.14609001060849403,0.08400175609988407,,,,None,,0.03329,2.033479999998235,-0.167,-0.16666666666666666,0.9728742033700017,0.9666666666666667,trial_list_0.8_red.csv,0.9666361999989022,1.0000446000049124,marika_expectedh2,001,2023-04-28_16h29.23.427,expectation_shapes_perceived_time,2022.2.4,119.65300626534918,
,33,0.1999999999999999,unmet,,green,red,,1334.5691102943497,,,,,0,2,2,189,trial,,,,,,green,1.3345691102943498,1.3333333333333333,2.291666699995403,0.9970022000052268,3e-05,3e-05,1.3334653000056278,1.3667482000018936,1.9999984000023687,2.291666699995403,2.291666699995403,2.4912756999983685,4.33356260000437,2.041895900008967,7.824975199997425,5.533308500002022,3.4914125999930548,0.82153,0.08961292800548007,-0.14271688534206087,,,,None,,0.03354,2.0333972000080394,0.033,0.03333333333333333,1.4008991102943495,1.4,trial_list_0.8_red.csv,1.400072000004002,1.4337531000055606,marika_expectedh2,001,2023-04-28_16h29.23.427,expectation_shapes_perceived_time,2022.2.4,119.65300626534918,
,100,0.8,met,,red,green,,1022.9212464111644,,,,,0,3,3,43,trial,,,,,,red,1.0229212464111643,1.0166666666666666,2.2916260000056354,0.996673000001465,4e-05,4e-05,1.0165944000036689,1.05024979999871,2.00008749999688,2.2916260000056354,2.2916260000056354,2.491711299997405,3.08326390000002,0.7916378999943845,3.549560900006327,1.2579349000006914,0.4662970000063069,1.06283,-0.03304925591356862,-0.1652462795678431,,,,None,,0.03338,2.0332597000087844,0.1,0.1,1.1562512464111643,1.15,trial_list_0.8_red.csv,1.1501156000012998,1.183322800003225,marika_expectedh2,001,2023-04-28_16h29.23.427,expectation_shapes_perceived_time,2022.2.4,119.65300626534918,
,-233,0.8,met,,red,green,,917.9788727684912,,,,,0,4,4,289,trial,,,,,,red,0.9179788727684912,0.9166666666666666,2.2916404999996303,0.9985027999937302,4e-05,4e-05,0.9166024000005564,0.9500763999967603,1.9998835000005784,2.2916404999996303,2.2916404999996303,2.491545299999416,3.383009699988179,1.0913691999885486,7.249716999998782,4.958076499999152,3.866707300010603,1.19692,-0.09772932611593715,-0.13728643430572124,,,,None,,0.03339,2.033124099994893,-0.233,-0.23333333333333334,0.6516488727684911,0.65,trial_list_0.8_red.csv,0.6498627999972086,0.6834405999979936,marika_expectedh2,001,2023-04-28_16h29.23.427,expectation_shapes_perceived_time,2022.2.4,119.65300626534918,
,300,0.1999999999999999,unmet,,green,red,,339.3011856171952,,,,,0,5,5,409,trial,,,,,,green,0.3393011856171952,0.3416666666666667,2.291579400000046,0.9966828000033274,4e-05,4e-05,0.3416728000011062,0.37479610000445973,1.999721000000136,2.291579400000046,2.291579400000046,2.491539599999669,3.0414925000077346,0.7499131000076886,4.616471900008037,2.3248925000079907,1.5749794000003021,0.27444,0.12794901213995874,0.10967058183425034,,,,None,,0.03312,2.0332364000059897,0.3,0.3,0.6726311856171953,0.6666666666666666,trial_list_0.8_red.csv,0.6667969999980414,0.6999376000021584,marika_expectedh2,001,2023-04-28_16h29.23.427,expectation_shapes_perceived_time,2022.2.4,119.65300626534918,
,-300,0.8,met,,red,green,,529.3001569512254,,,,,0,6,6,353,trial,,,,,,red,0.5293001569512255,0.525,2.2914191000018036,0.9967333000095095,4e-05,4e-05,0.5247702999913599,0.5579661999945529,1.9998565999994753,2.2914191000018036,2.2914191000018036,2.491715199997998,2.4080985999898985,0.1166794999880949,3.47467539999343,1.1832562999916263,1.0665768000035314,0.73073,0.1261511824255735,-0.11173390443407938,,,,None,,,,-0.3,-0.3,0.1959701569512254,0.19166666666666665,trial_list_0.8_red.csv,0.19114280000212602,0.22428999999829102,marika_expectedh2,001,2023-04-28_16h29.23.427,expectation_shapes_perceived_time,2022.2.4,119.65300626534918,
,-167,0.1999999999999999,unmet,,green,red,,1325.7621416083157,,,,,0,7,7,446,trial,,,,,,green,1.3257621416083156,1.325,2.2917431999958353,0.9974645000038436,7e-05,7e-05,1.3251055000000633,1.358160300005693,2.000053600000683,2.2917431999958353,2.2917431999958353,2.491609899996547,2.841652700008126,0.5499095000122907,3.899699100002181,1.6079559000063455,1.0580463999940548,1.20261,-0.1001660688278144,-0.13551879900233715,,,,None,,0.0333,2.0334671000018716,-0.167,-0.16666666666666666,1.1254321416083157,1.125,trial_list_0.8_red.csv,1.1248861000058241,1.1582159000099637,marika_expectedh2,001,2023-04-28_16h29.23.427,expectation_shapes_perceived_time,2022.2.4,119.65300626534918,
,100,0.8,met,,red,green,,1262.566615076557,,,,,0,8,8,77,trial,,,,,,red,1.2625666150765569,1.2583333333333333,2.2915787999954773,0.9969241000071634,4e-05,4e-05,1.2581989000027534,1.2917506000085268,1.9999267999955919,2.2915787999954773,2.2915787999954773,2.491749399996479,4.324814200008404,2.033235400012927,11.391656899999361,9.100078100003884,7.066842699990957,1.01571,-0.008311787479553122,-0.1683136964609507,,,,None,,0.0334,2.0332869999983814,0.1,0.1,1.3958966150765568,1.3916666666666666,trial_list_0.8_red.csv,1.3916917000024114,1.4250112000008812,marika_expectedh2,001,2023-04-28_16h29.23.427,expectation_shapes_perceived_time,2022.2.4,119.65300626534918,
,167,0.8,met,,red,green,,1580.450630408192,,,,,0,9,9,236,trial,,,,,,red,1.580450630408192,1.575,2.2917653000040445,0.9971048000006704,4e-05,4e-05,1.575079200003529,1.608446099999128,2.0000188999983948,2.2917653000040445,2.2917653000040445,2.491815899993526,2.7831749000033597,0.4914095999993151,4.691794799990021,2.400029499985976,1.908619899986661,1.40561,-0.16116321990920796,-0.049244317194480206,,,,None,,0.03324,2.032911599992076,0.167,0.16666666666666666,1.780780630408192,1.775,trial_list_0.8_red.csv,1.7749622999981511,1.8082786000013584,marika_expectedh2,001,2023-04-28_16h29.23.427,expectation_shapes_perceived_time,2022.2.4,119.65300626534918,
,-33,0.8,met,,red,green,,1211.828196576804,,,,,0,10,10,224,trial,,,,,,red,1.211828196576804,1.2083333333333333,2.291371800005436,0.9969185999943875,4e-05,4e-05,1.208308900007978,1.2413349999987986,1.9997042000031797,2.291371800005436,2.291371800005436,2.491252699997858,2.449764300006791,0.15839250000135507,2.974179800003185,0.682807999997749,0.5244154999963939,1.0124,-0.006560690011469035,-0.16839104362770524,,,,None,,,2.033128499999293,-0.033,-0.03333333333333333,1.145498196576804,1.1416666666666666,trial_list_0.8_red.csv,1.1416237000084948,1.175039800000377,marika_expectedh2,001,2023-04-28_16h29.23.427,expectation_shapes_perceived_time,2022.2.4,119.65300626534918,
,-233,0.8,met,,red,green,,1242.0443519747946,,,,,0,11,11,358,trial,,,,,,red,1.2420443519747946,1.2416666666666667,2.2911098999902606,0.9994388999912189,5e-05,5e-05,1.2411032999953022,1.2744222999899648,1.9994389999919804,2.2911098999902606,2.2911098999902606,2.491165199986426,2.849225399986608,0.5581154999963474,4.499417099999846,2.2083072000095854,1.650191700013238,1.27671,-0.12872908957531398,-0.10875388602052387,,,,None,,0.03302,2.0327583999896888,-0.233,-0.23333333333333334,0.9757143519747946,0.975,trial_list_0.8_red.csv,0.974225199999637,1.0077328999905149,marika_expectedh2,001,2023-04-28_16h29.23.427,expectation_shapes_perceived_time,2022.2.4,119.65300626534918,
,-233,0.8,met,,red,green,,1657.8738040367157,,,,,0,12,12,118,trial,,,,,,red,1.6578738040367156,1.65,2.291176999991876,0.9978914999956032,5e-05,5e-05,1.6494169999932637,1.6829275000054622,1.9994905999919865,2.291176999991876,2.291176999991876,2.4913951000053203,4.032924099999946,1.7417471000080695,6.182800499998848,3.891623500006972,2.1498763999989023,1.42202,-0.16348725074222487,-0.040871812685556216,,,,None,,0.03308,2.032847299997229,-0.233,-0.23333333333333334,1.3915438040367158,1.3916666666666666,trial_list_0.8_red.csv,1.3911893000040436,1.4245646000053966,marika_expectedh2,001,2023-04-28_16h29.23.427,expectation_shapes_perceived_time,2022.2.4,119.65300626534918,
,33,0.8,met,,red,green,,963.8609215056596,,,,,0,13,13,281,trial,,,,,,red,0.9638609215056596,0.9583333333333334,2.291555099989637,0.9975058999989415,4e-05,4e-05,0.9582875999913085,0.9915851999976439,1.9998707999911858,2.291555099989637,2.291555099989637,2.4914816999953473,2.8246193999948446,0.5330643000052078,4.258116600001813,1.9665615000121761,1.4334972000069683,0.94472,0.029119960815043033,-0.1659837766457453,,,,None,,0.03323,2.0333301999926334,0.033,0.03333333333333333,1.0301909215056597,1.025,trial_list_0.8_red.csv,1.024841299993568,1.0579537000012351,marika_expectedh2,001,2023-04-28_16h29.23.427,expectation_shapes_perceived_time,2022.2.4,119.65300626534918,
,-300,0.8,met,,red,green,,1341.5667630261871,,,,,0,14,14,403,trial,,,,,,red,1.3415667630261872,1.3416666666666666,2.2919929000054253,0.997391199998674,8e-05,8e-05,1.3417059000057634,1.3752250999968965,2.0002800000074785,2.2919929000054253,2.2919929000054253,2.491951500007417,2.7917122000071686,0.49971930000174325,3.4831150000100024,1.191122100004577,0.6914028000028338,1.49552,-0.16850208848085882,-0.002373268851843082,,,,None,,0.03349,2.0335398000024725,-0.3,-0.3,1.008236763026187,1.0083333333333333,trial_list_0.8_red.csv,1.0079274000017904,1.0412034000037238,marika_expectedh2,001,2023-04-28_16h29.23.427,expectation_shapes_perceived_time,2022.2.4,119.65300626534918,
,-167,0.8,met,,red,green,,554.3578478516406,,,,,0,15,15,436,trial,,,,,,red,0.5543578478516406,0.55,2.291740300002857,0.9978449999907752,4e-05,4e-05,0.5498503999988316,0.5832872000028146,1.9998616999946535,2.291740300002857,2.291740300002857,2.491599100001622,2.7581598999968264,0.4664195999939693,3.766512000001967,1.4747716999991098,1.0083521000051405,0.72038,0.12971868840176226,-0.10757159525999797,,,,None,,,2.033196599993971,-0.167,-0.16666666666666666,0.3540278478516406,0.35,trial_list_0.8_red.csv,0.3499957000021823,0.3833139000053052,marika_expectedh2,001,2023-04-28_16h29.23.427,expectation_shapes_perceived_time,2022.2.4,119.65300626534918,
,167,0.8,met,,red,green,,1519.0878369210984,,,,,0,16,16,477,trial,,,,,,red,1.5190878369210985,1.5166666666666666,2.2914663000119617,0.9967654000065522,4e-05,4e-05,1.5164989000040805,1.549536899998202,1.9999354000028688,2.2914663000119617,2.2914663000119617,2.491528800004744,2.6997752000024775,0.4083088999905158,3.616132600000128,1.3246662999881664,0.9163573999976506,1.47646,-0.16805836607052604,-0.012448767857076003,,,,None,,0.03303,2.0329842000064673,0.167,0.16666666666666666,1.7194178369210984,1.7166666666666666,trial_list_0.8_red.csv,1.7158625000010943,1.7492189000040526,marika_expectedh2,001,2023-04-28_16h29.23.427,expectation_shapes_perceived_time,2022.2.4,119.65300626534918,
,-100,0.8,met,,red,green,,592.6262231824602,,,,,0,17,17,480,trial,,,,,,red,0.5926262231824602,0.5916666666666667,2.2911628000001656,0.9976438000012422,4e-05,4e-05,0.5917044000088936,0.6251513000024715,1.999694800004363,2.2911628000001656,2.2911628000001656,2.4916841000085697,2.8414071000006516,0.550244300000486,5.766515800001798,3.4753530000016326,2.9251087000011466,0.72617,0.1277390834531187,-0.10991502529686958,,,,None,,,2.0328360999992583,-0.1,-0.1,0.4592962231824602,0.4583333333333333,trial_list_0.8_red.csv,0.4585862000094494,0.49172940000426024,marika_expectedh2,001,2023-04-28_16h29.23.427,expectation_shapes_perceived_time,2022.2.4,119.65300626534918,
,233,0.8,met,,red,green,,903.232945577078,,,,,0,18,18,121,trial,,,,,,red,0.903232945577078,0.9,2.2916044000012334,0.9974702999898,4e-05,4e-05,0.9000154999957886,0.9334409000002779,2.0001091999874916,2.2916044000012334,2.2916044000012334,2.4916721999907168,2.7832369999960065,0.49163259999477305,3.708151999991969,1.4165475999907358,0.9249149999959627,0.87608,0.06396238199726759,-0.15590830611833975,,,,None,,,2.033341599992127,0.233,0.23333333333333334,1.169562945577078,1.1666666666666667,trial_list_0.8_red.csv,1.1665598999970825,1.1998569999996107,marika_expectedh2,001,2023-04-28_16h29.23.427,expectation_shapes_perceived_time,2022.2.4,119.65300626534918,
,-167,0.8,met,,red,green,,769.3853665803738,,,,,0,19,19,90,trial,,,,,,red,0.7693853665803738,0.7666666666666666,2.2915417999902274,0.9978679000050761,4e-05,4e-05,0.7659805000002962,0.7993050999939442,1.9998251999932108,2.2915417999902274,2.2915417999902274,2.4914978000015253,4.533192399991094,2.2416506000008667,5.05791180000233,2.7663700000121025,0.5247194000112358,0.51515,0.16832806073964485,-0.008015621939983088,,,,None,,0.03308,2.0333308999979636,-0.167,-0.16666666666666666,0.5690553665803737,0.5666666666666667,trial_list_0.8_red.csv,0.5659462999901734,0.5992729999998119,marika_expectedh2,001,2023-04-28_16h29.23.427,expectation_shapes_perceived_time,2022.2.4,119.65300626534918,
,-233,0.8,met,,red,green,,1744.11288762147,,,,,0,20,20,293,trial,,,,,,red,1.74411288762147,1.7416666666666667,2.2918255000113277,0.9975546000059694,3e-05,3e-05,1.7420635000016773,1.7751735000056215,2.0001235000090674,2.2918255000113277,2.2918255000113277,2.4917279000073904,7.758532100007869,5.466706599996542,8.358724400008214,6.066898899996886,0.6001923000003444,1.62049,-0.1565881957734039,0.062279396046240186,,,,None,,0.03329,2.0334213000023738,-0.233,-0.23333333333333334,1.47778288762147,1.475,trial_list_0.8_red.csv,1.4754613999975845,1.5086315000080504,marika_expectedh2,001,2023-04-28_16h29.23.427,expectation_shapes_perceived_time,2022.2.4,119.65300626534918,
,167,0.1999999999999999,unmet,,green,red,,1315.771393458151,,,,,0,21,21,179,trial,,,,,,green,1.315771393458151,1.3083333333333333,2.2915730999957304,0.9962374000024283,4e-05,4e-05,1.3083083999954397,1.3415581999870483,2.0000024999899324,2.2915730999957304,2.2915730999957304,2.491579499997897,3.066373299996485,0.7748002000007546,3.6915126999956556,1.3999395999999251,0.6251393999991706,0.97354,0.013994724677893085,-0.167936696134717,,,,None,,0.03319,2.0332818999886513,0.167,0.16666666666666666,1.5161013934581509,1.5083333333333333,trial_list_0.8_red.csv,1.5085867999878246,1.5417076999874553,marika_expectedh2,001,2023-04-28_16h29.23.427,expectation_shapes_perceived_time,2022.2.4,119.65300626534918,
,-100,0.8,met,,red,green,,776.2123425595144,,,,,0,22,22,23,trial,,,,,,red,0.7762123425595143,0.775,2.291409700002987,0.9976389000075869,3e-05,3e-05,0.7744438999943668,0.8079914999980247,1.9998264000023482,2.291409700002987,2.291409700002987,2.491502799995942,2.749931700003799,0.4585220000008121,3.7414420999994036,1.4500323999964166,0.9915103999956045,0.25539,0.12116305893028848,0.11712429029927884,,,,None,,0.0331,2.0332924999966053,-0.1,-0.1,0.6428823425595143,0.6416666666666666,trial_list_0.8_red.csv,0.6408996999962255,0.6742403999960516,marika_expectedh2,001,2023-04-28_16h29.23.427,expectation_shapes_perceived_time,2022.2.4,119.65300626534918,
,100,0.8,met,,red,green,,1486.0005479438278,,,,,0,23,23,35,trial,,,,,,red,1.4860005479438279,1.4833333333333334,2.2913114999973914,0.9964269000047352,4e-05,4e-05,1.4830673999967985,1.5165433999936795,1.9993483999860473,2.2913114999973914,2.2913114999973914,2.491621599998325,3.7663694999937434,1.475057999996352,10.966021799991722,8.67471029999433,7.199652299997979,1.50806,-0.16846482297664167,0.004264932227256751,,,,None,,0.03318,2.032686799997464,0.1,0.1,1.6193305479438278,1.6166666666666667,trial_list_0.8_red.csv,1.6164060999872163,1.6498058999859495,marika_expectedh2,001,2023-04-28_16h29.23.427,expectation_shapes_perceived_time,2022.2.4,119.65300626534918,
,167,0.8,met,,red,green,,729.9189926205455,,,,,0,24,24,193,trial,,,,,,red,0.7299189926205455,0.725,2.29158489999827,0.9987702000071295,4e-05,4e-05,0.725007100001676,0.758483099998557,2.000241300003836,2.29158489999827,2.29158489999827,2.491454300004989,2.7000841999979457,0.4084992999996757,5.366782199998852,3.075197300000582,2.666698000000906,0.74581,0.120718242367847,-0.11758270360504579,,,,None,,0.03332,2.0332289000070887,0.167,0.16666666666666666,0.9302489926205455,0.9249999999999999,trial_list_0.8_red.csv,0.9249048000056064,0.9584872999985237,marika_expectedh2,001,2023-04-28_16h29.23.427,expectation_shapes_perceived_time,2022.2.4,119.65300626534918,
,33,0.8,met,,red,green,,976.7211348814752,0,0,0,0,0,25,25,188,fam,0.556435300008161,0.556435300008161,270.0000000000009,2.547859199999948,2.547859199999948,,,,,,,,,,,,,,,,,,,,,,,,,,,,,,,,,,,,marika_expectedh2,001,2023-04-28_16h29.23.427,expectation_shapes_perceived_time,2022.2.4,119.65300626534918,
,33,0.8,met,,red,green,,976.7211348814752,1,0,1,0,0,25,25,188,fam,0.49735610000789165,0.49735610000789165,270.0000000000009,2.4889840000105323,2.4889840000105323,,,,,,,,,,,,,,,,,,,,,,,,,,,,,,,,,,,,marika_expectedh2,001,2023-04-28_16h29.23.427,expectation_shapes_perceived_time,2022.2.4,119.65300626534918,
,33,0.8,met,,red,green,,976.7211348814752,2,0,2,0,0,25,25,188,fam,0.49875179999799,0.49875179999799,270.0000000000009,2.4902795999951195,2.4902795999951195,,,,,,,,,,,,,,,,,,,,,,,,,,,,,,,,,,,,marika_expectedh2,001,2023-04-28_16h29.23.427,expectation_shapes_perceived_time,2022.2.4,119.65300626534918,
,33,0.8,met,,red,green,,976.7211348814752,3,0,3,0,0,25,25,188,fam,0.49766449999879114,0.49766449999879114,270.0000000000009,2.489566999996896,2.489566999996896,,,,,,,,,,,,,,,,,,,,,,,,,,,,,,,,,,,,marika_expectedh2,001,2023-04-28_16h29.23.427,expectation_shapes_perceived_time,2022.2.4,119.65300626534918,
,33,0.8,met,,red,green,,976.7211348814752,,,,,0,25,25,188,trial,,,,,,red,0.9767211348814753,0.975,2.2921582000126364,0.9977584000007482,4e-05,4e-05,0.9753501000086544,1.0087377000018023,2.000383200007491,2.2921582000126364,2.2921582000126364,2.4921288000041386,2.6918593000009423,0.39970109998830594,3.7169076000136556,1.4247494000010192,1.0250483000127133,1.02143,-0.011335088919719193,-0.168137152309168,,,,None,,0.03333,2.033897800007253,0.033,0.03333333333333333,1.0430511348814753,1.0416666666666667,trial_list_0.8_red.csv,1.0421516000060365,1.0754224000120303,marika_expectedh2,001,2023-04-28_16h29.23.427,expectation_shapes_perceived_time,2022.2.4,119.65300626534918,
,-33,0.1999999999999999,unmet,,green,red,,1477.4336047305617,,,,,0,26,26,18,trial,,,,,,green,1.4774336047305616,1.475,2.29182509999373,0.9961155000055442,6e-05,6e-05,1.4752556999883382,1.5085487999895122,2.000110599998152,2.29182509999373,2.29182509999373,2.4917586999945343,2.29182509999373,0.0,4.158431699994253,1.866606600000523,1.866606600000523,1.61658,-0.15734176667478,0.06035026666977864,,,,None,,,,-0.033,-0.03333333333333333,1.4111036047305618,1.4083333333333332,trial_list_0.8_red.csv,1.4085068999993382,1.4417526999895927,marika_expectedh2,001,2023-04-28_16h29.23.427,expectation_shapes_perceived_time,2022.2.4,119.65300626534918,
