id,delay,expectation,congruency,trial_num,stim_color,distractor_color,block,famLoop.thisRepN,famLoop.thisTrialN,famLoop.thisN,famLoop.thisIndex,trialss.thisRepN,trialss.thisTrialN,trialss.thisN,trialss.thisIndex,isTrial,handMove.started,audioCue2Start.started,handOri,handMove.ended,audioCue2End.started,target_color,expected_target_onset,expected_target_onset_in_frames,fixationPoint.started,fixationPoint.stopped,audCueStart.started,placeholder.started,audCueStart.stopped,target.started,target.stopped,audCueEnd.started,responsePointer.started,cueForRep.started,space2pass.started,responseStarted,rtUntillMotionTreshold,responsePointer.stopped,rTAfterMotionTreshold,rtDurationBtwRespMotion,perceivedTime,resp_x_coord,resp_y_coord,feedbackPointer.stopped,actualTime_x_coord,actualTime_y_coord,space2pass.keys,space2pass.rt,audCueEnd.stopped,expected_delay,expected_delays_frame,expected_distractor,expected_distractor_frame,expBlockFiles,distractor.started,distractor.stopped,participant,session,date,expName,psychopyVersion,frameRate,
,,,,,,,,0,0,0,0,,,,,fam,1.3392600000079256,1.3392600000079256,269.99999999999955,3.347874500002945,3.347874500002945,,,,,,,,,,,,,,,,,,,,,,,,,,,,,,,,,,,,ahmed_base01,001,2023-04-29_13h16.43.447,expectation_shapes_perceived_time,2022.2.4,120.36301485659816,
,,,,,,,,1,0,1,0,,,,,fam,0.49647849999018945,0.49647849999018945,269.99999999999955,2.505381499999203,2.505381499999203,,,,,,,,,,,,,,,,,,,,,,,,,,,,,,,,,,,,ahmed_base01,001,2023-04-29_13h16.43.447,expectation_shapes_perceived_time,2022.2.4,120.36301485659816,
,,,,,,,,2,0,2,0,,,,,fam,0.49703619998763315,0.49703619998763315,269.99999999999955,2.5060222999891266,2.5060222999891266,,,,,,,,,,,,,,,,,,,,,,,,,,,,,,,,,,,,ahmed_base01,001,2023-04-29_13h16.43.447,expectation_shapes_perceived_time,2022.2.4,120.36301485659816,
,,,,,,,,3,0,3,0,,,,,fam,0.49747329999809153,0.49747329999809153,269.99999999999955,2.505487600021297,2.505487600021297,,,,,,,,,,,,,,,,,,,,,,,,,,,,,,,,,,,,ahmed_base01,001,2023-04-29_13h16.43.447,expectation_shapes_perceived_time,2022.2.4,120.36301485659816,
,,,,,,,,4,0,4,0,,,,,fam,0.49762749997898936,0.49762749997898936,269.99999999999955,2.505709199991543,2.505709199991543,,,,,,,,,,,,,,,,,,,,,,,,,,,,,,,,,,,,ahmed_base01,001,2023-04-29_13h16.43.447,expectation_shapes_perceived_time,2022.2.4,120.36301485659816,
,,,,,,,,5,0,5,0,,,,,fam,0.4974434000032488,0.4974434000032488,269.99999999999955,2.5060586000035983,2.5060586000035983,,,,,,,,,,,,,,,,,,,,,,,,,,,,,,,,,,,,ahmed_base01,001,2023-04-29_13h16.43.447,expectation_shapes_perceived_time,2022.2.4,120.36301485659816,
,,,,,,,,6,0,6,0,,,,,fam,0.4974385999958031,0.4974385999958031,269.99999999999955,2.5055797999957576,2.5055797999957576,,,,,,,,,,,,,,,,,,,,,,,,,,,,,,,,,,,,ahmed_base01,001,2023-04-29_13h16.43.447,expectation_shapes_perceived_time,2022.2.4,120.36301485659816,
,,,,,,,,7,0,7,0,,,,,fam,0.4970477999886498,0.4970477999886498,269.99999999999955,2.505486899986863,2.505486899986863,,,,,,,,,,,,,,,,,,,,,,,,,,,,,,,,,,,,ahmed_base01,001,2023-04-29_13h16.43.447,expectation_shapes_perceived_time,2022.2.4,120.36301485659816,
,,,,,,,,8,0,8,0,,,,,fam,0.49744820001069456,0.49744820001069456,269.99999999999955,2.5058013000234496,2.5058013000234496,,,,,,,,,,,,,,,,,,,,,,,,,,,,,,,,,,,,ahmed_base01,001,2023-04-29_13h16.43.447,expectation_shapes_perceived_time,2022.2.4,120.36301485659816,
,,,,,,,,9,0,9,0,,,,,fam,0.49858230000245385,0.49858230000245385,269.99999999999955,2.5070475000247825,2.5070475000247825,,,,,,,,,,,,,,,,,,,,,,,,,,,,,,,,,,,,ahmed_base01,001,2023-04-29_13h16.43.447,expectation_shapes_perceived_time,2022.2.4,120.36301485659816,
,,,,,,,,10,0,10,0,,,,,fam,0.4972641000058502,0.4972641000058502,269.99999999999955,2.505797799996799,2.505797799996799,,,,,,,,,,,,,,,,,,,,,,,,,,,,,,,,,,,,ahmed_base01,001,2023-04-29_13h16.43.447,expectation_shapes_perceived_time,2022.2.4,120.36301485659816,
,,,,,,,,11,0,11,0,,,,,fam,0.49726440000813454,0.49726440000813454,269.99999999999955,2.505388999998104,2.505388999998104,,,,,,,,,,,,,,,,,,,,,,,,,,,,,,,,,,,,ahmed_base01,001,2023-04-29_13h16.43.447,expectation_shapes_perceived_time,2022.2.4,120.36301485659816,
,,,,,,,,12,0,12,0,,,,,fam,0.4986897999770008,0.4986897999770008,269.99999999999955,2.507293299975572,2.507293299975572,,,,,,,,,,,,,,,,,,,,,,,,,,,,,,,,,,,,ahmed_base01,001,2023-04-29_13h16.43.447,expectation_shapes_perceived_time,2022.2.4,120.36301485659816,
,,,,,,,,13,0,13,0,,,,,fam,0.4975540000014007,0.4975540000014007,269.99999999999955,2.505937300011283,2.505937300011283,,,,,,,,,,,,,,,,,,,,,,,,,,,,,,,,,,,,ahmed_base01,001,2023-04-29_13h16.43.447,expectation_shapes_perceived_time,2022.2.4,120.36301485659816,
,,,,,,,,14,0,14,0,,,,,fam,0.49749189999420196,0.49749189999420196,269.99999999999955,2.5058970999962185,2.5058970999962185,,,,,,,,,,,,,,,,,,,,,,,,,,,,,,,,,,,,ahmed_base01,001,2023-04-29_13h16.43.447,expectation_shapes_perceived_time,2022.2.4,120.36301485659816,
,,,,,,,,15,0,15,0,,,,,fam,0.49736189999384806,0.49736189999384806,269.99999999999955,2.505356400011806,2.505356400011806,,,,,,,,,,,,,,,,,,,,,,,,,,,,,,,,,,,,ahmed_base01,001,2023-04-29_13h16.43.447,expectation_shapes_perceived_time,2022.2.4,120.36301485659816,
,,,,,,,,16,0,16,0,,,,,fam,0.49776560001191683,0.49776560001191683,269.99999999999955,2.5065570999868214,2.5065570999868214,,,,,,,,,,,,,,,,,,,,,,,,,,,,,,,,,,,,ahmed_base01,001,2023-04-29_13h16.43.447,expectation_shapes_perceived_time,2022.2.4,120.36301485659816,
,,,,,,,,17,0,17,0,,,,,fam,0.4974497999937739,0.4974497999937739,269.99999999999955,2.5058360999973956,2.5058360999973956,,,,,,,,,,,,,,,,,,,,,,,,,,,,,,,,,,,,ahmed_base01,001,2023-04-29_13h16.43.447,expectation_shapes_perceived_time,2022.2.4,120.36301485659816,
,,,,,,,,18,0,18,0,,,,,fam,0.4972728000138886,0.4972728000138886,269.99999999999955,2.5058544000203256,2.5058544000203256,,,,,,,,,,,,,,,,,,,,,,,,,,,,,,,,,,,,ahmed_base01,001,2023-04-29_13h16.43.447,expectation_shapes_perceived_time,2022.2.4,120.36301485659816,
,,,,,,,,19,0,19,0,,,,,fam,0.4977150999766309,0.4977150999766309,269.99999999999955,2.505588699976215,2.505588699976215,,,,,,,,,,,,,,,,,,,,,,,,,,,,,,,,,,,,ahmed_base01,001,2023-04-29_13h16.43.447,expectation_shapes_perceived_time,2022.2.4,120.36301485659816,
,,,,,,,,,,,,0,0,0,0,test,,,,,,red,0.921636916004852,0.9173553719008265,2.3080542999960016,0.9990758999774698,4.05999890062958e-05,4e-05,0.033237600000575185,0.9246686999977101,0.9583273000025656,1.999547099985648,2.3080542999960016,2.3080542999960016,2.6080360999912955,3.5079894999798853,1.1999351999838836,8.99980669998331,6.691752399987308,5.491817200003425,0.58677,0.14236460811719537,-0.03980085818330194,8.99980669998331,0.0360254258371217,-0.14336651857998076,space,6.3919630000018515,,,,,,,,,ahmed_base01,001,2023-04-29_13h16.43.447,expectation_shapes_perceived_time,2022.2.4,120.36301485659816,
,,,,,,,,,,,,1,0,1,0,test,,,,,,green,1.5025688226504483,1.4958677685950414,2.3079277999931946,0.9962156999972649,4.980000085197389e-05,5e-05,0.03310959998634644,1.507595000002766,1.5409125000005588,1.9996664999925997,2.3079277999931946,2.3079277999931946,2.607950700010406,2.641467100009322,0.3335393000161275,8.049642300000414,5.74171450000722,5.408175199991092,1.26196,-0.10838003254017581,-0.10052640699378626,8.049642300000414,-0.1478186957837139,0.001192951504363521,space,5.439550799987046,,,,,,,,,ahmed_base01,001,2023-04-29_13h16.43.447,expectation_shapes_perceived_time,2022.2.4,120.36301485659816,
,,,,,,,,,,,,2,0,2,0,test,,,,,,red,0.3736518644081334,0.371900826446281,2.307802900002571,0.9968507000012323,4.040001658722758e-05,4e-05,,0.37491760001285,0.40831990001606755,2.000145700003486,2.307802900002571,2.307802900002571,2.607774000003701,3.391547100007301,1.0837442000047304,6.933373300009407,4.625570400006836,3.541826200002106,0.73545,0.1091950628290049,-0.09964049483146697,6.933373300009407,0.13633030181166578,0.05714751757014512,space,4.3252825000090525,,,,,,,,,ahmed_base01,001,2023-04-29_13h16.43.447,expectation_shapes_perceived_time,2022.2.4,120.36301485659816,
,,,,,,,,,,,,3,0,3,0,test,,,,,,green,1.6467849459151231,1.6363636363636365,2.308397499989951,0.9964479000191204,3.200001083314419e-05,3e-05,0.03333420000853948,1.6501083000039216,1.6834327999968082,2.000225399999181,2.308397499989951,2.308397499989951,2.608638300007442,2.308397499989951,0.0,7.824970899993787,5.516573400003836,5.516573400003836,1.45483,-0.14633780836598625,-0.020905401195140897,7.824970899993787,-0.13238282336557844,0.06577672866788054,space,5.215411999990465,2.033588799997233,,,,,,,,ahmed_base01,001,2023-04-29_13h16.43.447,expectation_shapes_perceived_time,2022.2.4,120.36301485659816,
,,,,,,,,,,,,4,0,4,0,test,,,,,,red,0.8479192215644943,0.8429752066115703,2.308638099988457,0.9966529000084847,3.369999467395246e-05,3e-05,,0.8496510999975726,0.8830910999968182,2.000112599984277,2.308638099988457,2.308638099988457,2.6084539000003133,2.308638099988457,0.0,9.758119599981,7.449481499992544,7.449481499992544,0.64898,0.13192614708271783,-0.06668794248137386,9.758119599981,0.06797002289908757,-0.13127020203986675,space,7.142263499990804,,,,,,,,,ahmed_base01,001,2023-04-29_13h16.43.447,expectation_shapes_perceived_time,2022.2.4,120.36301485659816,
,,,,,,,,,,,,5,0,5,0,test,,,,,,green,1.0778957272758443,1.0743801652892562,2.308965599979274,0.9968047000002116,3.809999907389283e-05,4e-05,0.033248099993215874,1.0837646999862045,1.1171440999896731,2.000518099986948,2.308965599979274,2.308965599979274,2.608453399996506,2.384035399998538,0.07506980001926422,8.50874499999918,6.1997794000199065,6.124709600000642,0.62433,0.13668916166053663,-0.05628377244845626,8.50874499999918,-0.03581488998879197,-0.14341925816145001,space,5.897241799975745,2.033857899979921,,,,,,,,ahmed_base01,001,2023-04-29_13h16.43.447,expectation_shapes_perceived_time,2022.2.4,120.36301485659816,
,,,,,,,,,,,,6,0,6,0,test,,,,,,red,1.2073348555136882,1.1983471074380165,2.308261099999072,0.9968932000047062,3.2100011594593525e-05,3e-05,0.03321130000404082,1.2080704999971204,1.2415228000027128,2.000140999996802,2.308261099999072,2.308261099999072,2.608265799994115,3.3082768000022043,1.0000157000031322,10.366124099993613,8.05786299999454,7.057847299991408,0.93598,0.029531238726253482,-0.14484369470495756,10.366124099993613,-0.08962093529000978,-0.11755797682094482,space,7.755712899990613,2.0333173999970313,,,,,,,,ahmed_base01,001,2023-04-29_13h16.43.447,expectation_shapes_perceived_time,2022.2.4,120.36301485659816,
,,,,,,,,,,,,7,0,7,0,test,,,,,,green,1.4603847558732568,1.4545454545454546,2.3079595000017434,0.9984948000055738,4.0399987483397126e-05,4e-05,0.033059799985494465,1.46631950000301,1.4995206999883521,1.9999145999900065,2.3079595000017434,2.3079595000017434,2.607981799985282,2.3079595000017434,0.0,5.9915559999935795,3.683596499991836,3.683596499991836,1.27691,-0.11298024936170592,-0.09532708539893936,5.9915559999935795,-0.1466801644972704,-0.018349912793896896,space,3.382010499975877,2.0331348000036087,,,,,,,,ahmed_base01,001,2023-04-29_13h16.43.447,expectation_shapes_perceived_time,2022.2.4,120.36301485659816,
,,,,,,,,,,,,8,0,8,0,test,,,,,,green,1.2318202861656762,1.2231404958677685,2.3078967000183184,0.9965331999992486,3.200001083314419e-05,3e-05,0.03322900002240203,1.2338368000055198,1.2669957000180148,1.9996034000068903,2.3078967000183184,2.3078967000183184,2.608402700017905,2.9750938000215683,0.6671971000032499,5.175108499999624,2.8672117999813054,2.2000146999780554,0.93132,0.03164841046882887,-0.14439587276403174,5.175108499999624,-0.09838994016699795,-0.1103232053125021,space,2.565976599988062,2.0331800999992993,,,,,,,,ahmed_base01,001,2023-04-29_13h16.43.447,expectation_shapes_perceived_time,2022.2.4,120.36301485659816,
,,,,,,,,,,,,9,0,9,0,test,,,,,,red,1.4809834249414227,1.4710743801652892,2.3081800999934785,0.9964508999837562,3.2100011594593525e-05,3e-05,,1.4830634999962058,1.5165641999919899,2.000198099995032,2.3081800999934785,2.3081800999934785,2.608080800011521,2.3081800999934785,0.0,7.5164871999877505,5.208307099994272,5.208307099994272,1.5696,-0.1443033971503294,0.032067421588962086,7.5164871999877505,-0.14755978607262948,-0.008826068812882436,space,4.903031499998178,,,,,,,,,ahmed_base01,001,2023-04-29_13h16.43.447,expectation_shapes_perceived_time,2022.2.4,120.36301485659816,
,,,,,,,,,,,,10,0,10,0,test,,,,,,red,1.6954056257975523,1.6859504132231407,2.3081662000040524,0.9969451999932062,4.060001811012626e-05,4e-05,0.03355059999739751,1.6998624000116251,1.733210100006545,2.000042100000428,2.3081662000040524,2.3081662000040524,2.6076802000170574,2.3081662000040524,0.0,7.324567600007867,5.016401400003815,5.016401400003815,1.69705,-0.12039053446100123,0.08577825580346339,7.324567600007867,-0.12083334880862881,0.08515334269529393,space,4.715145399997709,2.033364500006428,,,,,,,,ahmed_base01,001,2023-04-29_13h16.43.447,expectation_shapes_perceived_time,2022.2.4,120.36301485659816,
,,,,,,,,,,,,11,0,11,0,test,,,,,,red,0.2856109481143128,0.2809917355371901,2.3084699000173714,0.9976038000022527,4.080001963302493e-05,4e-05,0.03370390000054613,0.2834514999995008,0.3166405000083614,2.0000819000124466,2.3084699000173714,2.3084699000173714,2.608421000011731,2.50028010000824,0.19181019999086857,5.233128300023964,2.9246584000065923,2.7328482000157237,0.27486,0.11236380475661112,0.09605292987258693,5.233128300023964,0.11554314612988086,0.0922039659607922,space,2.620972700009588,,,,,,,,,ahmed_base01,001,2023-04-29_13h16.43.447,expectation_shapes_perceived_time,2022.2.4,120.36301485659816,
,,,,,,,,,,,,12,0,12,0,test,,,,,,red,0.32445775585877745,0.3223140495867769,2.3080778000003193,0.997169499984011,4.020001506432891e-05,4e-05,0.03305019999970682,0.32481220000772737,0.3581091999949422,2.0000686999992467,2.3080778000003193,2.3080778000003193,2.6079929000115953,2.3080778000003193,0.0,5.549724200012861,3.2416464000125416,3.2416464000125416,0.39126,0.13928148220547426,0.04952230478416862,5.549724200012861,0.12590850361362066,0.077452170236016,space,2.940154599986272,2.0330429000023287,,,,,,,,ahmed_base01,001,2023-04-29_13h16.43.447,expectation_shapes_perceived_time,2022.2.4,120.36301485659816,
,,,,,,,,,,,,13,0,13,0,test,,,,,,red,0.5869464330224449,0.5867768595041323,2.3083164000127,0.9977283999905922,3.220001235604286e-05,3e-05,0.03335129999322817,0.5918853000039235,0.6250359000114258,1.9999631000100635,2.3083164000127,2.3083164000127,2.6083834000164643,2.3083164000127,0.0,5.075754199991934,2.767437799979234,2.767437799979234,0.24518,0.10293144923428428,0.10609857074918534,5.075754199991934,0.1423430767433705,-0.03987779406788776,space,2.4622055999934673,2.033336299995426,,,,,,,,ahmed_base01,001,2023-04-29_13h16.43.447,expectation_shapes_perceived_time,2022.2.4,120.36301485659816,
,,,,,,,,,,,,14,0,14,0,test,,,,,,green,0.32490759169362754,0.3223140495867769,2.308202700020047,0.9972441999998409,4.1399995097890496e-05,4e-05,,0.32431630001519807,0.35761430001002736,1.9998508999997284,2.308202700020047,2.308202700020047,2.6082090999989305,2.6416730000055395,0.3334702999854926,5.249656700005289,2.9414539999852423,2.6079836999997497,0.30532,0.12102784913364442,0.08487667341839998,5.249656700005289,0.12601783332982064,0.07727415893652592,space,2.634900999983074,,,,,,,,,ahmed_base01,001,2023-04-29_13h16.43.447,expectation_shapes_perceived_time,2022.2.4,120.36301485659816,
,,,,,,,,,,,,15,0,15,0,test,,,,,,green,0.6690484483273125,0.6694214876033058,2.3081655999994837,0.9970565999974497,4.049998824484646e-05,4e-05,,0.6752505999756977,0.7083569999958854,2.000131799984956,2.3081655999994837,2.3081655999994837,2.6082859999733046,2.316563199972734,0.00839759997325018,4.566577299992787,2.258411699993303,2.250014100020053,0.58295,0.14283223975897488,-0.038088597269059964,4.566577299992787,0.12746228464309955,-0.07486758944998426,space,1.952857900003437,,,,,,,,,ahmed_base01,001,2023-04-29_13h16.43.447,expectation_shapes_perceived_time,2022.2.4,120.36301485659816,
,,,,,,,,,,,,16,0,16,0,test,,,,,,red,1.6513251548599162,1.6446280991735538,2.308599400013918,0.9972926999907941,4.029998672194779e-05,4e-05,0.03344609998748638,1.6583769000135362,1.6917921999993268,1.9999960999994073,2.308599400013918,2.308599400013918,2.6084238000039477,2.308599400013918,0.0,7.200023100012913,4.891423699998995,4.891423699998995,1.60125,-0.14040798293832166,0.046231896821154694,7.200023100012913,-0.13143118343912016,0.06765821440359084,space,4.585951499990188,2.033625000010943,,,,,,,,ahmed_base01,001,2023-04-29_13h16.43.447,expectation_shapes_perceived_time,2022.2.4,120.36301485659816,
,,,,,,,,,,,,17,0,17,0,test,,,,,,red,1.765258849106499,1.7520661157024793,2.308084999996936,0.9969130999816116,4.010001430287957e-05,4e-05,0.03338380000786856,1.7667347000096925,1.7998809000127949,2.000033699994674,2.308084999996936,2.308084999996936,2.608364400017308,2.308084999996936,0.0,4.6579243000014685,2.3498393000045326,2.3498393000045326,1.48471,-0.14765296614226014,-0.007098700295300968,4.6579243000014685,-0.09939812784697741,0.10941573075662321,space,2.0497770000074524,2.0333047000167426,,,,,,,,ahmed_base01,001,2023-04-29_13h16.43.447,expectation_shapes_perceived_time,2022.2.4,120.36301485659816,
,,,,,,,,,,,,18,0,18,0,test,,,,,,red,1.1459803643985407,1.140495867768595,2.308467800001381,0.9967176000063773,3.2199983252212405e-05,3e-05,0.03348539999569766,1.150072899996303,1.1836890999984462,1.9998887999972794,2.308467800001381,2.308467800001381,2.608144700003322,2.3168206999835093,0.008352899982128292,4.40824629997951,2.099778499978129,2.0914255999960005,1.38194,-0.13777220140373747,-0.053578078323675685,4.40824629997951,-0.06544189915266516,-0.1325486619765825,space,1.799237400002312,2.0332373999990523,,,,,,,,ahmed_base01,001,2023-04-29_13h16.43.447,expectation_shapes_perceived_time,2022.2.4,120.36301485659816,
,,,,,,,,,,,,19,0,19,0,test,,,,,,red,0.8922406077403319,0.8842975206611571,2.308674100000644,0.9969347000005655,3.260001540184021e-05,3e-05,0.03308459999971092,0.8916035000002012,0.9251746000081766,2.000201000017114,2.308674100000644,2.308674100000644,2.608488199999556,2.6167998000164516,0.3081257000158075,4.457880900008604,2.14920680000796,1.8410810999921523,0.83134,0.07471046164762883,-0.12755444671546384,4.457880900008604,0.04909317066964438,-0.13943331936840309,space,1.8464251999976113,2.03367979999166,,,,,,,,ahmed_base01,001,2023-04-29_13h16.43.447,expectation_shapes_perceived_time,2022.2.4,120.36301485659816,
,,,,,,,,,,,,20,0,20,0,test,,,,,,green,0.7738977059952488,0.768595041322314,2.308260200021323,0.9988020000164397,4.010001430287957e-05,4e-05,,0.775031700002728,0.808511900017038,1.9998651000205427,2.308260200021323,2.308260200021323,2.608172200008994,2.308260200021323,0.0,4.224910999997519,1.9166507999761961,1.9166507999761961,0.7093,0.11700308995693812,-0.09034415806801552,4.224910999997519,0.09639237023297105,-0.11207274832607506,space,1.6133314999751747,2.033092600002419,,,,,,,,ahmed_base01,001,2023-04-29_13h16.43.447,expectation_shapes_perceived_time,2022.2.4,120.36301485659816,
,,,,,,,,,,,,21,0,21,0,test,,,,,,green,1.7970921682512357,1.7851239669421488,2.308344199991552,0.9969857999822125,4.049998824484646e-05,4e-05,0.033114599995315075,1.7997279999835882,1.8332311999984086,1.999858499999391,2.308344199991552,2.308344199991552,2.608080899983179,2.308344199991552,0.0,4.216250800003763,1.9079066000122111,1.9079066000122111,1.54807,-0.14614110607861547,0.022238863968484963,4.216250800003763,-0.08797733524393639,0.11879300669595812,space,1.6036918000027072,2.033079499989981,,,,,,,,ahmed_base01,001,2023-04-29_13h16.43.447,expectation_shapes_perceived_time,2022.2.4,120.36301485659816,
,,,,,,,,,,,,22,0,22,0,test,,,,,,red,0.20810051433017662,0.2066115702479339,2.3085558000020683,0.9966838000109419,4.069998976774514e-05,4e-05,0.033402200002456084,0.20848810000461526,0.24177550000604242,1.9998934000032023,2.3085558000020683,2.3085558000020683,2.608312399999704,2.374874200002523,0.06631840000045486,6.541521899984218,4.23296609998215,4.166647699981695,0.21303,0.09171015949942365,0.11593548465021482,6.541521899984218,0.0899034483089655,0.11734206380768616,space,3.930907100002514,2.0333838000078686,,,,,,,,ahmed_base01,001,2023-04-29_13h16.43.447,expectation_shapes_perceived_time,2022.2.4,120.36301485659816,
,,,,,,,,,,,,23,0,23,0,test,,,,,,green,1.0886850671936872,1.0826446280991735,2.308195599995088,0.9972115000127815,4.069998976774514e-05,4e-05,0.03308110000216402,1.0911264999886043,1.1245030999998562,1.9995897999906447,2.308195599995088,2.308195599995088,2.6078795999928843,2.3163737999857403,0.008178199990652502,4.766397800005507,2.458202200010419,2.4500240000197664,1.18515,-0.08121516198545017,-0.12351472551953882,4.766397800005507,-0.04065468466089349,-0.14212313876217778,space,2.158201599988388,2.032967799983453,,,,,,,,ahmed_base01,001,2023-04-29_13h16.43.447,expectation_shapes_perceived_time,2022.2.4,120.36301485659816,
,,,,,,,,,,,,24,0,24,0,test,,,,,,green,1.6336041358825346,1.6280991735537191,2.308461200009333,0.9965082999842707,2.0400009816512465e-05,2e-05,,1.6422314000083134,1.6752827000163961,2.0003216000040993,2.308461200009333,2.308461200009333,2.6088027000078,2.3919536000175867,0.08349240000825375,5.133115800010273,2.8246546000009403,2.7411621999926865,1.78056,-0.09402649567251056,0.11406492917648822,5.133115800010273,-0.13499229513397623,0.06024010467248024,space,2.518446199974278,2.033908999990672,,,,,,,,ahmed_base01,001,2023-04-29_13h16.43.447,expectation_shapes_perceived_time,2022.2.4,120.36301485659816,
,,,,,,,,,,,,25,0,25,0,test,,,,,,red,1.0104686224292545,1.0082644628099173,2.3085615999880247,0.9976123000087682,2.5699991965666413e-05,3e-05,0.0333602000027895,1.0167690999805927,1.0500294999801554,2.000637099990854,2.3085615999880247,2.3085615999880247,2.608594199991785,2.4168925999838393,0.10833099999581464,4.541914500005078,2.233352900017053,2.1250219000212383,0.59277,0.14158924295846204,-0.04247677288753861,4.541914500005078,-0.004860764987871553,-0.14774357150218959,space,1.9300126999733038,2.03385919998982,,,,,,,,ahmed_base01,001,2023-04-29_13h16.43.447,expectation_shapes_perceived_time,2022.2.4,120.36301485659816,
,,,,,,,,,,,,26,0,26,0,test,,,,,,green,0.865192283557587,0.859504132231405,2.3084165999898687,0.9969323999830522,4.05999890062958e-05,4e-05,0.033424099994590506,0.8666082000127062,0.9001797999953851,1.9999226999934763,2.3084165999898687,2.3084165999898687,2.6082279999973252,2.3164536000113003,0.008037000021431595,4.108130300010089,1.7997137000202201,1.7916766999987885,0.79918,0.08719709594047649,-0.11936689832628336,4.108130300010089,0.06075010027094822,-0.1347635532091658,space,1.4922944999998435,2.033188600005815,,,,,,,,ahmed_base01,001,2023-04-29_13h16.43.447,expectation_shapes_perceived_time,2022.2.4,120.36301485659816,
,,,,,,,,,,,,27,0,27,0,test,,,,,,red,0.5406831145067486,0.5371900826446281,2.308452800003579,0.9968209999788087,4.049998824484646e-05,4e-05,0.03344830000423826,0.541694199986523,0.5750115999835543,2.0002461999829393,2.308452800003579,2.308452800003579,2.608332900010282,2.308452800003579,0.0,4.741673099983018,2.433220299979439,2.433220299979439,0.55535,0.1455939253797442,-0.025577311215360464,4.741673099983018,0.1466177786477944,-0.01884189324023178,space,2.128179999999702,2.033600700000534,,,,,,,,ahmed_base01,001,2023-04-29_13h16.43.447,expectation_shapes_perceived_time,2022.2.4,120.36301485659816,
,,,,,,,,,,,,28,0,28,0,test,,,,,,green,0.696182001597149,0.6942148760330579,2.3080661999993026,0.9970014000136871,3.71999922208488e-05,4e-05,0.03318319999380037,0.6999876000045333,0.7334396000078414,1.9999874999921303,2.3080661999993026,2.3080661999993026,2.6077449999866076,2.3080661999993026,0.0,5.066404100012733,2.75833790001343,2.75833790001343,0.73855,0.10821698031423162,-0.10070191223685443,5.066404100012733,0.12062529578142533,-0.0854478084805782,space,2.45885489997454,2.033271499996772,,,,,,,,ahmed_base01,001,2023-04-29_13h16.43.447,expectation_shapes_perceived_time,2022.2.4,120.36301485659816,
,,,,,,,,,,,,29,0,29,0,test,,,,,,green,0.6214485192390216,0.6198347107438017,2.3087082999991253,0.9969180999905802,3.23000131174922e-05,3e-05,0.03313480000360869,0.6248435000015888,0.6582750999950804,1.9998747000063304,2.3087082999991253,2.3087082999991253,2.6083963999990374,2.3164480999985244,0.007739799999399111,4.032958399999188,1.724250100000063,1.7165103000006638,0.61236,0.13870917262908752,-0.051103379389663826,4.032958399999188,0.13719376568962427,-0.055042352896568635,space,1.4224946000031196,2.0331420000002254,,,,,,,,ahmed_base01,001,2023-04-29_13h16.43.447,expectation_shapes_perceived_time,2022.2.4,120.36301485659816,
,,,,,,,,,,,,30,0,30,0,test,,,,,,red,0.28742159001687584,0.2892561983471075,2.308264599996619,0.9969938000140246,8.940001134760678e-05,9e-05,0.03340290000778623,0.29173749999608845,0.32525349999195896,2.000000200001523,2.308264599996619,2.308264599996619,2.6085378999996465,2.308264599996619,0.0,4.451810700003989,2.14354610000737,2.14354610000737,0.17311,0.07648674255301478,0.12649730499152448,4.451810700003989,0.11606575776118422,0.0915452338017225,space,1.8395768000045791,2.0335098000068683,,,,,,,,ahmed_base01,001,2023-04-29_13h16.43.447,expectation_shapes_perceived_time,2022.2.4,120.36301485659816,
,,,,,,,,,,,,31,0,31,0,test,,,,,,red,1.5221546945846367,1.512396694214876,2.308408100012457,0.9953808000136632,3.3400021493434906e-05,3e-05,0.03299090001382865,1.5249506000254769,1.5581197999999858,2.0000017000129446,2.308408100012457,2.308408100012457,2.6080784000223503,2.308408100012457,0.0,5.399685300013516,3.091277200001059,3.091277200001059,1.80404,-0.08536286160688446,0.12068542503042286,5.399685300013516,-0.14746560308463907,0.010280362998144107,space,2.7894904999702703,2.033317100023851,,,,,,,,ahmed_base01,001,2023-04-29_13h16.43.447,expectation_shapes_perceived_time,2022.2.4,120.36301485659816,
,,,,,,,,,,,,32,0,32,0,test,,,,,,red,1.1704761375756894,1.1652892561983472,2.308489399991231,0.997153200005414,3.200001083314419e-05,3e-05,0.03306819999124855,1.1749639000045136,1.208189199998742,1.9998801999900024,2.308489399991231,2.308489399991231,2.6079964000091422,2.458254700002726,0.14976530001149513,4.433090700011235,2.1246013000200037,1.9748360000085086,1.37653,-0.13684102563488706,-0.055913537356190424,4.433090700011235,-0.07543853061233058,-0.12712520621632195,space,1.8203311999968719,2.0332760000019334,,,,,,,,ahmed_base01,001,2023-04-29_13h16.43.447,expectation_shapes_perceived_time,2022.2.4,120.36301485659816,
,,,,,,,,,,,,33,0,33,0,test,,,,,,red,0.8483053174275024,0.8429752066115703,2.308487600006629,0.996755200001644,3.3800024539232254e-05,3e-05,,0.8499806000036187,0.8833224000118207,2.0000574000005145,2.308487600006629,2.308487600006629,2.608072800008813,2.3501222000049893,0.0416345999983605,4.691618400014704,2.3831308000080753,2.341496200009715,0.57996,0.14318347210104626,-0.03674620080469328,4.691618400014704,0.0678107479677012,-0.1313525500953477,space,2.0827194999728817,,,,,,,,,ahmed_base01,001,2023-04-29_13h16.43.447,expectation_shapes_perceived_time,2022.2.4,120.36301485659816,
,,,,,,,,,,,,34,0,34,0,test,,,,,,green,1.819117457552382,1.8099173553719008,2.308533500006888,0.9966106999781914,4.050001734867692e-05,4e-05,,1.8251812000235077,1.8584010000049602,2.000074100011261,2.308533500006888,2.308533500006888,2.608226600015769,2.3169363000197336,0.008402800012845546,5.27508449999732,2.9665509999904316,2.958148199977586,1.06589,-0.030380278831888152,-0.14466799443756262,5.27508449999732,-0.07955354344490545,0.12459142699981192,space,2.663643999985652,2.0336150000221096,,,,,,,,ahmed_base01,001,2023-04-29_13h16.43.447,expectation_shapes_perceived_time,2022.2.4,120.36301485659816,
,,,,,,,,,,,,35,0,35,0,test,,,,,,green,0.9418034918371757,0.9338842975206612,2.3077267999760807,0.9968328999821097,4.1099992813542485e-05,4e-05,0.033018299989635125,0.9414443999994546,0.9748494999948889,2.0001531999732833,2.3077267999760807,2.3077267999760807,2.6082820000010543,2.999687699979404,0.6919609000033233,7.916508999973303,5.608782199997222,4.916821299993899,0.90937,0.041523439518464614,-0.14187175168808744,7.916508999973303,0.026876214676876363,-0.14535975729593242,space,5.3083474000159185,2.0332616999803577,,,,,,,,ahmed_base01,001,2023-04-29_13h16.43.447,expectation_shapes_perceived_time,2022.2.4,120.36301485659816,
,,,,,,,,,,,,36,0,36,0,test,,,,,,red,1.5093356531622275,1.5041322314049588,2.3083304000028875,0.9968007999996189,4.040001658722758e-05,4e-05,0.03309860001900233,1.5164345000230242,1.5498825999966357,1.99991760001285,2.3083304000028875,2.3083304000028875,2.608177300018724,2.3083304000028875,0.0,4.283151200012071,1.9748208000091836,1.9748208000091836,1.5227,-0.147447845575419,0.010531988969672789,4.283151200012071,-0.14775993665520176,0.004334867488250365,space,1.671264999982668,2.033167300018249,,,,,,,,ahmed_base01,001,2023-04-29_13h16.43.447,expectation_shapes_perceived_time,2022.2.4,120.36301485659816,
,,,,,,,,,,,,37,0,37,0,test,,,,,,green,0.5098437535146814,0.5041322314049587,2.3083473999868147,0.9968845999974292,3.2199983252212405e-05,3e-05,0.03322299997671507,0.5080013999831863,0.5415528999874368,1.9999886000005063,2.3083473999868147,2.3083473999868147,2.6079679999966174,2.3914924999990035,0.08314510001218878,3.8578700999787543,1.5495226999919396,1.4663775999797508,0.48602,0.14768090869513478,0.006491468514071859,3.8578700999787543,0.14775282890464908,-0.004570722827237058,space,1.243765799998073,2.0332228999759536,,,,,,,,ahmed_base01,001,2023-04-29_13h16.43.447,expectation_shapes_perceived_time,2022.2.4,120.36301485659816,
,,,,,,,,,,,,38,0,38,0,test,,,,,,red,1.7308422596874764,1.71900826446281,2.3082238000060897,0.996765999996569,3.200001083314419e-05,3e-05,0.03334910000558011,1.7332376000122167,1.7667091000184882,2.0002283999929205,2.3082238000060897,2.3082238000060897,2.608371200010879,2.3082238000060897,0.0,3.9917741999961436,1.6835503999900538,1.6835503999900538,1.67781,-0.12535408533544046,0.07834630333465029,3.9917741999961436,-0.11062499315014004,0.0980505015133599,space,1.3776159999833908,2.03340919999755,,,,,,,,ahmed_base01,001,2023-04-29_13h16.43.447,expectation_shapes_perceived_time,2022.2.4,120.36301485659816,
,,,,,,,,,,,,39,0,39,0,test,,,,,,green,1.0314563060314048,1.0247933884297522,2.3082315000065137,0.9970209000166506,4.010001430287957e-05,4e-05,0.03295960000832565,1.0329162999987602,1.066686700010905,1.9996207000222057,2.3082315000065137,2.3082315000065137,2.6082179000077303,2.3581057999981567,0.049874299991643056,3.691350000008242,1.3831185000017285,1.3332442000100855,0.97025,0.013797951136833774,-0.14717814545956026,3.691350000008242,-0.014584582056975149,-0.14710227708201284,space,1.081161099980818,2.033316300017759,,,,,,,,ahmed_base01,001,2023-04-29_13h16.43.447,expectation_shapes_perceived_time,2022.2.4,120.36301485659816,
,,,,,,,,0,0,0,0,,,,,fam,0.5566618999873754,0.5566618999873754,269.99999999999955,2.5650821999879554,2.5650821999879554,,,,,,,,,,,,,,,,,,,,,,,,,,,,,,,,,,,,ahmed_base01,001,2023-04-29_13h16.43.447,expectation_shapes_perceived_time,2022.2.4,120.36301485659816,
,,,,,,,,1,0,1,0,,,,,fam,0.4975988999940455,0.4975988999940455,269.99999999999955,2.505945500015514,2.505945500015514,,,,,,,,,,,,,,,,,,,,,,,,,,,,,,,,,,,,ahmed_base01,001,2023-04-29_13h16.43.447,expectation_shapes_perceived_time,2022.2.4,120.36301485659816,
,,,,,,,,2,0,2,0,,,,,fam,0.4973259999824222,0.4973259999824222,269.99999999999955,2.5057092999923043,2.5057092999923043,,,,,,,,,,,,,,,,,,,,,,,,,,,,,,,,,,,,ahmed_base01,001,2023-04-29_13h16.43.447,expectation_shapes_perceived_time,2022.2.4,120.36301485659816,
,,,,,,,,3,0,3,0,,,,,fam,0.4978011999919545,0.4978011999919545,269.99999999999955,2.5054798999917693,2.5054798999917693,,,,,,,,,,,,,,,,,,,,,,,,,,,,,,,,,,,,ahmed_base01,001,2023-04-29_13h16.43.447,expectation_shapes_perceived_time,2022.2.4,120.36301485659816,
,,,,,,,,4,0,4,0,,,,,fam,0.49762789998203516,0.49762789998203516,269.99999999999955,2.5058373999781907,2.5058373999781907,,,,,,,,,,,,,,,,,,,,,,,,,,,,,,,,,,,,ahmed_base01,001,2023-04-29_13h16.43.447,expectation_shapes_perceived_time,2022.2.4,120.36301485659816,
,,,,,,,,,,,,0,0,0,0,testSingleStim,,,,,,red,1.6821183180127113,1.6694214876033058,0.05155530001502484,0.9975669000123162,4.05999890062958e-05,4e-05,0.0333284999942407,1.6832741999824066,1.7166390999918804,1.9994074999995064,2.30826259998139,2.30826259998139,2.6083042999962345,2.683230499998899,0.37496790001750924,4.141485699976329,1.8332230999949388,1.4582551999774296,0.83721,0.07234719815716883,-0.1289095530800463,,,,None,,2.0323607999889646,,,,,,,,ahmed_base01,001,2023-04-29_13h16.43.447,expectation_shapes_perceived_time,2022.2.4,120.36301485659816,
,,,,,,,,,,,,1,0,1,0,testSingleStim,,,,,,red,1.7274969316191293,1.71900826446281,0.004613299999618903,0.9974305000214372,4.049998824484646e-05,4e-05,,1.7330438999924809,1.7660867999948096,1.9996590999944601,2.3081075999944005,2.3081075999944005,2.60811579998699,2.3081075999944005,0.0,3.6000041000079364,1.2918965000135358,1.2918965000135358,1.47904,-0.14750323670022897,-0.009725488134081032,,,,None,,2.032780100009404,,,,,,,,ahmed_base01,001,2023-04-29_13h16.43.447,expectation_shapes_perceived_time,2022.2.4,120.36301485659816,
,,,,,,,,,,,,2,0,2,0,testSingleStim,,,,,,red,1.3152434298097126,1.3057851239669422,0.0046876000124029815,0.9960040000150912,3.2499985536560416e-05,3e-05,0.03310959998634644,1.3165491000108887,1.3499318000103813,1.9998754000116605,2.307832699996652,2.307832699996652,2.6085849000082817,2.307832699996652,0.0,3.949930200004019,1.6420975000073668,1.6420975000073668,1.24771,-0.10377232768145932,-0.10527627445945147,,,,None,,2.0332039000059012,,,,,,,,ahmed_base01,001,2023-04-29_13h16.43.447,expectation_shapes_perceived_time,2022.2.4,120.36301485659816,
,,,,,,,,,,,,3,0,3,0,testSingleStim,,,,,,red,1.2979706056638938,1.2892561983471076,0.004707000014605001,0.9969943000178318,3.4900003811344504e-05,3e-05,0.03331540001090616,1.300336399988737,1.3335485999996308,2.00015780000831,2.3079094999993686,2.3079094999993686,2.6083480000088457,2.3079094999993686,0.0,3.1834702999913134,0.8755607999919448,0.8755607999919448,1.43914,-0.14513014305600747,-0.028089705107614348,,,,None,,,,,,,,,,ahmed_base01,001,2023-04-29_13h16.43.447,expectation_shapes_perceived_time,2022.2.4,120.36301485659816,
,,,,,,,,,,,,4,0,4,0,testSingleStim,,,,,,green,0.19396841416828892,0.19008264462809918,0.004688399989390746,0.9971600999997463,3.270001616328955e-05,3e-05,0.03309940002509393,0.19156620002468117,0.22482860001036897,1.9998049999994691,2.307977900025435,2.307977900025435,2.6079365000186954,2.307977900025435,0.0,4.183043099998031,1.875065199972596,1.875065199972596,0.23351,0.09897412482288945,0.109799419725393,,,,None,,2.033217800024431,,,,,,,,ahmed_base01,001,2023-04-29_13h16.43.447,expectation_shapes_perceived_time,2022.2.4,120.36301485659816,
,,,,,,,,,,,,5,0,5,0,testSingleStim,,,,,,red,1.6591733105587352,1.6528925619834711,0.004573900019749999,0.9974096000078134,8.6499989265576e-05,9e-05,0.03317269997205585,1.6667055999860168,1.70004169997992,1.9998713999812026,2.308358299982501,2.308358299982501,2.607983599998988,2.31641159998253,0.008053300000028685,4.741478099982487,2.433119799999986,2.425066499999957,1.73914,-0.10803325725116975,0.10089898554590382,,,,None,,2.0332082999811973,,,,,,,,ahmed_base01,001,2023-04-29_13h16.43.447,expectation_shapes_perceived_time,2022.2.4,120.36301485659816,
,,,,,,,,,,,,6,0,6,0,testSingleStim,,,,,,green,0.8907660433968857,0.8842975206611571,0.00460039998870343,0.996628699998837,3.29999893438071e-05,3e-05,0.03344410000136122,0.8917249999940395,0.92504070000723,1.9998991999891587,2.307803600007901,2.307803600007901,2.6080708999943454,2.307803600007901,0.0,3.8500187000026926,1.5422150999947917,1.5422150999947917,1.42529,-0.14377002501547942,-0.034379788590658114,,,,None,,2.0337350000045262,,,,,,,,ahmed_base01,001,2023-04-29_13h16.43.447,expectation_shapes_perceived_time,2022.2.4,120.36301485659816,
,,,,,,,,,,,,7,0,7,0,testSingleStim,,,,,,red,0.4364426835940607,0.4380165289256198,0.00454850000096485,0.9966016999969725,3.269998705945909e-05,3e-05,0.03324580000480637,0.4417859000095632,0.47488829999929294,1.9999054000072647,2.307760800002143,2.307760800002143,2.6079060999909416,2.307760800002143,0.0,4.21652630000608,1.9087655000039376,1.9087655000039376,0.2062,0.08920301327988261,0.11787541040555918,,,,None,,2.033382099994924,,,,,,,,ahmed_base01,001,2023-04-29_13h16.43.447,expectation_shapes_perceived_time,2022.2.4,120.36301485659816,
,,,,,,,,,,,,8,0,8,0,testSingleStim,,,,,,red,1.7312566889144096,1.71900826446281,0.004524599993601441,0.9978937999985646,4.049998824484646e-05,4e-05,0.03288819998851977,1.7330701999890152,1.7663480000046548,1.9992997999943327,2.3073594000015873,2.3073594000015873,2.6078927000053227,2.4244962999946438,0.11713689999305643,3.8660554999951273,1.55869609999354,1.4415592000004835,1.79928,-0.08715844165204192,0.11939512555074236,,,,None,,2.0323897000052966,,,,,,,,ahmed_base01,001,2023-04-29_13h16.43.447,expectation_shapes_perceived_time,2022.2.4,120.36301485659816,
,,,,,,,,,,,,9,0,9,0,testSingleStim,,,,,,green,0.9578159443147428,0.9504132231404959,0.004668300010962412,0.9970821000169963,3.250001464039087e-05,3e-05,,0.9581990000151563,0.9917064000037499,2.0001679999986663,2.307743899989873,2.307743899989873,2.6083411000145134,2.307743899989873,0.0,4.983179000002565,2.6754351000126917,2.6754351000126917,0.8883,0.05081608792544312,-0.13881467921096657,,,,None,,,,,,,,,,ahmed_base01,001,2023-04-29_13h16.43.447,expectation_shapes_perceived_time,2022.2.4,120.36301485659816,
,,,,,,,,,,,,10,0,10,0,testSingleStim,,,,,,green,1.7805773704710206,1.7685950413223142,0.004513799998676404,0.9963006000034511,3.260001540184021e-05,3e-05,0.033253800007514656,1.7833169999939855,1.8168605999962892,2.0003298000083305,2.3083904999948572,2.3083904999948572,2.6083641000150237,2.391834400012158,0.08344390001730062,3.208559199993033,0.9001686999981757,0.8167247999808751,1.58897,-0.14208609244934786,0.04078397098083133,,,,None,,2.033757600001991,,,,,,,,ahmed_base01,001,2023-04-29_13h16.43.447,expectation_shapes_perceived_time,2022.2.4,120.36301485659816,
,,,,,,,,,,,,11,0,11,0,testSingleStim,,,,,,red,1.1839802513977047,1.1818181818181819,0.0045566999760922045,0.9973088999977335,3.229998401366174e-05,3e-05,0.033307299978332594,1.1916630000050645,1.2248012000054587,1.9994892999820877,2.307809999998426,2.307809999998426,2.608257199986838,2.307809999998426,0.0,3.900170299981255,1.592360299982829,1.592360299982829,0.90154,0.04500034302685804,-0.1408075249550074,,,,None,,,,,,,,,,ahmed_base01,001,2023-04-29_13h16.43.447,expectation_shapes_perceived_time,2022.2.4,120.36301485659816,
,,,,,,,,,,,,12,0,12,0,testSingleStim,,,,,,red,1.7036583621914134,1.694214876033058,0.004556900006718934,0.9967997000203468,3.239998477511108e-05,3e-05,0.033283299999311566,1.70831809999072,1.7416494000062812,1.9999964000016917,2.307841500005452,2.307841500005452,2.608127199986484,2.307841500005452,0.0,3.141460599988932,0.8336190999834798,0.8336190999834798,1.6142,-0.13841146506154872,0.051904299398080764,,,,None,,,,,,,,,,ahmed_base01,001,2023-04-29_13h16.43.447,expectation_shapes_perceived_time,2022.2.4,120.36301485659816,
,,,,,,,,,,,,13,0,13,0,testSingleStim,,,,,,red,0.6748582162116316,0.6694214876033058,0.004656400007661432,0.9974363000073936,4.029998672194779e-05,4e-05,0.03353159999824129,0.6750846999930218,0.708540699997684,1.9995670999924187,2.308371499995701,2.308371499995701,2.6083931000030134,2.308371499995701,0.0,3.2661733999848366,0.9578018999891356,0.9578018999891356,0.32798,0.12675761363746998,0.07605456818248199,,,,None,,2.032889800000703,,,,,,,,ahmed_base01,001,2023-04-29_13h16.43.447,expectation_shapes_perceived_time,2022.2.4,120.36301485659816,
,,,,,,,,,,,,14,0,14,0,testSingleStim,,,,,,green,1.3577367964227403,1.3471074380165289,0.003145900001982227,0.9987567999924067,4.069998976774514e-05,4e-05,,1.3581209999974817,1.3916791999945417,1.9998967999999877,2.3083867999957874,2.3083867999957874,2.608290800009854,2.4081719999958295,0.0997852000000421,5.8499478999874555,3.541561099991668,3.441775899991626,1.07972,-0.03663558077952964,-0.14321181577452496,,,,None,,,,,,,,,,ahmed_base01,001,2023-04-29_13h16.43.447,expectation_shapes_perceived_time,2022.2.4,120.36301485659816,
,,,,,,,,,,,,15,0,15,0,testSingleStim,,,,,,red,0.618976758159072,0.6198347107438017,0.004581699991831556,0.9970152000023518,3.999998443759978e-05,4e-05,,0.6250053999829106,0.6586688999959733,1.999604199983878,2.3083190999750514,2.3083190999750514,2.6084640999906696,2.450171099975705,0.1418520000006538,5.383449199987808,3.075130100012757,2.933278100012103,0.41846,0.14300035703846697,0.037452474462455636,,,,None,,,,,,,,,,ahmed_base01,001,2023-04-29_13h16.43.447,expectation_shapes_perceived_time,2022.2.4,120.36301485659816,
,,,,,,,,,,,,16,0,16,0,testSingleStim,,,,,,green,0.958780649110556,0.9504132231404959,0.004610000003594905,0.9967852999980096,3.2199983252212405e-05,3e-05,0.033041799993952736,0.9581872999842744,0.9913543000002392,1.9998109999869484,2.3083281999861356,2.3083281999861356,2.6082539999915753,2.3164784999971744,0.00815030001103878,3.483117800002219,1.1747896000160836,1.1666393000050448,0.99581,0.0019448778261842293,-0.14781071479000144,,,,None,,2.0331948999955785,,,,,,,,ahmed_base01,001,2023-04-29_13h16.43.447,expectation_shapes_perceived_time,2022.2.4,120.36301485659816,
,,,,,,,,,,,,17,0,17,0,testSingleStim,,,,,,red,1.5290471587281786,1.5206611570247934,0.004621900006895885,0.9970864999922924,3.969998215325177e-05,4e-05,0.03308709998964332,1.5327994999825023,1.5660965999995824,1.9996537999832071,2.3077901999931782,2.3077901999931782,2.607902899995679,2.3077901999931782,0.0,3.8496099000039976,1.5418197000108194,1.5418197000108194,1.19208,-0.08388583721571827,-0.12171670497966965,,,,None,,2.032869499991648,,,,,,,,ahmed_base01,001,2023-04-29_13h16.43.447,expectation_shapes_perceived_time,2022.2.4,120.36301485659816,
,,,,,,,,,,,,18,0,18,0,testSingleStim,,,,,,green,0.6558147836200167,0.6528925619834711,0.004499400005443022,0.9973394999979064,3.3100019209086895e-05,3e-05,0.03318090000539087,0.6584645000111777,0.6914827000000514,1.9999509000044782,2.3081486000155564,2.3081486000155564,2.6081928000203334,2.3081486000155564,0.0,3.4747847000253387,1.1666361000097822,1.1666361000097822,0.41141,0.14213584439422905,0.04061024125549402,,,,None,,2.0331083000055514,,,,,,,,ahmed_base01,001,2023-04-29_13h16.43.447,expectation_shapes_perceived_time,2022.2.4,120.36301485659816,
,,,,,,,,,,,,19,0,19,0,testSingleStim,,,,,,green,1.374181556952238,1.3636363636363638,0.00473970000166446,0.9971821999934036,3.269998705945909e-05,3e-05,0.033167999994475394,1.3750868999923114,1.408627799974056,1.9994889999798033,2.30854269998963,2.30854269998963,2.6082365999754984,2.30854269998963,0.0,4.750022499996703,2.441479800007073,2.441479800007073,1.13055,-0.05894109311262894,-0.13556451415904652,,,,None,,,,,,,,,,ahmed_base01,001,2023-04-29_13h16.43.447,expectation_shapes_perceived_time,2022.2.4,120.36301485659816,
,,,,,,,,,,,,20,0,20,0,testSingleStim,,,,,,green,0.4180399805317589,0.4132231404958678,0.004477999988012016,0.997304599994095,4.019998596049845e-05,4e-05,0.03302459997939877,0.4165987999876961,0.4496754999854602,1.9996223999769427,2.3082926999777555,2.3082926999777555,2.608138699986739,2.408323299983749,0.10003060000599362,4.832653099991148,2.524360400013393,2.424329800007399,0.25,0.10452700597570448,0.10452700597570448,,,,None,,2.0330438999808393,,,,,,,,ahmed_base01,001,2023-04-29_13h16.43.447,expectation_shapes_perceived_time,2022.2.4,120.36301485659816,
,,,,,,,,,,,,21,0,21,0,testSingleStim,,,,,,red,0.857729861737876,0.8512396694214877,0.004750399995828047,0.9978394999925513,4.0099985199049115e-05,4e-05,0.03337779999128543,0.8582848999940325,0.8916992000013124,1.9999328999838326,2.30820249998942,2.30820249998942,2.6081517999991775,2.3166330000094604,0.0084305000200402,3.3499983999936376,1.0417959000042174,1.0333653999841772,0.60064,0.14049665234281455,-0.04596173013445235,,,,None,,2.033398900006432,,,,,,,,ahmed_base01,001,2023-04-29_13h16.43.447,expectation_shapes_perceived_time,2022.2.4,120.36301485659816,
,,,,,,,,,,,,22,0,22,0,testSingleStim,,,,,,green,0.743141185580175,0.7355371900826446,0.004630599985830486,0.996871999988798,3.3199990866705775e-05,3e-05,0.03356310000526719,0.7417081999883521,0.7747051999904215,2.000092300004326,2.3082871999940835,2.3082871999940835,2.60844390001148,2.3082871999940835,0.0,4.474863999988884,2.1665767999948002,2.1665767999948002,0.69512,0.12090887321320432,-0.08504607183640643,,,,None,,2.0333973999950103,,,,,,,,ahmed_base01,001,2023-04-29_13h16.43.447,expectation_shapes_perceived_time,2022.2.4,120.36301485659816,
,,,,,,,,,,,,23,0,23,0,testSingleStim,,,,,,red,1.3499880959088335,1.3388429752066116,0.004476400004932657,0.9968972000060603,4.189999890513718e-05,4e-05,,1.3500640999991447,1.3833591000002343,2.000015400000848,2.3081304999941494,2.3081304999941494,2.6084815000067465,2.3081304999941494,0.0,3.7830452999914996,1.4749147999973502,1.4749147999973502,1.08625,-0.03956405523701119,-0.14243059885324028,,,,None,,,,,,,,,,ahmed_base01,001,2023-04-29_13h16.43.447,expectation_shapes_perceived_time,2022.2.4,120.36301485659816,
,,,,,,,,,,,,24,0,24,0,testSingleStim,,,,,,green,0.99586488395503,0.9917355371900827,0.004387599998153746,0.997271100000944,4.120002267882228e-05,4e-05,0.03332110002520494,0.9997858999995515,1.0331409000209533,1.9998232000216376,2.30814210002427,2.30814210002427,2.607944400020642,2.30814210002427,0.0,4.00002669999958,1.6918845999753103,1.6918845999753103,0.65264,0.1311515012326377,-0.0681987806409716,,,,None,,2.0331810000061523,,,,,,,,ahmed_base01,001,2023-04-29_13h16.43.447,expectation_shapes_perceived_time,2022.2.4,120.36301485659816,
,,,,,,,,,,,,25,0,25,0,testSingleStim,,,,,,red,0.6825107791806361,0.6776859504132231,0.00442409998504445,0.996847100002924,3.23000131174922e-05,3e-05,0.03329059999668971,0.6828074000077322,0.7161054000025615,2.000132000015583,2.3083027000247966,2.3083027000247966,2.6084222000208683,2.3083027000247966,0.0,3.849884299997939,1.5415815999731421,1.5415815999731421,0.66733,0.12786347316619998,-0.0741803355773374,,,,None,,2.0335198000248056,,,,,,,,ahmed_base01,001,2023-04-29_13h16.43.447,expectation_shapes_perceived_time,2022.2.4,120.36301485659816,
,,,,,,,,,,,,26,0,26,0,testSingleStim,,,,,,green,0.9125889301127924,0.9090909090909092,0.00455750001128763,0.9969104000192601,3.239998477511108e-05,3e-05,0.03304429998388514,0.9160335999913514,0.949397799995495,1.9999204000050668,2.308185700007016,2.308185700007016,2.6083931000030134,2.308185700007016,0.0,3.7414998000022024,1.4333140999951866,1.4333140999951866,0.55874,0.14531350306742125,-0.027125187239251964,,,,None,,2.033084800001234,,,,,,,,ahmed_base01,001,2023-04-29_13h16.43.447,expectation_shapes_perceived_time,2022.2.4,120.36301485659816,
,,,,,,,,,,,,27,0,27,0,testSingleStim,,,,,,green,0.9656004632290105,0.9586776859504132,0.00459600001340732,0.996794900012901,4.010001430287957e-05,4e-05,0.033532300003571436,0.9661442000069655,0.9995720000006258,2.0001044000091497,2.30828670001938,2.30828670001938,2.6081742999958806,2.30828670001938,0.0,3.491766599996481,1.183479899977101,1.183479899977101,0.68813,0.12274755303036229,-0.082370068480901,,,,None,,2.0332853000145406,,,,,,,,ahmed_base01,001,2023-04-29_13h16.43.447,expectation_shapes_perceived_time,2022.2.4,120.36301485659816,
,,,,,,,,,,,,28,0,28,0,testSingleStim,,,,,,red,1.5053009086380584,1.4958677685950414,0.004547299991827458,0.9970285999879707,3.229998401366174e-05,3e-05,0.033461199986049905,1.5080878999724519,1.5414111999853048,2.000010299991118,2.308272599999327,2.308272599999327,2.6084509999782313,2.308272599999327,0.0,3.2249388999771327,0.9166662999778055,0.9166662999778055,1.0261,-0.012109045077173239,-0.14732671510560774,,,,None,,2.0333052999922074,,,,,,,,ahmed_base01,001,2023-04-29_13h16.43.447,expectation_shapes_perceived_time,2022.2.4,120.36301485659816,
,,,,,,,,,,,,29,0,29,0,testSingleStim,,,,,,red,0.8759683803467692,0.8677685950413223,0.004387199995107949,0.9971100999973714,3.2899988582357764e-05,3e-05,0.03329900000244379,0.8750509000092279,0.9083539000130259,1.9999933000071906,2.308135300001595,2.308135300001595,2.607820000004722,2.308135300001595,0.0,3.3084296000015456,1.0002942999999505,1.0002942999999505,0.82083,0.07888071408149851,-0.125018490242375,,,,None,,2.0333152000093833,,,,,,,,ahmed_base01,001,2023-04-29_13h16.43.447,expectation_shapes_perceived_time,2022.2.4,120.36301485659816,
,,,,,,,,,,,,30,0,30,0,testSingleStim,,,,,,red,0.6080510136740902,0.6033057851239669,0.00443440000526607,0.9973087999969721,3.250001464039087e-05,3e-05,,0.6082149000139907,0.6415804999996908,1.9999979000131134,2.308279999997467,2.308279999997467,2.6084714000171516,2.308279999997467,0.0,3.5499012999935076,1.2416212999960408,1.2416212999960408,0.46006,0.14666158066154775,0.018497857020375392,,,,None,,,,,,,,,,ahmed_base01,001,2023-04-29_13h16.43.447,expectation_shapes_perceived_time,2022.2.4,120.36301485659816,
,,,,,,,,,,,,31,0,31,0,testSingleStim,,,,,,green,0.6772940153072717,0.6776859504132231,0.004754599998705089,0.9968760999909136,4.1099992813542485e-05,4e-05,,0.6832594999868888,0.7167488999839406,1.999890899984166,2.3085529999807477,2.3085529999807477,2.607981799985282,2.3085529999807477,0.0,4.133267199998954,1.8247142000182066,1.8247142000182066,0.41558,0.1426553385669491,0.03874589442559111,,,,None,,,,,,,,,,ahmed_base01,001,2023-04-29_13h16.43.447,expectation_shapes_perceived_time,2022.2.4,120.36301485659816,
,,,,,,,,,,,,32,0,32,0,testSingleStim,,,,,,green,1.3851511241437344,1.3801652892561984,0.004579800006467849,0.9964560999942478,4.069998976774514e-05,4e-05,0.03329349998966791,1.3916621999815106,1.4250023999775294,2.0000831999932416,2.3084541999851353,2.3084541999851353,2.608276399987517,2.3084541999851353,0.0,3.9084306999866385,1.5999765000015032,1.5999765000015032,1.46769,-0.14706267818669436,-0.01497860611160776,,,,None,,2.033332799997879,,,,,,,,ahmed_base01,001,2023-04-29_13h16.43.447,expectation_shapes_perceived_time,2022.2.4,120.36301485659816,
,,,,,,,,,,,,33,0,33,0,testSingleStim,,,,,,green,0.22547407960624957,0.2231404958677686,0.004444299993338063,0.9972527000063565,3.2100011594593525e-05,3e-05,0.03320140001596883,0.22484879998955876,0.25826850000885315,2.000258899992332,2.308289800013881,2.308289800013881,2.608272500016028,2.316516299993964,0.008226499980082735,5.307998100004625,2.9997082999907434,2.9914818000106607,0.31747,0.12417756892745509,0.08019801326564807,,,,None,,2.033380400011083,,,,,,,,ahmed_base01,001,2023-04-29_13h16.43.447,expectation_shapes_perceived_time,2022.2.4,120.36301485659816,
,,,,,,,,,,,,34,0,34,0,testSingleStim,,,,,,green,1.1258185451817084,1.1239669421487604,0.004635100020095706,0.9973629000014625,3.199998172931373e-05,3e-05,,1.1335439999820665,1.1664102999784518,2.000060199992731,2.307842099980917,2.307842099980917,2.6084746999840718,2.4915850999823306,0.18374300000141375,3.6833878999750596,1.3755457999941427,1.191802799992729,1.0,0.0,-0.14782350948509485,,,,None,,,,,,,,,,ahmed_base01,001,2023-04-29_13h16.43.447,expectation_shapes_perceived_time,2022.2.4,120.36301485659816,
,,,,,,,,,,,,35,0,35,0,testSingleStim,,,,,,green,1.334945903653099,1.3305785123966942,0.004711799992946908,0.9969275999756064,3.2499985536560416e-05,3e-05,0.03344129998004064,1.341900599974906,1.3750093999842647,1.999905199976638,2.3084101999993436,2.3084101999993436,2.6079079999763053,2.491257999994559,0.1828477999952156,5.116575499996543,2.8081652999971993,2.6253175000019837,1.34446,-0.13052386693592385,-0.06939243558618738,,,,None,,2.033425999979954,,,,,,,,ahmed_base01,001,2023-04-29_13h16.43.447,expectation_shapes_perceived_time,2022.2.4,120.36301485659816,
,,,,,,,,,,,,36,0,36,0,testSingleStim,,,,,,red,1.6899074472952662,1.677685950413223,0.004587400006130338,0.997686499991687,4.099999205209315e-05,4e-05,,1.6913438999908976,1.7244884000101592,1.999325399985537,2.3076765000005253,2.3076765000005253,2.6078559999878053,2.624435000005178,0.3167585000046529,4.416250599984778,2.108574099984253,1.7918155999796,1.62168,-0.13715295276450745,0.055143970699131864,,,,None,,,,,,,,,,ahmed_base01,001,2023-04-29_13h16.43.447,expectation_shapes_perceived_time,2022.2.4,120.36301485659816,
,,,,,,,,,,,,37,0,37,0,testSingleStim,,,,,,red,0.2441900305261113,0.2396694214876033,0.004535799991572276,0.9971783999935724,3.229998401366174e-05,3e-05,0.033322100003715605,0.24176569998962805,0.2750393000023905,2.0003997999883723,2.308436699997401,2.308436699997401,2.6084942999877967,2.308436699997401,0.0,4.624928699980956,2.3164919999835547,2.3164919999835547,0.27079,0.11112767035203337,0.09748041258950298,,,,None,,2.0337421000003815,,,,,,,,ahmed_base01,001,2023-04-29_13h16.43.447,expectation_shapes_perceived_time,2022.2.4,120.36301485659816,
,,,,,,,,,,,,38,0,38,0,testSingleStim,,,,,,red,1.06011292287986,1.0578512396694215,0.004538899986073375,0.9975358000083361,3.229998401366174e-05,3e-05,0.03318830000353046,1.0666520999802742,1.100042099977145,2.000128199986648,2.3084129999915604,2.3084129999915604,2.6081182999769226,2.316911899979459,0.008498899987898767,3.7996938999858685,1.4912808999943081,1.4827820000064094,1.12841,-0.058030365310869705,-0.13595685587118045,,,,None,,2.033383000001777,,,,,,,,ahmed_base01,001,2023-04-29_13h16.43.447,expectation_shapes_perceived_time,2022.2.4,120.36301485659816,
,,,,,,,,,,,,39,0,39,0,testSingleStim,,,,,,green,0.7477511568514632,0.743801652892562,0.004735599999548867,0.9968879999942146,4.050001734867692e-05,4e-05,0.03330640000058338,0.7493798999930732,0.7827961000148207,2.0000681999954395,2.3081025000137743,2.3081025000137743,2.6082275999942794,2.3081025000137743,0.0,4.341506500000833,2.0334039999870583,2.0334039999870583,0.88401,0.05268368484249808,-0.13811668728979226,,,,None,,2.0334898000000976,,,,,,,,ahmed_base01,001,2023-04-29_13h16.43.447,expectation_shapes_perceived_time,2022.2.4,120.36301485659816,
1,-500,0.5,none,59,green,red,no_Expectation,,,,,0,0,0,0,train_doubleStim,,,,,,green,0.9925944876171847,0.9834710743801653,2.307994599977974,0.9989425000094343,6e-05,6e-05,0.03328,0.9914554999850225,1.02494529998512,2.0000350999762304,2.307994599977974,2.307994599977974,2.5073149999952875,4.691003899992211,2.383009300014237,6.024307699990459,3.716313100012485,1.333303799998248,0.60242,0.14023769450772117,-0.046745898169240394,,,,None,,2.033060599991586,-0.5,-0.49586776859504134,0.4592644876171848,0.4545454545454546,training_double_stim.csv,0.45799509997596033,0.49148489997605793,ahmed_base01,001,2023-04-29_13h16.43.447,expectation_shapes_perceived_time,2022.2.4,120.36301485659816,
1,500,0.5,none,25,green,red,no_Expectation,,,,,0,1,1,6,train_doubleStim,,,,,,green,1.1116460072968142,1.1074380165289257,2.3084167999913916,0.9961383000190835,3e-05,3e-05,,1.1166085000149906,1.1499015000008512,2.0000815000094008,2.3084167999913916,2.3084167999913916,2.5085532999946736,2.9919432000024244,0.6835264000110328,5.183473600016441,2.8750568000250496,2.1915304000140168,1.31093,-0.12250487271057794,-0.08273056338896173,,,,None,,,0.5,0.49586776859504134,1.644976007296814,1.6363636363636365,training_double_stim.csv,1.6502579000080004,1.6833784999907948,ahmed_base01,001,2023-04-29_13h16.43.447,expectation_shapes_perceived_time,2022.2.4,120.36301485659816,
1,500,0.5,none,33,green,red,no_Expectation,,,,,0,2,2,7,train_doubleStim,,,,,,green,0.6558478950862677,0.6528925619834711,2.3079597000032663,0.9965008000144735,4e-05,4e-05,0.03327,0.6578774000226986,0.6911944000166841,1.9995526999991853,2.3079597000032663,2.3079597000032663,2.507948300015414,2.7662779000238515,0.4583182000205852,5.865984300005948,3.558024600002682,3.0997063999820966,1.1978,-0.08606097154071758,-0.12018859818617456,,,,None,,2.0329053000023123,0.5,0.49586776859504134,1.1891778950862677,1.1818181818181819,training_double_stim.csv,1.191290000017034,1.224566600023536,ahmed_base01,001,2023-04-29_13h16.43.447,expectation_shapes_perceived_time,2022.2.4,120.36301485659816,
1,-500,0.5,none,23,green,red,no_Expectation,,,,,0,3,3,2,train_doubleStim,,,,,,green,1.5401895184507943,1.5289256198347108,2.3082333999918774,0.9981324000109453,3e-05,3e-05,,1.5414636999776121,1.574770899984287,1.9997620999929495,2.3082333999918774,2.3082333999918774,2.508122999977786,2.699774199980311,0.3915407999884337,4.858313999982784,2.550080599990906,2.1585398000024725,1.62031,-0.13738958119889627,0.054551745476032344,,,,None,,,-0.5,-0.49586776859504134,1.0068595184507942,1.0,training_double_stim.csv,1.008226099977037,1.0416407999873627,ahmed_base01,001,2023-04-29_13h16.43.447,expectation_shapes_perceived_time,2022.2.4,120.36301485659816,
1,-500,0.5,none,68,red,green,no_Expectation,,,,,0,4,4,3,train_doubleStim,,,,,,red,1.6320119376799826,1.6198347107438016,2.3083760000008624,0.9971649999788497,2e-05,2e-05,,1.6331715999986045,1.6665152000205126,2.0001843000063673,2.3083760000008624,2.3083760000008624,2.5083096000016667,2.850043900019955,0.5416679000190925,4.475100600015139,2.166724600014277,1.6250566999951843,1.62806,-0.13602048750759516,0.05788105851387028,,,,None,,,-0.5,-0.49586776859504134,1.0986819376799826,1.0909090909090908,training_double_stim.csv,1.1002304000139702,1.133449400018435,ahmed_base01,001,2023-04-29_13h16.43.447,expectation_shapes_perceived_time,2022.2.4,120.36301485659816,
1,500,0.5,none,60,red,green,no_Expectation,,,,,0,5,5,8,train_doubleStim,,,,,,red,0.5220588948681163,0.5206611570247934,2.30832849998842,0.998184099997161,1e-05,1e-05,0.03342,0.5250965000013821,0.5582299999950919,2.0000983999925666,2.30832849998842,2.30832849998842,2.508519700000761,3.1586382999958005,0.8503098000073805,4.275244199990993,1.9669157000025734,1.1166058999951929,0.85835,0.0636339593649147,-0.13342604382965984,,,,None,,2.033505300001707,0.5,0.49586776859504134,1.0553888948681163,1.0495867768595042,training_double_stim.csv,1.058186200010823,1.091529500001343,ahmed_base01,001,2023-04-29_13h16.43.447,expectation_shapes_perceived_time,2022.2.4,120.36301485659816,
1,500,0.5,none,88,red,green,no_Expectation,,,,,0,6,6,9,train_doubleStim,,,,,,red,0.7205860362256202,0.71900826446281,2.3084607000055257,0.9966611999843735,3e-05,3e-05,,0.7249622000090312,0.7580552999861538,1.9999716999882367,2.3084607000055257,2.3084607000055257,2.5084317000000738,2.758322899986524,0.4498621999809984,3.824948499997845,1.5164877999923192,1.0666256000113208,0.77001,0.09775496724220427,-0.11088623149861976,,,,None,,,0.5,0.49586776859504134,1.2539160362256203,1.2479338842975207,training_double_stim.csv,1.2582143000036012,1.2917013999831397,ahmed_base01,001,2023-04-29_13h16.43.447,expectation_shapes_perceived_time,2022.2.4,120.36301485659816,
1,-500,0.5,none,77,green,red,no_Expectation,,,,,0,7,7,1,train_doubleStim,,,,,,green,1.3908185147859848,1.3801652892561984,2.3089218999957666,0.9969491999945603,1e-05,1e-05,0.03323,1.39194130001124,1.4256013999984134,2.0004481000069063,2.3089218999957666,2.3089218999957666,2.508711000002222,3.050448399997549,0.7415265000017826,4.10024290002184,1.7913210000260733,1.0497945000242908,1.2777,-0.11321671075642623,-0.09504612754860474,,,,None,,2.033947600022657,-0.5,-0.49586776859504134,0.8574885147859849,0.8512396694214877,training_double_stim.csv,0.8586097000224981,0.8919268000172451,ahmed_base01,001,2023-04-29_13h16.43.447,expectation_shapes_perceived_time,2022.2.4,120.36301485659816,
1,-500,0.5,none,46,red,green,no_Expectation,,,,,0,8,8,4,train_doubleStim,,,,,,red,1.8111294002455625,1.8016528925619835,2.308248100016499,0.9976947999966796,4e-05,4e-05,0.03337,1.8166237999976147,1.849769100022968,1.999841800017748,2.308248100016499,2.308248100016499,2.5080455999996047,3.082848300022306,0.774600200005807,4.258042500005104,1.9497943999886047,1.1751941999827977,1.64937,-0.1318438886656715,0.06685042242203063,,,,None,,2.0331559000187553,-0.5,-0.49586776859504134,1.2777994002455626,1.2727272727272727,training_double_stim.csv,1.2829598000098485,1.3164880000113044,ahmed_base01,001,2023-04-29_13h16.43.447,expectation_shapes_perceived_time,2022.2.4,120.36301485659816,
1,500,0.5,none,98,red,green,no_Expectation,,,,,0,9,9,5,train_doubleStim,,,,,,red,0.793570226479249,0.7933884297520661,2.3082022000162397,0.9977422000083607,4e-05,4e-05,0.03331,0.7996937000134494,0.8327583000063896,1.9999104000162333,2.3082022000162397,2.3082022000162397,2.5081994000065606,2.549777600012021,0.24157539999578148,3.9331025000137743,1.6249002999975346,1.3833249000017531,0.92202,0.035852467268031776,-0.1434098690721271,,,,None,,2.033309599995846,0.5,0.49586776859504134,1.3269002264792489,1.322314049586777,training_double_stim.csv,1.3330401999992318,1.3665935000171885,ahmed_base01,001,2023-04-29_13h16.43.447,expectation_shapes_perceived_time,2022.2.4,120.36301485659816,
1,-500,0.5,none,68,red,green,no_Expectation,,,,,1,0,10,3,train_doubleStim,,,,,,red,1.6176379248093766,1.6115702479338843,2.308135300001595,0.9975791999895591,4e-05,4e-05,0.03321,1.6249392000027,1.6581066999933682,2.0001246000174433,2.308135300001595,2.308135300001595,2.5082225000078324,2.916430700017372,0.608295400015777,3.8748930000001565,1.5667576999985613,0.9584622999827843,1.70182,-0.1190941601100585,0.087569235375043,,,,None,,2.0333053000213113,-0.5,-0.49586776859504134,1.0843079248093768,1.0826446280991735,training_double_stim.csv,1.0914163000124972,1.1248181000119075,ahmed_base01,001,2023-04-29_13h16.43.447,expectation_shapes_perceived_time,2022.2.4,120.36301485659816,
1,-500,0.5,none,77,green,red,no_Expectation,,,,,1,1,11,1,train_doubleStim,,,,,,green,0.8832624848369754,0.8760330578512396,2.308212200005073,0.9973642000113614,4e-05,4e-05,,0.8829021999845281,0.9163296000042465,2.000237300002482,2.308212200005073,2.308212200005073,2.508325800008606,2.583616499992786,0.2754042999877129,4.858441099990159,2.550228899985086,2.2748245999973733,0.482,0.14758726471273484,0.008353996115815181,,,,None,,,-0.5,-0.49586776859504134,0.3499324848369754,0.34710743801652894,training_double_stim.csv,0.34994049998931587,0.383435499999905,ahmed_base01,001,2023-04-29_13h16.43.447,expectation_shapes_perceived_time,2022.2.4,120.36301485659816,
1,500,0.5,none,33,green,red,no_Expectation,,,,,1,2,12,7,train_doubleStim,,,,,,green,0.7364495667496351,0.7355371900826446,2.3087394000031054,0.996931699977722,2e-05,2e-05,,0.7420474999817088,0.7753222999745049,2.00041449998389,2.3087394000031054,2.3087394000031054,2.5087551999895368,2.817079799977364,0.5083403999742586,4.266874299995834,1.9581348999927286,1.44979450001847,1.09641,-0.044092056276998234,-0.14109458008639433,,,,None,,,0.5,0.49586776859504134,1.269779566749635,1.2644628099173554,training_double_stim.csv,1.2753537999815308,1.3087357999756932,ahmed_base01,001,2023-04-29_13h16.43.447,expectation_shapes_perceived_time,2022.2.4,120.36301485659816,
1,500,0.5,none,25,green,red,no_Expectation,,,,,1,3,13,6,train_doubleStim,,,,,,green,0.8841768078388963,0.8760330578512396,2.308871300017927,0.996058599994285,4e-05,4e-05,0.03335,0.8838791000016499,0.9172525000176392,2.000454900000477,2.308871300017927,2.308871300017927,2.508914200006984,3.0588787000160664,0.7500073999981396,4.525402300001588,2.216530999983661,1.4665235999855213,0.85046,0.06691857333935938,-0.1318093111229806,,,,None,,2.0339852000179235,0.5,0.49586776859504134,1.4175068078388964,1.4132231404958677,training_double_stim.csv,1.4254879000072833,1.4587557000049856,ahmed_base01,001,2023-04-29_13h16.43.447,expectation_shapes_perceived_time,2022.2.4,120.36301485659816,
1,500,0.5,none,98,red,green,no_Expectation,,,,,1,4,14,5,train_doubleStim,,,,,,red,0.5452230389982553,0.5454545454545454,2.308560299978126,0.9972232999862172,3e-05,3e-05,,0.5500041999912355,0.58337519998895,2.000371499976609,2.308560299978126,2.308560299978126,2.5087782999908086,2.675180799997179,0.366620500019053,3.774927899998147,1.4663676000200212,1.0997471000009682,0.45979,0.14664590738093108,0.01862170252456268,,,,None,,,0.5,0.49586776859504134,1.0785530389982552,1.0743801652892562,training_double_stim.csv,1.0835626999905799,1.1171130999864545,ahmed_base01,001,2023-04-29_13h16.43.447,expectation_shapes_perceived_time,2022.2.4,120.36301485659816,
1,500,0.5,none,88,red,green,no_Expectation,,,,,1,5,15,9,train_doubleStim,,,,,,red,0.1746213948631175,0.17355371900826447,2.3082965000066906,0.9968089000030886,3e-05,3e-05,0.03337,0.17527330000302754,0.2082595000101719,2.00011860000086,2.3082965000066906,2.3082965000066906,2.508529799990356,2.7084318000124767,0.4001353000057861,7.26672129999497,4.958424799988279,4.558289499982493,0.13789,0.06205298419310097,0.13416861447156964,,,,None,,2.033714699995471,0.5,0.49586776859504134,0.7079513948631175,0.7024793388429752,training_double_stim.csv,0.70860330000869,0.7418126999982633,ahmed_base01,001,2023-04-29_13h16.43.447,expectation_shapes_perceived_time,2022.2.4,120.36301485659816,
1,-500,0.5,none,23,green,red,no_Expectation,,,,,1,6,16,2,train_doubleStim,,,,,,green,1.778014223429736,1.7685950413223142,2.308762200002093,0.9968378999910783,4e-05,4e-05,0.03333,1.7833717000030447,1.8166301999881398,2.0002290999982506,2.308762200002093,2.308762200002093,2.5086629999859724,2.833588999987114,0.5248267999850214,5.399761399981799,3.0909991999797057,2.5661723999946844,1.83578,-0.07292726578069189,0.12858228440279887,,,,None,,2.0335637999814935,-0.5,-0.49586776859504134,1.244684223429736,1.2396694214876034,training_double_stim.csv,1.2497525999788195,1.282902799983276,ahmed_base01,001,2023-04-29_13h16.43.447,expectation_shapes_perceived_time,2022.2.4,120.36301485659816,
1,-500,0.5,none,59,green,red,no_Expectation,,,,,1,7,17,0,train_doubleStim,,,,,,green,1.7344611371889644,1.7272727272727273,2.3086954000173137,0.9970974000170827,6e-05,6e-05,0.03344,1.7420950000232551,1.7754842000140343,2.000523199996678,2.3086954000173137,2.3086954000173137,2.508857300010277,2.933744200010551,0.6250487999932375,4.758510700019542,2.4498153000022285,1.824766500008991,1.75,-0.10452700597570448,0.10452700597570448,,,,None,,2.0337002000014763,-0.5,-0.49586776859504134,1.2011311371889644,1.1983471074380165,training_double_stim.csv,1.2090793000243139,1.242207100003725,ahmed_base01,001,2023-04-29_13h16.43.447,expectation_shapes_perceived_time,2022.2.4,120.36301485659816,
1,500,0.5,none,60,red,green,no_Expectation,,,,,1,8,18,8,train_doubleStim,,,,,,red,1.1529270271583363,1.1487603305785123,2.307930300012231,0.9975131000101101,3e-05,3e-05,,1.158117500017397,1.191356099996483,2.0000604999950156,2.307930300012231,2.307930300012231,2.5081584000145085,3.5166080000053626,1.2086776999931317,5.016521600016858,2.7085913000046276,1.4999136000114959,1.50723,-0.14778534670932397,0.0033587578797573633,,,,None,,,0.5,0.49586776859504134,1.6862570271583364,1.677685950413223,training_double_stim.csv,1.6916957999928854,1.7249274000059813,ahmed_base01,001,2023-04-29_13h16.43.447,expectation_shapes_perceived_time,2022.2.4,120.36301485659816,
1,-500,0.5,none,46,red,green,no_Expectation,,,,,1,9,19,4,train_doubleStim,,,,,,red,0.9434865443054874,0.9421487603305785,2.308284700004151,0.9970392999821343,4e-05,4e-05,0.03336,0.9501840999873821,0.9834649999975227,1.9999314000015147,2.308284700004151,2.308284700004151,2.5081537000078242,2.833352699992247,0.5250679999880958,3.6914191000105347,1.3831344000063837,0.8580664000182878,0.60655,0.1396188311865346,-0.04856307171705551,,,,None,,2.0334832000080496,-0.5,-0.49586776859504134,0.4101565443054874,0.4049586776859504,training_double_stim.csv,0.4082793999987189,0.44167790000210516,ahmed_base01,001,2023-04-29_13h16.43.447,expectation_shapes_perceived_time,2022.2.4,120.36301485659816,
1,500,0.5,none,98,red,green,no_Expectation,,,,,2,0,20,5,train_doubleStim,,,,,,red,1.1150803067006678,1.1074380165289257,2.3083400999894366,0.9975142999901436,3e-05,3e-05,,1.1168822000036016,1.1502463000069838,2.0002237999869976,2.3083400999894366,2.3083400999894366,2.50832329998957,2.808232399984263,0.4998922999948263,5.2496346999832895,2.941294599993853,2.4414022999990266,1.13935,-0.06266831428759188,-0.13388230779621904,,,,None,,,0.5,0.49586776859504134,1.6484103067006677,1.6363636363636365,training_double_stim.csv,1.6501922000024933,1.6833958000061102,ahmed_base01,001,2023-04-29_13h16.43.447,expectation_shapes_perceived_time,2022.2.4,120.36301485659816,
1,500,0.5,none,60,red,green,no_Expectation,,,,,2,1,21,8,train_doubleStim,,,,,,red,0.6324910043051021,0.628099173553719,2.308163899986539,0.9962756999884732,3e-05,3e-05,,0.6337472999875899,0.6669372000033036,2.0002327999973204,2.308163899986539,2.308163899986539,2.508433899987722,2.6335476999811362,0.3253837999945972,4.225198400003137,1.917034500016598,1.5916507000220008,0.91221,0.04025566260609447,-0.14223667454153383,,,,None,,,0.5,0.49586776859504134,1.165821004305102,1.15702479338843,training_double_stim.csv,1.1668528000009246,1.2001974000013433,ahmed_base01,001,2023-04-29_13h16.43.447,expectation_shapes_perceived_time,2022.2.4,120.36301485659816,
1,-500,0.5,none,77,green,red,no_Expectation,,,,,2,2,22,1,train_doubleStim,,,,,,green,0.9450830154396201,0.9421487603305785,2.3083494000020437,0.9973383000178728,4e-05,4e-05,0.03365,0.9501606000121683,0.9836558999959379,1.9995966000133194,2.3083494000020437,2.3083494000020437,2.5084070000157226,3.3000198999943677,0.991670499992324,5.275074400007725,2.966725000005681,1.975054500013357,1.2277,-0.09695334283693251,-0.11158780968024307,,,,None,,2.0329172000056133,-0.5,-0.49586776859504134,0.4117530154396201,0.4132231404958678,training_double_stim.csv,0.4170849999936763,0.450159200001508,ahmed_base01,001,2023-04-29_13h16.43.447,expectation_shapes_perceived_time,2022.2.4,120.36301485659816,
1,500,0.5,none,88,red,green,no_Expectation,,,,,2,3,23,9,train_doubleStim,,,,,,red,0.964247421128816,0.9586776859504132,2.308377699984703,0.9977013999887276,4e-05,4e-05,,0.9659251999983098,0.99914759999956,1.999888499994995,2.308377699984703,2.308377699984703,2.5079667999816593,2.9913018999795895,0.6829241999948863,4.0664079999842215,1.7580302999995183,1.075106100004632,1.03096,-0.014353657491549035,-0.1471249892883776,,,,None,,,0.5,0.49586776859504134,1.4975774211288158,1.487603305785124,training_double_stim.csv,1.499958999978844,1.5331626999832224,ahmed_base01,001,2023-04-29_13h16.43.447,expectation_shapes_perceived_time,2022.2.4,120.36301485659816,
1,-500,0.5,none,46,red,green,no_Expectation,,,,,2,4,24,4,train_doubleStim,,,,,,red,1.7812458165527836,1.7685950413223142,2.3081013999762945,0.9974950999894645,4e-05,4e-05,0.03313,1.7833422999829054,1.8164193999837153,1.9997259999800008,2.3081013999762945,2.3081013999762945,2.50816689999192,2.8496867999783717,0.5415854000020772,4.083075999980792,1.774974600004498,1.2333892000024207,1.82,-0.07920744914899162,0.1248117380529565,,,,None,,2.033428199996706,-0.5,-0.49586776859504134,1.2479158165527835,1.2396694214876034,training_double_stim.csv,1.2497444999753498,1.2828964999935124,ahmed_base01,001,2023-04-29_13h16.43.447,expectation_shapes_perceived_time,2022.2.4,120.36301485659816,
1,-500,0.5,none,59,green,red,no_Expectation,,,,,2,5,25,0,train_doubleStim,,,,,,green,1.6425974956319611,1.6363636363636365,2.308495600009337,0.9974535999936052,3e-05,3e-05,,1.649932300002547,1.6833415000000969,2.0001497000048403,2.308495600009337,2.308495600009337,2.5082782999961637,2.583255600009579,0.27476000000024214,4.55800290001207,2.2495073000027332,1.974747300002491,1.81993,-0.0792346038744269,0.12479450110222237,,,,None,,,-0.5,-0.49586776859504134,1.109267495631961,1.1074380165289257,training_double_stim.csv,1.1164443000161555,1.1498741999967024,ahmed_base01,001,2023-04-29_13h16.43.447,expectation_shapes_perceived_time,2022.2.4,120.36301485659816,
1,500,0.5,none,33,green,red,no_Expectation,,,,,2,6,26,7,train_doubleStim,,,,,,green,0.19974540113655384,0.19834710743801653,2.3085912999813445,0.9965828999993391,3e-05,3e-05,0.03307,0.19977259999723174,0.23303949998808093,2.000179199996637,2.3085912999813445,2.3085912999813445,2.5087141999974847,2.692079600004945,0.38348830002360046,8.725146399985533,6.416555100004189,6.033066799980588,0.13414,0.0604680793186122,0.13489033078767337,,,,None,,2.0334916999854613,0.5,0.49586776859504134,0.7330754011365539,0.7272727272727273,training_double_stim.csv,0.7334132999822032,0.7667418999772053,ahmed_base01,001,2023-04-29_13h16.43.447,expectation_shapes_perceived_time,2022.2.4,120.36301485659816,
1,-500,0.5,none,23,green,red,no_Expectation,,,,,2,7,27,2,train_doubleStim,,,,,,green,1.577847023676458,1.5702479338842976,2.3083494000020437,0.9971871000016108,4e-05,4e-05,0.03333,1.5833692999731284,1.6167450999782886,1.9999485999869648,2.3083494000020437,2.3083494000020437,2.5083659999945667,2.8251830999797676,0.5168336999777239,3.799984899989795,1.4916354999877512,0.9748018000100274,1.62708,-0.13619928378664997,0.057459072847492965,,,,None,,2.033567899983609,-0.5,-0.49586776859504134,1.044517023676458,1.0413223140495869,training_double_stim.csv,1.0503252999915276,1.0833704999822658,ahmed_base01,001,2023-04-29_13h16.43.447,expectation_shapes_perceived_time,2022.2.4,120.36301485659816,
1,-500,0.5,none,68,red,green,no_Expectation,,,,,2,8,28,3,train_doubleStim,,,,,,red,0.6505554496739073,0.6446280991735538,2.308233099989593,0.9977233999816235,4e-05,4e-05,0.0331,0.6491932999924757,0.682573300000513,1.9997735999932047,2.308233099989593,2.308233099989593,2.5081179999979213,2.808021100005135,0.4997880000155419,7.457956199999899,5.149723100010306,4.649935099994764,0.07241,0.033336902527503376,0.1440154189188146,,,,None,,2.0331066999933682,-0.5,-0.49586776859504134,0.11722544967390733,0.11570247933884298,training_double_stim.csv,0.11672379999072291,0.14970010000979528,ahmed_base01,001,2023-04-29_13h16.43.447,expectation_shapes_perceived_time,2022.2.4,120.36301485659816,
1,500,0.5,none,25,green,red,no_Expectation,,,,,2,9,29,6,train_doubleStim,,,,,,green,0.30981708177404155,0.30578512396694213,2.3077552000177093,0.996606000000611,4e-05,4e-05,,0.30817890001344495,0.34181040001567453,1.9993784000107553,2.3077552000177093,2.3077552000177093,2.5081375000008848,2.9912890999985393,0.68353389998083,3.8581384000135586,1.5503831999958493,0.8668493000150193,0.35242,0.13221736635250278,0.06610868317625139,,,,None,,,0.5,0.49586776859504134,0.8431470817740415,0.8347107438016529,training_double_stim.csv,0.8416241999948397,0.875132700020913,ahmed_base01,001,2023-04-29_13h16.43.447,expectation_shapes_perceived_time,2022.2.4,120.36301485659816,
1,-500,0.5,none,68,red,green,no_Expectation,,,,,3,0,30,3,train_doubleStim,,,,,,red,0.8635249345789116,0.859504132231405,2.307657500001369,0.9973242999985814,5e-05,5e-05,,0.8667577999876812,0.9002585999842267,1.9997464999905787,2.307657500001369,2.307657500001369,2.5076324999972712,3.2745674999896437,0.9669099999882746,4.76621120001073,2.458553700009361,1.4916437000210863,0.59456,0.14134883319260008,-0.04327005097732656,,,,None,,,-0.5,-0.49586776859504134,0.33019493457891164,0.3305785123966942,training_double_stim.csv,0.3335496000072453,0.3666054999921471,ahmed_base01,001,2023-04-29_13h16.43.447,expectation_shapes_perceived_time,2022.2.4,120.36301485659816,
1,-500,0.5,none,46,red,green,no_Expectation,,,,,3,1,31,4,train_doubleStim,,,,,,red,1.278948927552318,1.2727272727272727,2.3084272999840323,0.9967823000042699,4e-05,4e-05,0.0332,1.2832955999765545,1.316890499991132,1.9998049999994691,2.3084272999840323,2.3084272999840323,2.5081994999782182,2.7666922999778762,0.45826499999384396,3.6749406999733765,1.3665133999893442,0.9082483999955002,1.17682,-0.07795662900014806,-0.1255967911669052,,,,None,,2.033533299982082,-0.5,-0.49586776859504134,0.7456189275523181,0.743801652892562,training_double_stim.csv,0.7499029999889899,0.7832819999894127,ahmed_base01,001,2023-04-29_13h16.43.447,expectation_shapes_perceived_time,2022.2.4,120.36301485659816,
1,500,0.5,none,33,green,red,no_Expectation,,,,,3,2,32,7,train_doubleStim,,,,,,green,0.8247748290060283,0.8181818181818182,2.308499300008407,0.9969777000078466,6e-05,6e-05,,0.8253837999945972,0.8584190999972634,1.9996635999996215,2.308499300008407,2.308499300008407,2.5084321000031196,2.916734099999303,0.6082347999908961,4.166841300000669,1.8583419999922626,1.2501072000013664,1.0,0.0,-0.14782350948509485,,,,None,,,0.5,0.49586776859504134,1.3581048290060282,1.3471074380165289,training_double_stim.csv,1.3585291000199504,1.3917116000084206,ahmed_base01,001,2023-04-29_13h16.43.447,expectation_shapes_perceived_time,2022.2.4,120.36301485659816,
1,500,0.5,none,25,green,red,no_Expectation,,,,,3,3,33,6,train_doubleStim,,,,,,green,0.9809985968166149,0.975206611570248,2.3083616999792866,0.9974599000124726,4e-05,4e-05,0.0333,0.9831584999919869,1.016363899980206,1.9995712999952957,2.3083616999792866,2.3083616999792866,2.508311399986269,2.92430990000139,0.6159482000221033,4.79996389997541,2.491602199996123,1.8756539999740198,1.05257,-0.02430203525927347,-0.1458122115556408,,,,None,,2.032902999984799,0.5,0.49586776859504134,1.514328596816615,1.5041322314049588,training_double_stim.csv,1.5161144000012428,1.5492812999873422,ahmed_base01,001,2023-04-29_13h16.43.447,expectation_shapes_perceived_time,2022.2.4,120.36301485659816,
1,-500,0.5,none,23,green,red,no_Expectation,,,,,3,4,34,2,train_doubleStim,,,,,,green,1.1980309717455369,1.1900826446280992,2.3078708999964874,0.9976977999904193,7e-05,7e-05,0.03282,1.1995178000070155,1.2328161000041291,1.9995517000206746,2.3078708999964874,2.3078708999964874,2.507967900019139,2.9414256000018213,0.6335547000053339,3.8993260000133887,1.5914551000169013,0.9579004000115674,1.10755,-0.049001423127915236,-0.13946558890252797,,,,None,,2.0328581999929156,-0.5,-0.49586776859504134,0.6647009717455368,0.6611570247933884,training_double_stim.csv,0.6661573000019416,0.6995439000020269,ahmed_base01,001,2023-04-29_13h16.43.447,expectation_shapes_perceived_time,2022.2.4,120.36301485659816,
1,-500,0.5,none,77,green,red,no_Expectation,,,,,3,5,35,1,train_doubleStim,,,,,,green,1.1355576370949043,1.1322314049586777,2.308407700009411,0.9970702999853529,4e-05,4e-05,0.03328,1.1410743999877013,1.1744247000024188,1.9999194999982137,2.308407700009411,2.308407700009411,2.508315399987623,2.9665674999996554,0.6581597999902442,4.599682800006121,2.29127509999671,1.633115300006466,0.93208,0.03130212289961335,-0.1444713364597539,,,,None,,2.033306299999822,-0.5,-0.49586776859504134,0.6022276370949042,0.5950413223140496,training_double_stim.csv,0.5999391000077594,0.6331951000029221,ahmed_base01,001,2023-04-29_13h16.43.447,expectation_shapes_perceived_time,2022.2.4,120.36301485659816,
1,500,0.5,none,88,red,green,no_Expectation,,,,,3,6,36,9,train_doubleStim,,,,,,red,0.8835836115298339,0.8760330578512396,2.3082996000011917,0.9974489999876823,3e-05,3e-05,0.03327,0.8832353000179864,0.9165546000003815,2.0000598000187892,2.3082996000011917,2.3082996000011917,2.5084297000139486,2.9501780999999028,0.641878499998711,3.958342600002652,1.6500430000014603,1.0081645000027493,1.04682,-0.021663337392586083,-0.1462275273999561,,,,None,,2.0334790000051726,0.5,0.49586776859504134,1.4169136115298337,1.4132231404958677,training_double_stim.csv,1.4251950000179932,1.458463999995729,ahmed_base01,001,2023-04-29_13h16.43.447,expectation_shapes_perceived_time,2022.2.4,120.36301485659816,
1,500,0.5,none,98,red,green,no_Expectation,,,,,3,7,37,5,train_doubleStim,,,,,,red,0.4541618460299205,0.4545454545454546,2.308196300000418,0.9975416999950539,4e-05,4e-05,0.03334,0.4576320000051055,0.49107050002203323,1.9999225000210572,2.308196300000418,2.308196300000418,2.508161600009771,2.624739999999292,0.3165436999988742,4.441425800003344,2.133229500002926,1.816685800004052,0.61505,0.1382723758535846,-0.05227370306659905,,,,None,,2.033475400006864,0.5,0.49586776859504134,0.9874918460299206,0.9834710743801653,training_double_stim.csv,0.9914825000159908,1.0249658000248019,ahmed_base01,001,2023-04-29_13h16.43.447,expectation_shapes_perceived_time,2022.2.4,120.36301485659816,
1,-500,0.5,none,59,green,red,no_Expectation,,,,,3,8,38,0,train_doubleStim,,,,,,green,1.337268320687615,1.3305785123966942,2.3089034000004176,0.9970329999923706,3e-05,3e-05,0.03325,1.3421853000181727,1.3755877999938093,2.000139700016007,2.3089034000004176,2.3089034000004176,2.508731900015846,3.133702000021003,0.8247986000205856,3.883667800022522,1.5747644000221044,0.7499658000015188,1.14758,-0.06610868317625139,-0.13221736635250278,,,,None,,2.0336978000123054,-0.5,-0.49586776859504134,0.803938320687615,0.8016528925619835,training_double_stim.csv,0.8087556000100449,0.8422086000209674,ahmed_base01,001,2023-04-29_13h16.43.447,expectation_shapes_perceived_time,2022.2.4,120.36301485659816,
1,500,0.5,none,60,red,green,no_Expectation,,,,,3,9,39,8,train_doubleStim,,,,,,red,1.1939864611912092,1.1900826446280992,2.3085984000063036,0.9965836000046693,3e-05,3e-05,,1.2004420000012033,1.2335460000031162,2.000210900005186,2.3085984000063036,2.3085984000063036,2.5087394999864046,2.8168574000010267,0.5082589999947231,4.533429500006605,2.2248311000003014,1.7165721000055782,1.07318,-0.033686681724940784,-0.1439340037338379,,,,None,,,0.5,0.49586776859504134,1.727316461191209,1.71900826446281,training_double_stim.csv,1.7335243000125047,1.766968400013866,ahmed_base01,001,2023-04-29_13h16.43.447,expectation_shapes_perceived_time,2022.2.4,120.36301485659816,
1,-500,0.5,none,77,green,red,no_Expectation,,,,,0,0,0,1,train_doubleStim,,,,,,green,1.3540958598569155,1.3471074380165289,2.308238800003892,0.9913338999904227,4e-05,4e-05,0.03327,1.3582539999915753,1.3917074000055436,1.9998979000083636,2.308238800003892,2.308238800003892,2.508274599997094,2.7918326999933925,0.48359389998950064,4.516434799996205,2.208195999992313,1.7246021000028122,1.31463,-0.12345788825737614,-0.08130153616949161,,,,None,,2.0333096999966074,-0.5,-0.49586776859504134,0.8207658598569154,0.8181818181818182,training_double_stim.csv,0.8251279999967664,0.8584279000060633,ahmed_base01,001,2023-04-29_13h16.43.447,expectation_shapes_perceived_time,2022.2.4,120.36301485659816,
1,500,0.5,none,25,green,red,no_Expectation,,,,,0,1,1,6,train_doubleStim,,,,,,green,0.9676451201107703,0.9586776859504132,2.308468000002904,0.9961034000152722,3e-05,3e-05,,0.9668001999962144,1.0001269000058528,2.0002903999993578,2.308468000002904,2.308468000002904,2.5086121000058483,3.0917464999947697,0.7832784999918658,4.650100500002736,2.3416324999998324,1.5583540000079665,0.87112,0.05823053316987949,-0.13587124406305215,,,,None,,,0.5,0.49586776859504134,1.5009751201107702,1.4958677685950414,training_double_stim.csv,1.5083838000136893,1.5420311999914702,ahmed_base01,001,2023-04-29_13h16.43.447,expectation_shapes_perceived_time,2022.2.4,120.36301485659816,
1,500,0.5,none,98,red,green,no_Expectation,,,,,0,2,2,5,train_doubleStim,,,,,,red,0.33054275032271085,0.3305785123966942,2.308561300014844,0.9973377999849617,3e-05,3e-05,,0.33322729999781586,0.36672360001830384,1.999951100006001,2.308561300014844,2.308561300014844,2.5085694000008516,3.0744707999983802,0.7659094999835361,3.9497680000204127,1.6412067000055686,0.8752972000220325,0.37639,0.13681759925957054,0.0559708360607334,,,,None,,,0.5,0.49586776859504134,0.8638727503227109,0.859504132231405,training_double_stim.csv,0.8668213000055403,0.8999775999982376,ahmed_base01,001,2023-04-29_13h16.43.447,expectation_shapes_perceived_time,2022.2.4,120.36301485659816,
1,500,0.5,none,60,red,green,no_Expectation,,,,,0,3,3,8,train_doubleStim,,,,,,red,0.9188757458699544,0.9173553719008265,2.308369899983518,0.9968307999952231,4e-05,4e-05,,0.9249570999818388,0.9583102999895345,2.000003299996024,2.308369899983518,2.308369899983518,2.508303499984322,2.8745527999999467,0.5661829000164289,5.491723499988439,3.1833536000049207,2.617170699988492,1.09529,-0.04359532412299648,-0.14124885015850858,,,,None,,,0.5,0.49586776859504134,1.4522057458699542,1.4462809917355373,training_double_stim.csv,1.4582491999899503,1.4918968999991193,ahmed_base01,001,2023-04-29_13h16.43.447,expectation_shapes_perceived_time,2022.2.4,120.36301485659816,
1,500,0.5,none,88,red,green,no_Expectation,,,,,0,4,4,9,train_doubleStim,,,,,,red,0.8660425872087053,0.859504132231405,2.3084148000052664,0.9961839999887161,8e-05,8e-05,0.03338,0.8667119999881834,0.9003844000108074,1.9999704000074416,2.3084148000052664,2.3084148000052664,2.508423599996604,2.5500607999856584,0.24164599998039193,5.133215699985158,2.8248008999798913,2.5831548999994993,1.04433,-0.02052224760901366,-0.14639203294429742,,,,None,,2.0334254000044893,0.5,0.49586776859504134,1.3993725872087053,1.3884297520661157,training_double_stim.csv,1.3996104999969248,1.4328858999942895,ahmed_base01,001,2023-04-29_13h16.43.447,expectation_shapes_perceived_time,2022.2.4,120.36301485659816,
1,-500,0.5,none,23,green,red,no_Expectation,,,,,0,5,5,2,train_doubleStim,,,,,,green,0.9395028364851398,0.9338842975206612,2.3086280999996234,0.9973410000093281,3e-05,3e-05,0.03323,0.9417477999813855,0.9750831999990623,2.000272799981758,2.3086280999996234,2.3086280999996234,2.508701499988092,2.7584402000065893,0.4498121000069659,4.341605399997206,2.032977299997583,1.5831651999906171,0.53643,0.14685657400700347,-0.016880065977816487,,,,None,,2.033716200006893,-0.5,-0.49586776859504134,0.40617283648513985,0.4049586776859504,training_double_stim.csv,0.4078850999940187,0.4412430999800563,ahmed_base01,001,2023-04-29_13h16.43.447,expectation_shapes_perceived_time,2022.2.4,120.36301485659816,
1,-500,0.5,none,68,red,green,no_Expectation,,,,,0,6,6,3,train_doubleStim,,,,,,red,1.6655865550064406,1.6528925619834711,2.308657499990659,0.9966318999940995,1e-05,1e-05,0.03308,1.6670763999863993,1.7002049000002444,2.0002733999863267,2.308657499990659,2.308657499990659,2.5086201999802142,3.6586997999984305,1.3500423000077717,5.200357599998824,2.8917001000081655,1.5416578000003938,1.16857,-0.07467736249479844,-0.12757382759528066,,,,None,,2.033683399989968,-0.5,-0.49586776859504134,1.1322565550064407,1.1239669421487604,training_double_stim.csv,1.1334341999900062,1.167150599998422,ahmed_base01,001,2023-04-29_13h16.43.447,expectation_shapes_perceived_time,2022.2.4,120.36301485659816,
1,500,0.5,none,33,green,red,no_Expectation,,,,,0,7,7,7,train_doubleStim,,,,,,green,1.2075397025197872,1.1983471074380165,2.3081052000052296,0.9983579999825452,4e-05,4e-05,0.03292,1.208027199987555,1.241373900003964,1.9996638000011444,2.3081052000052296,2.3081052000052296,2.50800839997828,2.8412275000009686,0.533122299995739,5.733429099986097,3.4253238999808673,2.8922015999851283,1.52703,-0.14729105026914252,0.012535408533544045,,,,None,,2.0331895999843255,0.5,0.49586776859504134,1.740869702519787,1.7355371900826446,training_double_stim.csv,1.7496671999979299,1.7830626999784727,ahmed_base01,001,2023-04-29_13h16.43.447,expectation_shapes_perceived_time,2022.2.4,120.36301485659816,
1,-500,0.5,none,59,green,red,no_Expectation,,,,,0,8,8,0,train_doubleStim,,,,,,green,0.7832390730223754,0.7768595041322315,2.307781100011198,0.9960661999939475,7e-05,7e-05,,0.7832543000113219,0.8166736999992281,1.9995427000103518,2.307781100011198,2.307781100011198,2.5081958000082523,3.041495700017549,0.7337146000063512,4.466459799994482,2.158678699983284,1.4249640999769326,0.36291,0.1343238000624968,0.061716340569255276,,,,None,,,-0.5,-0.49586776859504134,0.24990907302237536,0.24793388429752067,training_double_stim.csv,0.24995339999441057,0.28326570001081564,ahmed_base01,001,2023-04-29_13h16.43.447,expectation_shapes_perceived_time,2022.2.4,120.36301485659816,
1,-500,0.5,none,46,red,green,no_Expectation,,,,,0,9,9,4,train_doubleStim,,,,,,red,1.6507647156831635,1.6446280991735538,2.3082640999928117,0.9966488999780267,4e-05,4e-05,0.03316,1.6576769999810494,1.6911329999857116,1.9999032999912743,2.3082640999928117,2.3082640999928117,2.5083090999978594,3.0331580999772996,0.7248939999844879,4.649777199985692,2.3415130999928806,1.6166191000083927,1.58402,-0.14270340468587728,0.0385684877529398,,,,None,,,-0.5,-0.49586776859504134,1.1174347156831637,1.1074380165289257,training_double_stim.csv,1.1166085999866482,1.1500973999791313,ahmed_base01,001,2023-04-29_13h16.43.447,expectation_shapes_perceived_time,2022.2.4,120.36301485659816,
