id,delay,expectation,congruency,trial_num,stim_color,distractor_color,block,targetTimeMs,famLoop.thisRepN,famLoop.thisTrialN,famLoop.thisN,famLoop.thisIndex,trialss.thisRepN,trialss.thisTrialN,trialss.thisN,trialss.thisIndex,isTrial,handMove.started,audioCue2Start.started,handOri,handMove.ended,audioCue2End.started,target_color,expected_target_onset,expected_target_onset_in_frames,fixationPoint.started,fixationPoint.stopped,audCueStart.started,placeholder.started,audCueStart.stopped,target.started,target.stopped,audCueEnd.started,audCueEnd.stopped,responsePointer.started,cueForRep.started,responseStarted,rtUntillMotionTreshold,space2pass.started,responsePointer.stopped,rTAfterMotionTreshold,rtDurationBtwRespMotion,perceivedTime,resp_x_coord,resp_y_coord,feedbackPointer.stopped,actualTime_x_coord,actualTime_y_coord,space2pass.keys,space2pass.rt,expected_delay,expected_delays_frame,expected_distractor,expected_distractor_frame,expBlockFiles,distractor.started,distractor.stopped,participant,session,date,expName,psychopyVersion,frameRate,
,,,,,,,,,0,0,0,0,,,,,fam,1.1819984000176191,1.1819984000176191,270.0,3.1820234000042547,3.1820234000042547,,,,,,,,,,,,,,,,,,,,,,,,,,,,,,,,,,,,sarah_high1,001,2023-04-29_16h58.53.797,expectation_shapes_perceived_time,2022.2.4,120.09242313356899,
,,,,,,,,,1,0,1,0,,,,,fam,0.498773799976334,0.498773799976334,270.0,2.4988924999779556,2.4988924999779556,,,,,,,,,,,,,,,,,,,,,,,,,,,,,,,,,,,,sarah_high1,001,2023-04-29_16h58.53.797,expectation_shapes_perceived_time,2022.2.4,120.09242313356899,
,,,,,,,,,2,0,2,0,,,,,fam,0.4990690000122413,0.4990690000122413,270.0,2.498629700014135,2.498629700014135,,,,,,,,,,,,,,,,,,,,,,,,,,,,,,,,,,,,sarah_high1,001,2023-04-29_16h58.53.797,expectation_shapes_perceived_time,2022.2.4,120.09242313356899,
,,,,,,,,,3,0,3,0,,,,,fam,0.49840429998585023,0.49840429998585023,270.0,2.4987716999894474,2.4987716999894474,,,,,,,,,,,,,,,,,,,,,,,,,,,,,,,,,,,,sarah_high1,001,2023-04-29_16h58.53.797,expectation_shapes_perceived_time,2022.2.4,120.09242313356899,
,,,,,,,,,4,0,4,0,,,,,fam,0.4986161999986507,0.4986161999986507,270.0,2.499150000017835,2.499150000017835,,,,,,,,,,,,,,,,,,,,,,,,,,,,,,,,,,,,sarah_high1,001,2023-04-29_16h58.53.797,expectation_shapes_perceived_time,2022.2.4,120.09242313356899,
,,,,,,,,,,,,,0,0,0,0,test,,,,,,green,1.5994138052314906,1.6,2.3001721000182442,0.9990206999937072,1.6600009985268116e-05,2e-05,0.03307370000402443,1.599860800022725,1.6330843000032473,2.0001085000112653,2.0331257000216283,2.3001721000182442,2.3001721000182442,2.5911843000212684,0.2910122000030242,2.5997239999996964,9.09148030000506,6.7913081999868155,6.500295999983791,0.66327,0.12879979806666336,-0.07254241500306327,9.09148030000506,-0.14067239707931806,0.04542099356518523,space,6.487603100016713,,,,,,,,sarah_high1,001,2023-04-29_16h58.53.797,expectation_shapes_perceived_time,2022.2.4,120.09242313356899,
,,,,,,,,,,,,,1,0,1,0,test,,,,,,red,0.7424741679273495,0.7416666666666667,2.299841000000015,0.9983529000019189,2.4299981305375695e-05,2e-05,0.033311699982732534,0.7418734999955632,0.7750247999792919,2.0000930999813136,2.0337384000013117,2.299841000000015,2.299841000000015,2.3670837999961805,0.06724279999616556,2.5998226999945473,5.492067899991525,3.1922268999915104,3.124984099995345,0.4543,0.1463023467152207,0.021152146513043955,5.492067899991525,0.10696890432709165,-0.1020266801554938,space,2.8920921999961138,,,,,,,,sarah_high1,001,2023-04-29_16h58.53.797,expectation_shapes_perceived_time,2022.2.4,120.09242313356899,
,,,,,,,,,,,,,2,0,2,0,test,,,,,,red,0.5526842252054822,0.55,2.3002422000281513,0.9982174999895506,2.4300010409206152e-05,2e-05,,0.5500232000194956,0.583236600010423,1.9999895000073593,,2.3002422000281513,2.3002422000281513,2.3002422000281513,0.0,2.5999667000141926,4.700018000003183,2.399775799975032,2.399775799975032,0.67334,0.12644225904489087,-0.076577706182117,4.700018000003183,0.1458033633238421,-0.02435506518048381,space,2.0960349999950267,,,,,,,,sarah_high1,001,2023-04-29_16h58.53.797,expectation_shapes_perceived_time,2022.2.4,120.09242313356899,
,,,,,,,,,,,,,3,0,3,0,test,,,,,,green,0.6129871446397781,0.6166666666666667,2.2997152999741957,0.9984980000008363,1.659998088143766e-05,2e-05,,0.6164147999952547,0.6497108999756165,1.9997671999735758,,2.2997152999741957,2.2997152999741957,2.2997152999741957,0.0,2.599819999973988,5.025060899992241,2.725345600018045,2.725345600018045,1.13552,-0.06105183648442179,-0.1346271266066737,5.025060899992241,0.13860827119957672,-0.051376425640117386,space,2.419138600002043,,,,,,,,sarah_high1,001,2023-04-29_16h58.53.797,expectation_shapes_perceived_time,2022.2.4,120.09242313356899,
,,,,,,,,,,,,,4,0,4,0,test,,,,,,green,1.7761807196075932,1.775,2.3001189999922644,0.9982160000072327,1.889999839477241e-05,2e-05,0.033334100007778034,1.7751025000179652,1.8084227000072133,2.000010799994925,2.0334135000011884,2.3001189999922644,2.3001189999922644,2.525169400003506,0.22505040001124144,2.5999235000053886,4.900062500004424,2.5999435000121593,2.374893100000918,0.71086,0.11655917811264009,-0.09091615892785927,4.900062500004424,-0.09558607859585368,0.1127612146757794,space,2.298883699986618,,,,,,,,sarah_high1,001,2023-04-29_16h58.53.797,expectation_shapes_perceived_time,2022.2.4,120.09242313356899,
,,,,,,,,,0,0,0,0,0,-1,-1,0,fam,0.5321615999855567,0.5321615999855567,270.0,2.5323663000017405,2.5323663000017405,,,,,,,,,,,,,,,,,,,,,,,,,,,,,,,,,,,,sarah_high1,001,2023-04-29_16h58.53.797,expectation_shapes_perceived_time,2022.2.4,120.09242313356899,
,,,,,,,,,1,0,1,0,0,-1,-1,0,fam,0.4984892999927979,0.4984892999927979,270.0,2.498375600000145,2.498375600000145,,,,,,,,,,,,,,,,,,,,,,,,,,,,,,,,,,,,sarah_high1,001,2023-04-29_16h58.53.797,expectation_shapes_perceived_time,2022.2.4,120.09242313356899,
,,,,,,,,,2,0,2,0,0,-1,-1,0,fam,0.4990846000146121,0.4990846000146121,270.0,2.4990833000047132,2.4990833000047132,,,,,,,,,,,,,,,,,,,,,,,,,,,,,,,,,,,,sarah_high1,001,2023-04-29_16h58.53.797,expectation_shapes_perceived_time,2022.2.4,120.09242313356899,
,,,,,,,,,3,0,3,0,0,-1,-1,0,fam,0.49894030002178624,0.49894030002178624,270.0,2.4989734000118915,2.4989734000118915,,,,,,,,,,,,,,,,,,,,,,,,,,,,,,,,,,,,sarah_high1,001,2023-04-29_16h58.53.797,expectation_shapes_perceived_time,2022.2.4,120.09242313356899,
1,500,0.5,none,33,green,red,no_Expectation,,,,,,0,0,0,7,train_doubleStim,,,,,,green,0.5199405059128274,0.5166666666666666,2.300329099991359,0.9909137000213377,1e-05,1e-05,0.03353,0.5167341999767814,0.5497118999774102,2.000315599987516,2.0335950999869965,2.300329099991359,2.300329099991359,2.358435299975099,0.058106199983740225,2.499926399992546,5.124948999990011,2.824619899998652,2.7665137000149116,0.41299,0.14233489687778006,0.03990698043302245,,,,None,,0.5,0.5,1.0532705059128273,1.05,training_double_stim.csv,1.0499331999744754,1.0834801999735646,sarah_high1,001,2023-04-29_16h58.53.797,expectation_shapes_perceived_time,2022.2.4,120.09242313356899,
1,500,0.5,none,60,red,green,no_Expectation,,,,,,0,1,1,8,train_doubleStim,,,,,,red,0.15490047165564813,0.15833333333333333,2.299665600003209,0.9987557000131346,1e-05,1e-05,,0.15847719999146648,0.1915207999991253,1.9997029000078328,,2.299665600003209,2.299665600003209,2.8664830999914557,0.5668174999882467,2.499570499989204,4.958011800015811,2.658346200012602,2.091528700024355,0.3867,0.13855692054302454,0.05151475250958606,,,,None,,0.5,0.5,0.6882304716556481,0.6916666666666667,training_double_stim.csv,0.6914276999887079,0.7246413000102621,sarah_high1,001,2023-04-29_16h58.53.797,expectation_shapes_perceived_time,2022.2.4,120.09242313356899,
1,-500,0.5,none,46,red,green,no_Expectation,,,,,,0,2,2,4,train_doubleStim,,,,,,red,1.6498893735931297,1.65,2.30012679999345,0.9980681999877561,1e-05,1e-05,0.03348,1.6500931000045966,1.6834044999850448,2.0001453000004403,2.0332821999909356,2.30012679999345,2.30012679999345,2.30012679999345,0.0,2.500038300000597,3.758417900011409,1.4582911000179593,1.4582911000179593,0.84502,0.06916480487732228,-0.1306446314349421,,,,None,,-0.5,-0.5,1.1165593735931298,1.1166666666666667,training_double_stim.csv,1.1164900999865495,1.150054600002477,sarah_high1,001,2023-04-29_16h58.53.797,expectation_shapes_perceived_time,2022.2.4,120.09242313356899,
1,-500,0.5,none,59,green,red,no_Expectation,,,,,,0,3,3,0,train_doubleStim,,,,,,green,1.4371887994154522,1.4416666666666667,2.3002164000063203,0.9982051999832038,1e-05,1e-05,0.03376,1.4413130999892019,1.4746298999816645,1.9998729999933857,2.033389799995348,2.3002164000063203,2.3002164000063203,2.8503522999817505,0.5501358999754302,2.500224599993089,4.092059899994638,1.7918434999883175,1.2417076000128873,0.75802,0.1018595081920308,-0.10712810344334271,,,,None,,-0.5,-0.5,0.9038587994154521,0.9083333333333333,training_double_stim.csv,0.9086621000024024,0.9412540000048466,sarah_high1,001,2023-04-29_16h58.53.797,expectation_shapes_perceived_time,2022.2.4,120.09242313356899,
1,500,0.5,none,98,red,green,no_Expectation,,,,,,0,4,4,5,train_doubleStim,,,,,,red,1.0885969604790593,1.0916666666666666,2.29983460000949,0.9981332000170369,1e-05,1e-05,0.03299,1.0914604999998119,1.1249169000075199,1.9997817999974359,2.033040300011635,2.29983460000949,2.29983460000949,2.307844099996146,0.00800949998665601,2.5000958000018727,3.883269099984318,1.5834344999748282,1.5754249999881722,1.16401,-0.0728397422541239,-0.1286318852572826,,,,None,,0.5,0.5,1.6219269604790594,1.625,training_double_stim.csv,1.6245159000100102,1.6577586999919731,sarah_high1,001,2023-04-29_16h58.53.797,expectation_shapes_perceived_time,2022.2.4,120.09242313356899,
1,-500,0.5,none,68,red,green,no_Expectation,,,,,,0,5,5,3,train_doubleStim,,,,,,red,1.2039865734774666,1.2083333333333333,2.300239900010638,0.997958899999503,3e-05,3e-05,,1.208105700003216,1.2415720999997575,1.9997678000072483,,2.300239900010638,2.300239900010638,2.650059899984626,0.34981999997398816,2.4994782999856398,3.9666980000038166,1.6664580999931786,1.3166381000191905,0.99116,0.004104625327577631,-0.1477665117927947,,,,None,,-0.5,-0.5,0.6706565734774667,0.675,training_double_stim.csv,0.6749279999930877,0.7084826999926008,sarah_high1,001,2023-04-29_16h58.53.797,expectation_shapes_perceived_time,2022.2.4,120.09242313356899,
1,-500,0.5,none,23,green,red,no_Expectation,,,,,,0,6,6,2,train_doubleStim,,,,,,green,1.0337783159604463,1.0333333333333332,2.2996257999911904,0.9983070000016596,1e-05,1e-05,0.03334,1.0332447999971919,1.066644999984419,1.9996680000040215,2.0329245000029914,2.2996257999911904,2.2996257999911904,2.2996257999911904,0.0,2.4996603000035975,3.5412521999969613,1.2416264000057708,1.2416264000057708,0.43012,0.1442752864468074,0.03219365895920496,,,,None,,-0.5,-0.5,0.5004483159604465,0.5,training_double_stim.csv,0.499820400000317,0.5329841999919154,sarah_high1,001,2023-04-29_16h58.53.797,expectation_shapes_perceived_time,2022.2.4,120.09242313356899,
1,-500,0.5,none,77,green,red,no_Expectation,,,,,,0,7,7,1,train_doubleStim,,,,,,green,1.028336872144312,1.025,2.3002251000143588,0.9982136000180617,2e-05,2e-05,,1.024984800023958,1.0583285000175238,1.9997772000206169,,2.3002251000143588,2.3002251000143588,2.308336700021755,0.008111600007396191,2.5000803000002634,3.583234900026582,1.2830098000122234,1.2748982000048272,0.59752,0.1409401838469902,-0.04458311938017038,,,,None,,-0.5,-0.5,0.4950068721443121,0.49166666666666664,training_double_stim.csv,0.49183820001780987,0.5253670000238344,sarah_high1,001,2023-04-29_16h58.53.797,expectation_shapes_perceived_time,2022.2.4,120.09242313356899,
1,500,0.5,none,25,green,red,no_Expectation,,,,,,0,8,8,6,train_doubleStim,,,,,,green,1.0900675249566685,1.0916666666666666,2.2999400999979116,0.9981932000082452,1e-05,1e-05,0.03364,1.0915171999949962,1.1255043999990448,2.0003264999832027,2.0335863000073005,2.2999400999979116,2.2999400999979116,2.4663874999969266,0.16644739999901503,2.499739499995485,3.3750658000062685,1.075125700008357,0.9086783000093419,1.37405,-0.13640133240321212,-0.0569777717633671,,,,None,,0.5,0.5,1.6233975249566683,1.625,training_double_stim.csv,1.6248330000089481,1.6583240999898408,sarah_high1,001,2023-04-29_16h58.53.797,expectation_shapes_perceived_time,2022.2.4,120.09242313356899,
1,500,0.5,none,88,red,green,no_Expectation,,,,,,0,9,9,9,train_doubleStim,,,,,,red,1.3467784418535798,1.35,2.300134799996158,0.998094000009587,2e-05,2e-05,0.03328,1.349920699984068,1.3833256999787409,2.0001837000017986,2.0336704999790527,2.300134799996158,2.300134799996158,2.5997175999800675,0.29958279998390935,2.4996666999941226,4.133315399987623,1.833180599991465,1.5335978000075556,1.57623,-0.1436041651496737,0.03506613335050172,,,,None,,0.5,0.5,1.8801084418535798,1.8833333333333333,training_double_stim.csv,1.8837464999814983,1.9167740999837406,sarah_high1,001,2023-04-29_16h58.53.797,expectation_shapes_perceived_time,2022.2.4,120.09242313356899,
,,,,,,,,,0,0,0,0,0,-1,-1,0,fam,0.5318874000222422,0.5318874000222422,270.0,2.5324373000185005,2.5324373000185005,,,,,,,,,,,,,,,,,,,,,,,,,,,,,,,,,,,,sarah_high1,001,2023-04-29_16h58.53.797,expectation_shapes_perceived_time,2022.2.4,120.09242313356899,
,,,,,,,,,1,0,1,0,0,-1,-1,0,fam,0.4984820999961812,0.4984820999961812,270.0,2.4985773999942467,2.4985773999942467,,,,,,,,,,,,,,,,,,,,,,,,,,,,,,,,,,,,sarah_high1,001,2023-04-29_16h58.53.797,expectation_shapes_perceived_time,2022.2.4,120.09242313356899,
,,,,,,,,,2,0,2,0,0,-1,-1,0,fam,0.49829099999624304,0.49829099999624304,270.0,2.4984089999925345,2.4984089999925345,,,,,,,,,,,,,,,,,,,,,,,,,,,,,,,,,,,,sarah_high1,001,2023-04-29_16h58.53.797,expectation_shapes_perceived_time,2022.2.4,120.09242313356899,
,,,,,,,,,3,0,3,0,0,-1,-1,0,fam,0.4984880000120029,0.4984880000120029,270.0,2.498296300007496,2.498296300007496,,,,,,,,,,,,,,,,,,,,,,,,,,,,,,,,,,,,sarah_high1,001,2023-04-29_16h58.53.797,expectation_shapes_perceived_time,2022.2.4,120.09242313356899,
,33,0.8,met,,green,red,,955.9019692184778,,,,,0,0,0,292,trial,,,,,,green,0.9559019692184778,0.9583333333333334,2.3001215000113007,0.9910289000254124,1e-05,1e-05,0.03361,0.9581213000055868,0.9914781000115909,2.000325500004692,2.033670800010441,2.3001215000113007,2.3001215000113007,2.3001215000113007,0.0,2.5006179000192787,3.083141600014642,0.7830201000033412,0.7830201000033412,0.5556,0.14557416174768872,-0.025689557955474486,,,,None,,0.033,0.03333333333333333,1.0222319692184778,1.025,trial_list_0.8_green.csv,1.0248923000181094,1.0582502000033855,sarah_high1,001,2023-04-29_16h58.53.797,expectation_shapes_perceived_time,2022.2.4,120.09242313356899,
,233,0.8,met,,green,red,,424.0645326842314,,,,,0,1,1,315,trial,,,,,,green,0.4240645326842314,0.425,2.3003469000104815,0.9979688000166789,3e-05,3e-05,,0.42523849999997765,0.4586732000170741,1.9998778000008315,,2.3003469000104815,2.3003469000104815,2.633886800002074,0.3335398999915924,2.500109600019641,3.5416146000206936,1.2412677000102121,0.9077278000186197,0.68506,0.12353691690536701,-0.08118140253781261,,,,None,,0.233,0.23333333333333334,0.6903945326842315,0.6916666666666667,trial_list_0.8_green.csv,0.6917419000237714,0.7255072999978438,sarah_high1,001,2023-04-29_16h58.53.797,expectation_shapes_perceived_time,2022.2.4,120.09242313356899,
,100,0.1999999999999999,unmet,,red,green,,1697.7894332761962,,,,,0,2,2,273,trial,,,,,,red,1.6977894332761962,1.7,2.2997900000191294,0.9985123999940697,1e-05,1e-05,0.03344,1.6996697000286076,1.7332206000282895,1.9998145000135992,2.033392500015907,2.2997900000191294,2.2997900000191294,2.5664885000151116,0.2666984999959823,2.5001440000196453,3.3750828000192996,1.0752928000001702,0.808594300004188,1.41375,-0.14243059885324028,-0.03956405523701119,,,,None,,0.1,0.1,1.8311194332761962,1.8333333333333333,trial_list_0.8_green.csv,1.8332586000033189,1.866453000024194,sarah_high1,001,2023-04-29_16h58.53.797,expectation_shapes_perceived_time,2022.2.4,120.09242313356899,
,-233,0.1999999999999999,unmet,,red,green,,1416.499674178985,,,,,0,3,3,236,trial,,,,,,red,1.416499674178985,1.4166666666666667,2.3003170000156388,0.9976730000053067,4e-05,4e-05,0.03337,1.4169391999894287,1.4502968000015244,2.0007267000037245,2.0336113999946974,2.3003170000156388,2.3003170000156388,3.000281200016616,0.6999642000009771,2.500310300005367,4.433679300011136,2.133362299995497,1.4333980999945197,1.27383,-0.112051827590455,-0.09641668885690315,,,,None,,-0.233,-0.23333333333333334,1.150169674178985,1.15,trial_list_0.8_green.csv,1.1503143000009004,1.1838173000141978,sarah_high1,001,2023-04-29_16h58.53.797,expectation_shapes_perceived_time,2022.2.4,120.09242313356899,
,233,0.8,met,,green,red,,376.2938874994856,,,,,0,4,4,475,trial,,,,,,green,0.3762938874994856,0.375,2.30012379999971,0.998343199986266,2e-05,2e-05,,0.3751785999920685,0.40834799999720417,2.000277699989965,,2.30012379999971,2.30012379999971,2.30012379999971,0.0,2.5003941000031773,3.183616099995561,0.8834922999958508,0.8834922999958508,0.34033,0.12961348740987358,0.07107836406347905,,,,None,,0.233,0.23333333333333334,0.6426238874994857,0.6416666666666666,trial_list_0.8_green.csv,0.641889499995159,0.6751203000021633,sarah_high1,001,2023-04-29_16h58.53.797,expectation_shapes_perceived_time,2022.2.4,120.09242313356899,
,167,0.8,met,,green,red,,1063.5056971268068,,,,,0,5,5,340,trial,,,,,,green,1.0635056971268069,1.0666666666666667,2.299786099989433,0.9979295999801252,1e-05,1e-05,0.0335,1.0667315000027884,1.1001133999961894,1.9998046999971848,2.0334192999871448,2.299786099989433,2.299786099989433,2.299786099989433,0.0,2.4999264999933075,3.2999574999848846,1.0001713999954518,1.0001713999954518,0.73326,0.10987634927798347,-0.09888871435018512,,,,None,,0.167,0.16666666666666666,1.2638356971268068,1.2666666666666666,trial_list_0.8_green.csv,1.266606099990895,1.2998478999943472,sarah_high1,001,2023-04-29_16h58.53.797,expectation_shapes_perceived_time,2022.2.4,120.09242313356899,
,-300,0.1999999999999999,unmet,,red,green,,1333.268058066441,,,,,0,6,6,484,trial,,,,,,red,1.3332680580664409,1.3333333333333333,2.299886399996467,0.9979421999887563,1e-05,1e-05,0.03321,1.3333806000009645,1.36668550001923,1.9999822000099812,2.0333104000019375,2.299886399996467,2.299886399996467,2.5666087999998126,0.2667224000033457,2.499742000014521,3.483609899994917,1.1837234999984503,0.9170010999951046,0.54725,0.14619804910131237,-0.021861390519822412,,,,None,,-0.3,-0.3,0.999938058066441,1.0,trial_list_0.8_green.csv,0.9998344000196084,1.0332214999943972,sarah_high1,001,2023-04-29_16h58.53.797,expectation_shapes_perceived_time,2022.2.4,120.09242313356899,
,300,0.8,met,,green,red,,189.7945345002853,,,,,0,7,7,452,trial,,,,,,green,0.1897945345002853,0.19166666666666665,2.2998569999763276,0.9983891999872867,2e-05,2e-05,0.03318,0.19140159999369644,0.2244895999901928,1.9996544999885373,2.032998199982103,2.2998569999763276,2.2998569999763276,2.441640099976212,0.14178309999988414,2.4998567999864463,3.8328862999915145,1.533029300015187,1.3912462000153027,0.7687,0.09820859423082867,-0.11048466850968226,,,,None,,0.3,0.3,0.5231245345002853,0.525,trial_list_0.8_green.csv,0.5250954999937676,0.5584518999967258,sarah_high1,001,2023-04-29_16h58.53.797,expectation_shapes_perceived_time,2022.2.4,120.09242313356899,
,300,0.1999999999999999,unmet,,red,green,,346.7447719932246,,,,,0,8,8,260,trial,,,,,,red,0.3467447719932246,0.35,2.2998212999955285,0.9990421000111382,1e-05,1e-05,,0.3497691999946255,0.3830376999976579,1.9995314000116196,,2.2998212999955285,2.2998212999955285,2.3747010999941267,0.07487979999859817,2.500196600012714,3.691680699994322,1.3918593999987934,1.3169796000001952,0.49293,0.14778702336594468,0.0032841560747987704,,,,None,,0.3,0.3,0.6800747719932246,0.6833333333333333,trial_list_0.8_green.csv,0.682955199998105,0.7164908999984618,sarah_high1,001,2023-04-29_16h58.53.797,expectation_shapes_perceived_time,2022.2.4,120.09242313356899,
,167,0.8,met,,green,red,,708.2708971820184,,,,,0,9,9,460,trial,,,,,,green,0.7082708971820184,0.7083333333333334,2.2998079000099096,0.9978498000127729,1e-05,1e-05,0.03328,0.7081539999926463,0.7415490999992471,1.9996034000068903,2.0330061999848112,2.2998079000099096,2.2998079000099096,2.341478799993638,0.041670899983728305,2.499883000011323,3.300027199991746,1.0002192999818362,0.9585483999981079,1.07877,-0.036207331273198126,-0.1433206862897426,,,,None,,0.167,0.16666666666666666,0.9086008971820184,0.9083333333333333,trial_list_0.8_green.csv,0.908174299984239,0.9418425000039861,sarah_high1,001,2023-04-29_16h58.53.797,expectation_shapes_perceived_time,2022.2.4,120.09242313356899,
,-167,0.8,met,,green,red,,696.9173900967019,,,,,0,10,10,275,trial,,,,,,green,0.6969173900967018,0.7,2.3003227000008337,0.99760940001579,1e-05,1e-05,0.03397,0.7002182999858633,0.7339764999924228,2.000419399992097,2.03393090001191,2.3003227000008337,2.3003227000008337,2.3003227000008337,0.0,2.50051959999837,3.1418664999946486,0.8415437999938149,0.8415437999938149,0.89562,0.04761065588182516,-0.1399464733496073,,,,None,,-0.167,-0.16666666666666666,0.4965873900967019,0.5,trial_list_0.8_green.csv,0.5004170000029262,0.5339653999835718,sarah_high1,001,2023-04-29_16h58.53.797,expectation_shapes_perceived_time,2022.2.4,120.09242313356899,
,-233,0.8,met,,green,red,,1787.0841069314415,,,,,0,11,11,272,trial,,,,,,green,1.7870841069314416,1.7916666666666667,2.2997213999915402,0.9981260999920778,1e-05,1e-05,0.0329,1.7915661000006367,1.824724599980982,1.9999151999945752,2.0330319000058807,2.2997213999915402,2.2997213999915402,2.2997213999915402,0.0,2.4996713000000454,3.374412500008475,1.0746911000169348,1.0746911000169348,1.21827,-0.09360743249441497,-0.1144090841598405,,,,None,,-0.233,-0.23333333333333334,1.5207541069314416,1.525,trial_list_0.8_green.csv,1.5247275999863632,1.5580706000037026,sarah_high1,001,2023-04-29_16h58.53.797,expectation_shapes_perceived_time,2022.2.4,120.09242313356899,
,-167,0.8,met,,green,red,,615.3463160635883,,,,,0,12,12,369,trial,,,,,,green,0.6153463160635884,0.6166666666666667,2.2998157999827527,0.9983922999817878,2e-05,2e-05,,0.6164196999743581,0.6498582999920473,2.0002642999752425,,2.2998157999827527,2.2998157999827527,2.2998157999827527,0.0,2.50014459999511,3.4416382999916095,1.1418225000088569,1.1418225000088569,0.43876,0.1450960160018468,0.02826545766269743,,,,None,,-0.167,-0.16666666666666666,0.41501631606358835,0.4166666666666667,trial_list_0.8_green.csv,0.41676389999338426,0.4499978999956511,sarah_high1,001,2023-04-29_16h58.53.797,expectation_shapes_perceived_time,2022.2.4,120.09242313356899,
,-300,0.8,met,,green,red,,1421.4110086722235,,,,,0,13,13,65,trial,,,,,,green,1.4214110086722236,1.425,2.300655099999858,0.9982621000090148,1e-05,1e-05,,1.4256004999915604,1.4586602000053972,2.0003900000010617,,2.300655099999858,2.300655099999858,2.3086101999797393,0.007955099979881197,2.5003546999942046,3.275631099997554,0.9749759999976959,0.9670209000178147,0.79697,0.0880220353953645,-0.11875988902549177,,,,None,,-0.3,-0.3,1.0880810086722235,1.0916666666666666,trial_list_0.8_green.csv,1.0920826999936253,1.1252773999876808,sarah_high1,001,2023-04-29_16h58.53.797,expectation_shapes_perceived_time,2022.2.4,120.09242313356899,
,100,0.1999999999999999,unmet,,red,green,,286.2704643312135,,,,,0,14,14,200,trial,,,,,,red,0.28627046433121345,0.2833333333333333,2.300595200009411,0.9974984000145923,1e-05,1e-05,0.03392,0.2835925999970641,0.31700919999275357,2.0000112999987323,2.0339797000051476,2.300595200009411,2.300595200009411,2.300595200009411,0.0,2.5003850999928545,3.058813100011321,0.7582179000019096,0.7582179000019096,0.37476,0.13652856102974936,0.05667223288027331,,,,None,,0.1,0.1,0.41960046433121345,0.4166666666666667,trial_list_0.8_green.csv,0.41670470000826754,0.45015290001174435,sarah_high1,001,2023-04-29_16h58.53.797,expectation_shapes_perceived_time,2022.2.4,120.09242313356899,
,-33,0.8,met,,green,red,,988.1926572680712,,,,,0,15,15,411,trial,,,,,,green,0.9881926572680713,0.9916666666666667,2.299997499998426,0.99836550001055,1e-05,1e-05,0.03293,0.9916522999992594,1.0249392999976408,1.9993628000083845,2.032975299982354,2.299997499998426,2.299997499998426,2.299997499998426,0.0,2.4996678000024986,4.149764900008449,1.8497674000100233,1.8497674000100233,0.66006,0.12952531068725334,-0.07123892087798933,,,,None,,-0.033,-0.03333333333333333,0.9218626572680712,0.9249999999999999,trial_list_0.8_green.csv,0.9249629999976605,0.9578308000054676,sarah_high1,001,2023-04-29_16h58.53.797,expectation_shapes_perceived_time,2022.2.4,120.09242313356899,
,300,0.1999999999999999,unmet,,red,green,,309.33798045287426,,,,,0,16,16,498,trial,,,,,,red,0.30933798045287425,0.30833333333333335,2.3004285999923013,0.9979025999782607,1e-05,1e-05,0.03366,0.30857229998218827,0.3416758999810554,2.0000368999899365,2.033706099988194,2.3004285999923013,2.3004285999923013,2.4171343999914825,0.11670579999918118,2.500021799991373,3.391854899993632,1.0914263000013307,0.9747205000021495,0.83663,0.07258327423029129,-0.12877677686019423,,,,None,,0.3,0.3,0.6426679804528743,0.6416666666666666,trial_list_0.8_green.csv,0.6416490999981761,0.6750635999778751,sarah_high1,001,2023-04-29_16h58.53.797,expectation_shapes_perceived_time,2022.2.4,120.09242313356899,
,33,0.8,met,,green,red,,862.091182491117,,,,,0,17,17,37,trial,,,,,,green,0.862091182491117,0.8666666666666667,2.29976059999899,0.9977531000040472,1e-05,1e-05,0.03331,0.8662532999878749,0.8999102999805473,1.9995125999848824,2.0327662999916356,2.29976059999899,2.29976059999899,2.29976059999899,0.0,2.4994235999765806,3.2493203999765683,0.9495597999775782,0.9495597999775782,0.60068,0.14049103901994447,-0.04597888549743637,,,,None,,0.033,0.03333333333333333,0.928421182491117,0.9249999999999999,trial_list_0.8_green.csv,0.9246719999937341,0.9578914000012446,sarah_high1,001,2023-04-29_16h58.53.797,expectation_shapes_perceived_time,2022.2.4,120.09242313356899,
,-167,0.8,met,,green,red,,1185.7900054551042,,,,,0,18,18,8,trial,,,,,,green,1.1857900054551043,1.1833333333333333,2.3004180999996606,0.9982247999869287,1e-05,1e-05,0.03375,1.1833984999975655,1.2168277000018861,2.0003585999947973,2.0334004999895114,2.3004180999996606,2.3004180999996606,2.40054030000465,0.10012220000498928,2.5004481000069063,3.2749298000126146,0.974511700012954,0.8743895000079647,1.31031,-0.12234370329447872,-0.08296871832614074,,,,None,,-0.167,-0.16666666666666666,0.9854600054551041,0.9833333333333333,trial_list_0.8_green.csv,0.9837187000084668,1.0166690000041854,sarah_high1,001,2023-04-29_16h58.53.797,expectation_shapes_perceived_time,2022.2.4,120.09242313356899,
,33,0.8,met,,green,red,,1669.4503854124089,,,,,0,19,19,490,trial,,,,,,green,1.669450385412409,1.6666666666666667,2.2996786999865435,0.9981788999866694,1e-05,1e-05,,1.6667065999936312,1.699650999973528,1.999851899978239,,2.2996786999865435,2.2996786999865435,2.2996786999865435,0.0,2.5000590999843553,3.6244277999794576,1.3247490999929141,1.3247490999929141,1.15421,-0.06884827223148224,-0.13081171723981624,,,,None,,0.033,0.03333333333333333,1.7357803854124088,1.7333333333333334,trial_list_0.8_green.csv,1.7329876000003424,1.7663589000003412,sarah_high1,001,2023-04-29_16h58.53.797,expectation_shapes_perceived_time,2022.2.4,120.09242313356899,
,-300,0.8,met,,green,red,,1635.158935643677,,,,,0,20,20,470,trial,,,,,,green,1.635158935643677,1.6333333333333333,2.3001829000131693,0.9986751000105869,2e-05,2e-05,0.03328,1.6337879000057,1.6667880000022706,2.000329500006046,2.033670400007395,2.3001829000131693,2.3001829000131693,2.566536600003019,0.2663536999898497,2.5001513000170235,3.3083035000017844,1.0081205999886151,0.7417668999987654,0.87888,0.05490027316870664,-0.1372506829217666,,,,None,,-0.3,-0.3,1.3018289356436772,1.3,trial_list_0.8_green.csv,1.2999741999956314,1.3332610999932513,sarah_high1,001,2023-04-29_16h58.53.797,expectation_shapes_perceived_time,2022.2.4,120.09242313356899,
,-233,0.8,met,,green,red,,710.5520521538231,,,,,0,21,21,147,trial,,,,,,green,0.7105520521538231,0.7083333333333334,2.299827400012873,0.9983203000156209,2e-05,2e-05,0.03336,0.7088306000223383,0.7419015000050422,2.0005572000227403,2.0335537000210024,2.299827400012873,2.299827400012873,2.299827400012873,0.0,2.5000360000121873,2.958373700006632,0.658546299993759,0.658546299993759,0.46248,0.14679778036378696,0.017383947674658985,,,,None,,-0.233,-0.23333333333333334,0.4442220521538231,0.44166666666666665,trial_list_0.8_green.csv,0.4419066999980714,0.4755140000197571,sarah_high1,001,2023-04-29_16h58.53.797,expectation_shapes_perceived_time,2022.2.4,120.09242313356899,
,-33,0.1999999999999999,unmet,,red,green,,1298.5548988997627,,,,,0,22,22,115,trial,,,,,,red,1.2985548988997628,1.3,2.300074600003427,0.9983202999865171,1e-05,1e-05,0.03358,1.3002279000065755,1.3335317999881227,2.0002276999875903,2.033493199996883,2.300074600003427,2.300074600003427,2.3086723999876995,0.00859779998427257,2.4999949999910314,3.2584926999988966,0.9584180999954697,0.9498203000111971,0.73586,0.10906498532356268,-0.0997828589130467,,,,None,,-0.033,-0.03333333333333333,1.2322248988997628,1.2333333333333334,trial_list_0.8_green.csv,1.23342119998415,1.26675750000868,sarah_high1,001,2023-04-29_16h58.53.797,expectation_shapes_perceived_time,2022.2.4,120.09242313356899,
,-100,0.8,met,,green,red,,339.8717789246724,,,,,0,23,23,241,trial,,,,,,green,0.3398717789246724,0.3416666666666667,2.300321900023846,0.9981432000058703,1e-05,1e-05,,0.3419570999976713,0.3749475000076927,1.999896199995419,,2.300321900023846,2.300321900023846,2.300321900023846,0.0,2.500087699998403,3.1003743000037502,0.8000523999799043,0.8000523999799043,1.22833,-0.09717455594495991,-0.1113952226686126,,,,None,,-0.1,-0.1,0.20654177892467243,0.20833333333333334,trial_list_0.8_green.csv,0.20840380000299774,0.24200470000505447,sarah_high1,001,2023-04-29_16h58.53.797,expectation_shapes_perceived_time,2022.2.4,120.09242313356899,
,300,0.1999999999999999,unmet,,red,green,,1388.7779231612233,,,,,0,24,24,374,trial,,,,,,red,1.3887779231612232,1.3916666666666666,2.2997083999798633,0.9973208000010345,1e-05,1e-05,,1.392070000001695,1.4250991999870166,2.000351099995896,,2.2997083999798633,2.2997083999798633,2.2997083999798633,0.0,2.5008654999837745,3.216827900003409,0.9171195000235457,0.9171195000235457,0.372,0.13603247072846109,0.05785288985003517,,,,None,,0.3,0.3,1.7221079231612233,1.7249999999999999,trial_list_0.8_green.csv,1.725138399982825,1.7582230999832973,sarah_high1,001,2023-04-29_16h58.53.797,expectation_shapes_perceived_time,2022.2.4,120.09242313356899,
,33,0.8,met,,green,red,,495.6610204936885,0,0,0,0,0,25,25,486,fam,0.5321294000023045,0.5321294000023045,270.0,2.5325088999816217,2.5325088999816217,,,,,,,,,,,,,,,,,,,,,,,,,,,,,,,,,,,,sarah_high1,001,2023-04-29_16h58.53.797,expectation_shapes_perceived_time,2022.2.4,120.09242313356899,
,33,0.8,met,,green,red,,495.6610204936885,1,0,1,0,0,25,25,486,fam,0.4989890999859199,0.4989890999859199,270.0,2.4987421999976505,2.4987421999976505,,,,,,,,,,,,,,,,,,,,,,,,,,,,,,,,,,,,sarah_high1,001,2023-04-29_16h58.53.797,expectation_shapes_perceived_time,2022.2.4,120.09242313356899,
,33,0.8,met,,green,red,,495.6610204936885,2,0,2,0,0,25,25,486,fam,0.4983856999897398,0.4983856999897398,270.0,2.4985530999838375,2.4985530999838375,,,,,,,,,,,,,,,,,,,,,,,,,,,,,,,,,,,,sarah_high1,001,2023-04-29_16h58.53.797,expectation_shapes_perceived_time,2022.2.4,120.09242313356899,
,33,0.8,met,,green,red,,495.6610204936885,3,0,3,0,0,25,25,486,fam,0.4981911000213586,0.4981911000213586,270.0,2.498403400008101,2.498403400008101,,,,,,,,,,,,,,,,,,,,,,,,,,,,,,,,,,,,sarah_high1,001,2023-04-29_16h58.53.797,expectation_shapes_perceived_time,2022.2.4,120.09242313356899,
,33,0.8,met,,green,red,,495.6610204936885,,,,,0,25,25,486,trial,,,,,,green,0.4956610204936885,0.5,2.3004061999963596,0.9988926000078209,4e-05,4e-05,0.03345,0.500274799996987,0.533737799996743,1.9999121000000741,2.033731400006218,2.3004061999963596,2.3004061999963596,2.3004061999963596,0.0,2.5000929000088945,3.091747700003907,0.7913415000075474,0.7913415000075474,0.25718,0.10685757737232068,0.1021432724882477,,,,None,,0.033,0.03333333333333333,0.5619910204936885,0.5583333333333333,trial_list_0.8_green.csv,0.558686200005468,0.591434300004039,sarah_high1,001,2023-04-29_16h58.53.797,expectation_shapes_perceived_time,2022.2.4,120.09242313356899,
,-167,0.8,met,,green,red,,1273.1970285690368,,,,,0,26,26,212,trial,,,,,,green,1.2731970285690368,1.275,2.300192499998957,0.9968876000202727,2e-05,2e-05,0.03337,1.2748957999865524,1.308348799997475,1.9998899000056554,2.033216799987713,2.300192499998957,2.300192499998957,2.300192499998957,0.0,2.500100300007034,3.3583924999984447,1.0581999999994878,1.0581999999994878,0.84011,0.07116885892238337,-0.12956382008946715,,,,None,,-0.167,-0.16666666666666666,1.072867028569037,1.075,trial_list_0.8_green.csv,1.0749242999881972,1.1082690999901388,sarah_high1,001,2023-04-29_16h58.53.797,expectation_shapes_perceived_time,2022.2.4,120.09242313356899,
,-300,0.8,met,,green,red,,1425.4977875290735,,,,,0,27,27,105,trial,,,,,,green,1.4254977875290735,1.425,2.29983859998174,0.9979538000188768,1e-05,1e-05,0.03355,1.4246009000053164,1.4581301999860443,2.0000768000027165,2.0332891999860294,2.29983859998174,2.29983859998174,2.29983859998174,0.0,2.499796399992192,3.0665374000091106,0.7666988000273705,0.7666988000273705,0.54219,0.14652678697845006,-0.019536904930460012,,,,None,,-0.3,-0.3,1.0921677875290736,1.0916666666666666,trial_list_0.8_green.csv,1.0917503999953624,1.1246546999900602,sarah_high1,001,2023-04-29_16h58.53.797,expectation_shapes_perceived_time,2022.2.4,120.09242313356899,
,167,0.8,met,,green,red,,1456.2376887584508,,,,,0,28,28,343,trial,,,,,,green,1.4562376887584507,1.4583333333333333,2.2997313999803737,0.9975273000018205,4e-05,4e-05,,1.458719399990514,1.4917990999820177,1.9999850999738555,,2.2997313999803737,2.2997313999803737,2.2997313999803737,0.0,2.500196799985133,3.0000130999833345,0.7002817000029609,0.7002817000029609,1.22032,-0.09433940577794364,-0.11380626728767804,,,,None,,0.167,0.16666666666666666,1.6565676887584506,1.6583333333333332,trial_list_0.8_green.csv,1.6585017999750562,1.69163089999347,sarah_high1,001,2023-04-29_16h58.53.797,expectation_shapes_perceived_time,2022.2.4,120.09242313356899,
,33,0.1999999999999999,unmet,,red,green,,1427.05255240466,,,,,0,29,29,224,trial,,,,,,red,1.42705255240466,1.425,2.3001878000213765,0.9976098999904934,1e-05,1e-05,,1.4251367000106256,1.4587269000185188,1.999998700019205,,2.3001878000213765,2.3001878000213765,2.3669666000059806,0.06677879998460412,2.5000576000020374,3.3832475999952294,1.083059799973853,1.0162809999892488,1.4093,-0.14186232588036535,-0.04155563081344035,,,,None,,0.033,0.03333333333333333,1.49338255240466,1.4916666666666667,trial_list_0.8_green.csv,1.4918430999969132,1.525250300008338,sarah_high1,001,2023-04-29_16h58.53.797,expectation_shapes_perceived_time,2022.2.4,120.09242313356899,
,233,0.8,met,,green,red,,1195.5745302953812,,,,,0,30,30,231,trial,,,,,,green,1.1955745302953813,1.2,2.299805099988589,0.9988934000139125,1e-05,1e-05,0.03331,1.199774000007892,1.233107200008817,1.9996374000038486,2.0330180999881122,2.299805099988589,2.299805099988589,2.299805099988589,0.0,2.4996157999848947,3.541397099994356,1.2415920000057667,1.2415920000057667,1.25239,-0.10530994664875552,-0.10373815640026665,,,,None,,0.233,0.23333333333333334,1.4619045302953813,1.4666666666666666,trial_list_0.8_green.csv,1.4666219000064302,1.4998902000079397,sarah_high1,001,2023-04-29_16h58.53.797,expectation_shapes_perceived_time,2022.2.4,120.09242313356899,
,-300,0.1999999999999999,unmet,,red,green,,593.8001971991082,,,,,0,31,31,104,trial,,,,,,red,0.5938001971991081,0.5916666666666667,2.300111199991079,0.9978138000005856,2e-05,2e-05,0.03355,0.5916882999881636,0.6251871999993455,2.000522099988302,2.0335173000057694,2.300111199991079,2.300111199991079,2.3087834999896586,0.008672299998579547,2.49975980000454,3.400078000006033,1.099966800014954,1.0912945000163745,0.45596,0.1464110204511045,0.020386344619774045,,,,None,,-0.3,-0.3,0.2604701971991082,0.2583333333333333,trial_list_0.8_green.csv,0.2583544999943115,0.29166439999244176,sarah_high1,001,2023-04-29_16h58.53.797,expectation_shapes_perceived_time,2022.2.4,120.09242313356899,
,-33,0.8,met,,green,red,,1428.2874547653378,,,,,0,32,32,95,trial,,,,,,green,1.4282874547653377,1.4333333333333333,2.3002514999825507,0.9978524000034668,4e-05,4e-05,0.03333,1.4335671000008006,1.4666274999908637,2.0003121999907307,2.03339159997995,2.3002514999825507,2.3002514999825507,2.7086952999816276,0.4084437999990769,2.5004412999842316,3.366791199980071,1.06653969999752,0.6580958999984432,1.17703,-0.07804107456171858,-0.12554433733841683,,,,None,,-0.033,-0.03333333333333333,1.361957454765338,1.3666666666666667,trial_list_0.8_green.csv,1.3670784999849275,1.4002953000017442,sarah_high1,001,2023-04-29_16h58.53.797,expectation_shapes_perceived_time,2022.2.4,120.09242313356899,
,-33,0.1999999999999999,unmet,,red,green,,1514.5348609005812,,,,,0,33,33,370,trial,,,,,,red,1.514534860900581,1.5166666666666666,2.2997641999972984,0.9988172999874223,1e-05,1e-05,0.03313,1.516360599984182,1.5495596999826375,1.999457199999597,2.0333156999840867,2.2997641999972984,2.2997641999972984,2.2997641999972984,0.0,2.4998733999964315,4.216117599979043,1.9163533999817446,1.9163533999817446,0.81585,0.08082825428426049,-0.12376826437277388,,,,None,,-0.033,-0.03333333333333333,1.4482048609005813,1.45,trial_list_0.8_green.csv,1.4496906999847852,1.4830531999759842,sarah_high1,001,2023-04-29_16h58.53.797,expectation_shapes_perceived_time,2022.2.4,120.09242313356899,
,167,0.1999999999999999,unmet,,red,green,,1049.7943178316857,,,,,0,34,34,499,trial,,,,,,red,1.0497943178316858,1.05,2.29973460000474,0.9984633999993093,1e-05,1e-05,,1.0498132999928202,1.082946800015634,1.9999264999933075,,2.29973460000474,2.29973460000474,2.316474899998866,0.016740299994125962,2.500029499991797,3.2166612000146415,0.9169266000099014,0.9001863000157755,0.96662,0.015474872237148002,-0.14701128625290602,,,,None,,0.167,0.16666666666666666,1.2501243178316856,1.25,trial_list_0.8_green.csv,1.2496793000027537,1.2832385000074282,sarah_high1,001,2023-04-29_16h58.53.797,expectation_shapes_perceived_time,2022.2.4,120.09242313356899,
,-300,0.8,met,,green,red,,1461.2631030677644,,,,,0,35,35,96,trial,,,,,,green,1.4612631030677643,1.4583333333333333,2.299775299994508,0.9980600000126287,1e-05,1e-05,0.03314,1.4581693999934942,1.4912982000096235,1.9997401000000536,2.0330194999987725,2.299775299994508,2.299775299994508,2.299775299994508,0.0,2.500086000014562,3.2415957000048365,0.9418204000103287,0.9418204000103287,0.45724,0.1464919789364176,0.01979621336978616,,,,None,,-0.3,-0.3,1.1279331030677644,1.125,trial_list_0.8_green.csv,1.1244349000044167,1.157978200004436,sarah_high1,001,2023-04-29_16h58.53.797,expectation_shapes_perceived_time,2022.2.4,120.09242313356899,
,100,0.8,met,,green,red,,222.31915218806435,,,,,0,36,36,496,trial,,,,,,green,0.22231915218806436,0.225,2.2999733999895398,0.9978893999941647,1e-05,1e-05,0.03337,0.22530859999824315,0.2586105999944266,1.9996612999821082,2.033051999984309,2.2999733999895398,2.2999733999895398,2.6832446999906097,0.3832713000010699,2.5001007999817375,3.400406800006749,1.1004334000172094,0.7171621000161394,0.28958,0.11668481499240999,0.09075485610520777,,,,None,,0.1,0.1,0.3556491521880643,0.35833333333333334,trial_list_0.8_green.csv,0.3582831999810878,0.3916380000009667,sarah_high1,001,2023-04-29_16h58.53.797,expectation_shapes_perceived_time,2022.2.4,120.09242313356899,
,100,0.8,met,,green,red,,1289.4438738667277,,,,,0,37,37,194,trial,,,,,,green,1.2894438738667278,1.2916666666666667,2.2998156000103336,0.9975938999850769,1e-05,1e-05,0.03324,1.2917505000077654,1.3254037000006065,2.0002168000210077,2.033583300013561,2.2998156000103336,2.2998156000103336,2.2998156000103336,0.0,2.499870900006499,3.566582900006324,1.2667672999959905,1.2667672999959905,0.2624,0.10851715547070413,0.10037836881040134,,,,None,,0.1,0.1,1.4227738738667277,1.425,trial_list_0.8_green.csv,1.4249325999990106,1.4586034000094514,sarah_high1,001,2023-04-29_16h58.53.797,expectation_shapes_perceived_time,2022.2.4,120.09242313356899,
,-233,0.8,met,,green,red,,1832.8218245678224,,,,,0,38,38,427,trial,,,,,,green,1.8328218245678225,1.8333333333333333,2.300124000001233,0.9979090999986511,2e-05,2e-05,0.03333,1.833248300012201,1.8666709999961313,1.99979460000759,2.0332654000085313,2.300124000001233,2.300124000001233,2.516978300001938,0.21685430000070482,2.5002783999952953,3.2500426000042353,0.9499186000030022,0.7330643000022974,0.45997,0.14665591754488694,0.018542702218319038,,,,None,,-0.233,-0.23333333333333334,1.5664918245678225,1.5666666666666667,trial_list_0.8_green.csv,1.5667167000065092,1.6000139999960084,sarah_high1,001,2023-04-29_16h58.53.797,expectation_shapes_perceived_time,2022.2.4,120.09242313356899,
,167,0.8,met,,green,red,,1108.721867188529,,,,,0,39,39,221,trial,,,,,,green,1.1087218671885288,1.1083333333333334,2.3003399000153877,0.9978614000137895,2e-05,2e-05,0.03357,1.108248000004096,1.1420641000149772,2.0000371000205632,2.0337652000016533,2.3003399000153877,2.3003399000153877,2.42549880000297,0.12515889998758212,2.5003948000085074,2.9997857000271324,0.6994458000117447,0.5742869000241626,0.67949,0.1249394580770365,-0.07900583378400837,,,,None,,0.167,0.16666666666666666,1.3090518671885287,1.3083333333333333,trial_list_0.8_green.csv,1.3084560000279453,1.3420489000272937,sarah_high1,001,2023-04-29_16h58.53.797,expectation_shapes_perceived_time,2022.2.4,120.09242313356899,
,-233,0.8,met,,green,red,,517.1712701295586,,,,,0,40,40,492,trial,,,,,,green,0.5171712701295585,0.5166666666666666,2.299807300005341,0.9981966999766883,5e-05,5e-05,0.03319,0.5166078000038397,0.5497410999960266,2.0002423000114504,2.033214900002349,2.299807300005341,2.299807300005341,2.358051399991382,0.058244099986040965,2.5000607999973,3.3253110999939963,1.0255037999886554,0.9672597000026144,0.1944,0.08477121630133719,0.12110173757333884,,,,None,,-0.233,-0.23333333333333334,0.2508412701295586,0.25,trial_list_0.8_green.csv,0.24997520001488738,0.28310190001502633,sarah_high1,001,2023-04-29_16h58.53.797,expectation_shapes_perceived_time,2022.2.4,120.09242313356899,
,-33,0.1999999999999999,unmet,,red,green,,1575.2570612892494,,,,,0,41,41,196,trial,,,,,,red,1.5752570612892494,1.575,2.3001500999962445,0.9976758999982849,1e-05,1e-05,,1.574845600000117,1.6080981999984942,1.9997992000135127,,2.3001500999962445,2.3001500999962445,2.3417826000077184,0.041632500011473894,2.5000632000155747,3.2504893000004813,0.9503392000042368,0.9087066999927629,0.91198,0.04035636290400762,-0.14220813594745543,,,,None,,-0.033,-0.03333333333333333,1.5089270612892494,1.5083333333333333,trial_list_0.8_green.csv,1.508121699996991,1.541621500015026,sarah_high1,001,2023-04-29_16h58.53.797,expectation_shapes_perceived_time,2022.2.4,120.09242313356899,
,300,0.8,met,,green,red,,581.7630989610917,,,,,0,42,42,428,trial,,,,,,green,0.5817630989610917,0.5833333333333334,2.2996799999964423,0.9981085000035819,4e-05,4e-05,,0.5833169000106864,0.6164626000099815,1.9996720000053756,,2.2996799999964423,2.2996799999964423,2.416468100011116,0.11678810001467355,2.499496200005524,3.299788600008469,1.0001086000120267,0.8833204999973532,0.60474,0.1398927569246854,-0.047768258462087695,,,,None,,0.3,0.3,0.9150930989610917,0.9166666666666666,trial_list_0.8_green.csv,0.916426700016018,0.9501975000021048,sarah_high1,001,2023-04-29_16h58.53.797,expectation_shapes_perceived_time,2022.2.4,120.09242313356899,
,-100,0.8,met,,green,red,,791.4526338687596,,,,,0,43,43,430,trial,,,,,,green,0.7914526338687595,0.7916666666666666,2.3001024999830406,0.9982947000244167,1e-05,1e-05,,0.7916753999888897,0.8251350999926217,1.9995827999955509,,2.3001024999830406,2.3001024999830406,2.366556099994341,0.0664536000113003,2.500143699988257,3.0581630999804474,0.7580605999974068,0.6916069999861065,0.35068,0.13185414811358365,0.06683018466030952,,,,None,,-0.1,-0.1,0.6581226338687596,0.6583333333333333,trial_list_0.8_green.csv,0.658434099983424,0.691561699990416,sarah_high1,001,2023-04-29_16h58.53.797,expectation_shapes_perceived_time,2022.2.4,120.09242313356899,
,233,0.8,met,,green,red,,1269.1997118576437,,,,,0,44,44,183,trial,,,,,,green,1.2691997118576437,1.2666666666666666,2.300423700013198,0.9977700999879744,1e-05,1e-05,0.03369,1.266983200010145,1.3003704999864567,2.0004821000038646,2.0335036999895237,2.300423700013198,2.300423700013198,2.675035199994454,0.3746114999812562,2.5004533999890555,3.375175199995283,1.074751499982085,0.7001400000008289,0.84011,0.07116885892238337,-0.12956382008946715,,,,None,,0.233,0.23333333333333334,1.5355297118576436,1.5333333333333332,trial_list_0.8_green.csv,1.5337641999940388,1.5670109000056982,sarah_high1,001,2023-04-29_16h58.53.797,expectation_shapes_perceived_time,2022.2.4,120.09242313356899,
,233,0.8,met,,green,red,,927.0118178548312,,,,,0,45,45,12,trial,,,,,,green,0.9270118178548312,0.9249999999999999,2.300475700001698,0.997331699996721,1e-05,1e-05,0.03388,0.9256370000075549,0.9588203000021167,2.00061800002004,2.0338444000226445,2.300475700001698,2.300475700001698,2.4754262000205927,0.17495050001889467,2.500601000007009,3.7584332000114955,1.4579575000097975,1.2830069999909028,0.63667,0.1344066974806099,-0.061535596436905746,,,,None,,0.233,0.23333333333333334,1.1933418178548312,1.1916666666666667,trial_list_0.8_green.csv,1.1920143000024837,1.2254801999952178,sarah_high1,001,2023-04-29_16h58.53.797,expectation_shapes_perceived_time,2022.2.4,120.09242313356899,
,167,0.8,met,,green,red,,1011.3567843056376,,,,,0,46,46,213,trial,,,,,,green,1.0113567843056375,1.0083333333333333,2.2999860999989323,0.998218699998688,3e-05,3e-05,,1.008661799976835,1.041669699974591,2.0003246999986004,,2.2999860999989323,2.2999860999989323,2.2999860999989323,0.0,2.5001382999762427,3.9748317999765277,1.6748456999775954,1.6748456999775954,1.26273,-0.10862122396657181,-0.10026574519991245,,,,None,,0.167,0.16666666666666666,1.2116867843056376,1.2166666666666666,trial_list_0.8_green.csv,1.216776299988851,1.250164400000358,sarah_high1,001,2023-04-29_16h58.53.797,expectation_shapes_perceived_time,2022.2.4,120.09242313356899,
,-300,0.8,met,,green,red,,802.4376604383549,,,,,0,47,47,124,trial,,,,,,green,0.8024376604383548,0.8,2.3000953000155278,0.998057599994354,1e-05,1e-05,0.03337,0.8001608999911696,0.8334829999948852,2.0001319000148214,2.033140799991088,2.3000953000155278,2.3000953000155278,2.3000953000155278,0.0,2.500168400001712,2.9918422999908216,0.6917469999752939,0.6917469999752939,0.33568,0.1285600241399713,0.07296650018755127,,,,None,,-0.3,-0.3,0.4691076604383549,0.4666666666666667,trial_list_0.8_green.csv,0.4662545000028331,0.49987279999186285,sarah_high1,001,2023-04-29_16h58.53.797,expectation_shapes_perceived_time,2022.2.4,120.09242313356899,
,-167,0.8,met,,green,red,,1706.8491692479977,,,,,0,48,48,253,trial,,,,,,green,1.7068491692479977,1.7083333333333333,2.299534699996002,0.9983757000009064,5e-05,5e-05,0.03282,1.7078565999981947,1.7410112000070512,1.9995124000124633,2.032666999992216,2.299534699996002,2.299534699996002,2.299534699996002,0.0,2.499890700011747,3.099737600015942,0.80020290001994,0.80020290001994,0.55806,0.14537088004992807,-0.02681598758202557,,,,None,,-0.167,-0.16666666666666666,1.5065191692479978,1.5083333333333333,trial_list_0.8_green.csv,1.5077681000111625,1.5410401000117417,sarah_high1,001,2023-04-29_16h58.53.797,expectation_shapes_perceived_time,2022.2.4,120.09242313356899,
,-167,0.8,met,,green,red,,1341.339157677782,,,,,0,49,49,480,trial,,,,,,green,1.341339157677782,1.3416666666666666,2.2999844000150915,0.9983037000056356,1e-05,1e-05,0.03344,1.342101200018078,1.374931700003799,2.0003091000253335,2.0336101000139024,2.2999844000150915,2.2999844000150915,2.316669500025455,0.016685100010363385,2.5000033999967854,3.1996985000150744,0.8997140999999829,0.8830289999896195,0.27419,0.11216125055700514,0.09628937547818367,,,,None,,-0.167,-0.16666666666666666,1.141009157677782,1.1416666666666666,trial_list_0.8_green.csv,1.1417656000121497,1.1747718999977224,sarah_high1,001,2023-04-29_16h58.53.797,expectation_shapes_perceived_time,2022.2.4,120.09242313356899,
,233,0.8,met,,green,red,,1233.1411314896934,0,0,0,0,0,50,50,394,fam,0.5316888999950606,0.5316888999950606,270.0,2.5317054000042845,2.5317054000042845,,,,,,,,,,,,,,,,,,,,,,,,,,,,,,,,,,,,sarah_high1,001,2023-04-29_16h58.53.797,expectation_shapes_perceived_time,2022.2.4,120.09242313356899,
,233,0.8,met,,green,red,,1233.1411314896934,1,0,1,0,0,50,50,394,fam,0.4986629999766592,0.4986629999766592,270.0,2.4987040999985766,2.4987040999985766,,,,,,,,,,,,,,,,,,,,,,,,,,,,,,,,,,,,sarah_high1,001,2023-04-29_16h58.53.797,expectation_shapes_perceived_time,2022.2.4,120.09242313356899,
,233,0.8,met,,green,red,,1233.1411314896934,2,0,2,0,0,50,50,394,fam,0.4981994000263512,0.4981994000263512,270.0,2.4981400000106078,2.4981400000106078,,,,,,,,,,,,,,,,,,,,,,,,,,,,,,,,,,,,sarah_high1,001,2023-04-29_16h58.53.797,expectation_shapes_perceived_time,2022.2.4,120.09242313356899,
,233,0.8,met,,green,red,,1233.1411314896934,3,0,3,0,0,50,50,394,fam,0.498782000009669,0.498782000009669,270.0,2.4988553000148386,2.4988553000148386,,,,,,,,,,,,,,,,,,,,,,,,,,,,,,,,,,,,sarah_high1,001,2023-04-29_16h58.53.797,expectation_shapes_perceived_time,2022.2.4,120.09242313356899,
,233,0.8,met,,green,red,,1233.1411314896934,,,,,0,50,50,394,trial,,,,,,green,1.2331411314896934,1.2333333333333334,2.299792100006016,0.9989859000197612,2e-05,2e-05,,1.2334050000063144,1.266585200006375,2.0000557999883313,,2.299792100006016,2.299792100006016,2.44154339999659,0.1417512999905739,2.4996502999856602,3.3248772000079043,1.0250851000018883,0.8833338000113145,0.26446,0.10916551741628926,0.09967286372791628,,,,None,,0.233,0.23333333333333334,1.4994711314896934,1.5,trial_list_0.8_green.csv,1.5000361999846064,1.5332653000077698,sarah_high1,001,2023-04-29_16h58.53.797,expectation_shapes_perceived_time,2022.2.4,120.09242313356899,
,300,0.8,met,,green,red,,1057.614631869665,,,,,0,51,51,444,trial,,,,,,green,1.0576146318696649,1.0583333333333333,2.3001092999766115,0.997054899984505,2e-05,2e-05,0.0331,1.058261300000595,1.0919999999750871,2.0001657999819145,2.0334928999945987,2.3001092999766115,2.3001092999766115,2.3001092999766115,0.0,2.5004771999956574,3.1831466000003275,0.8830373000237159,0.8830373000237159,0.45951,0.14662893654965783,0.018754863977281815,,,,None,,0.3,0.3,1.3909446318696648,1.3916666666666666,trial_list_0.8_green.csv,1.391690299991751,1.4252306999987923,sarah_high1,001,2023-04-29_16h58.53.797,expectation_shapes_perceived_time,2022.2.4,120.09242313356899,
,-100,0.8,met,,green,red,,520.8338288746309,,,,,0,52,52,483,trial,,,,,,green,0.5208338288746308,0.525,2.300210999994306,0.9984234000148717,2e-05,2e-05,,0.5248351999907754,0.5583120000083,1.999669900018489,,2.300210999994306,2.300210999994306,2.650287500000559,0.3500765000062529,2.500155399990035,3.2168689999962226,0.9166580000019167,0.5665814999956638,0.6142,0.1384114650615487,-0.051904299398080764,,,,None,,-0.1,-0.1,0.38750382887463086,0.39166666666666666,trial_list_0.8_green.csv,0.3916906999947969,0.42483060000813566,sarah_high1,001,2023-04-29_16h58.53.797,expectation_shapes_perceived_time,2022.2.4,120.09242313356899,
,167,0.8,met,,green,red,,1228.5317116907734,,,,,0,53,53,195,trial,,,,,,green,1.2285317116907735,1.2333333333333334,2.300200500001665,0.9977529000025243,1e-05,1e-05,0.03328,1.2332676000078209,1.2665848000033293,1.9997840000141878,2.0333578000136185,2.300200500001665,2.300200500001665,2.7751122000045143,0.4749117000028491,2.4999301000207197,3.4418042000033893,1.141603700001724,0.666691999998875,0.40194,0.14086483308038183,0.044820628707394214,,,,None,,0.167,0.16666666666666666,1.4288617116907734,1.4333333333333333,trial_list_0.8_green.csv,1.4332467000058386,1.4664155000064056,sarah_high1,001,2023-04-29_16h58.53.797,expectation_shapes_perceived_time,2022.2.4,120.09242313356899,
,-100,0.8,met,,green,red,,1382.31738158003,,,,,0,54,54,438,trial,,,,,,green,1.38231738158003,1.3833333333333333,2.3000868000090122,0.9982558000192512,1e-05,1e-05,0.03333,1.382830799993826,1.4162054999906104,1.9997460000158753,2.0330975000106264,2.3000868000090122,2.3000868000090122,2.3000868000090122,0.0,2.500019200000679,3.2663477000023704,0.9662608999933582,0.9662608999933582,1.03085,-0.01430428588438921,-0.1471297976680033,,,,None,,-0.1,-0.1,1.24898738158003,1.25,trial_list_0.8_green.csv,1.2498157999943942,1.2829140000103507,sarah_high1,001,2023-04-29_16h58.53.797,expectation_shapes_perceived_time,2022.2.4,120.09242313356899,
,167,0.8,met,,green,red,,1350.823321874999,,,,,0,55,55,458,trial,,,,,,green,1.350823321874999,1.35,2.3000153000175487,0.9986272999958601,1e-05,1e-05,0.03341,1.3500696000119206,1.3833235000201967,2.000107100000605,2.033192200004123,2.3000153000175487,2.3000153000175487,2.3000153000175487,0.0,2.499764000007417,3.2164492000010796,0.9164338999835309,0.9164338999835309,0.92116,0.03623992914988131,-0.14331244709271246,,,,None,,0.167,0.16666666666666666,1.5511533218749989,1.55,trial_list_0.8_green.csv,1.5496509000076912,1.5830836000095587,sarah_high1,001,2023-04-29_16h58.53.797,expectation_shapes_perceived_time,2022.2.4,120.09242313356899,
,233,0.1999999999999999,unmet,,red,green,,598.0053702209204,,,,,0,56,56,447,trial,,,,,,red,0.5980053702209205,0.6,2.2999493000097573,0.9978887000179384,1e-05,1e-05,,0.599895799998194,0.633326200011652,1.9998845999944024,,2.2999493000097573,2.2999493000097573,2.4498768000048585,0.14992749999510124,2.499959700013278,3.1832177999895066,0.8832684999797493,0.7333409999846481,1.25718,-0.10685757737232068,-0.1021432724882477,,,,None,,0.233,0.23333333333333334,0.8643353702209204,0.8666666666666667,trial_list_0.8_green.csv,0.8666887999861501,0.9000836999912281,sarah_high1,001,2023-04-29_16h58.53.797,expectation_shapes_perceived_time,2022.2.4,120.09242313356899,
,167,0.8,met,,green,red,,299.204398911781,,,,,0,57,57,198,trial,,,,,,green,0.299204398911781,0.3,2.3000633000046946,0.9979306000168435,1e-05,1e-05,0.03332,0.29997620001086034,0.3333279000071343,1.999998700019205,2.033338700013701,2.3000633000046946,2.3000633000046946,2.6751140000123996,0.375050700007705,2.5000437000126112,3.3250088000204414,1.0249455000157468,0.6498948000080418,1.0644,-0.02970426853536448,-0.14480830910990186,,,,None,,0.167,0.16666666666666666,0.49953439891178103,0.5,trial_list_0.8_green.csv,0.4999845999991521,0.5333975000248756,sarah_high1,001,2023-04-29_16h58.53.797,expectation_shapes_perceived_time,2022.2.4,120.09242313356899,
,167,0.8,met,,green,red,,595.8373461042937,,,,,0,58,58,49,trial,,,,,,green,0.5958373461042937,0.6,2.300561400013976,0.9981011999770999,4e-05,4e-05,,0.5999197000055574,0.6333543000218924,2.0002359000209253,,2.300561400013976,2.300561400013976,2.300561400013976,0.0,2.5004113000177313,3.1665505999990273,0.8659891999850515,0.8659891999850515,0.52417,0.14739746666368192,-0.011215024637454059,,,,None,,0.167,0.16666666666666666,0.7961673461042937,0.8,trial_list_0.8_green.csv,0.7999451000068802,0.833316600008402,sarah_high1,001,2023-04-29_16h58.53.797,expectation_shapes_perceived_time,2022.2.4,120.09242313356899,
,-167,0.8,met,,green,red,,570.843731397301,,,,,0,59,59,168,trial,,,,,,green,0.5708437313973009,0.575,2.300233500020113,0.99857019999763,1e-05,1e-05,0.03363,0.5754421000019647,0.60883310000645,2.000618600024609,2.0338538000069093,2.300233500020113,2.300233500020113,2.300233500020113,0.0,2.500260300002992,2.9256643000117037,0.6254307999915909,0.6254307999915909,0.31925,0.12462444866000359,0.07950180345551952,,,,None,,-0.167,-0.16666666666666666,0.370513731397301,0.36666666666666664,trial_list_0.8_green.csv,0.36690910000470467,0.40030980002484284,sarah_high1,001,2023-04-29_16h58.53.797,expectation_shapes_perceived_time,2022.2.4,120.09242313356899,
,-100,0.1999999999999999,unmet,,red,green,,923.2286847099406,,,,,0,60,60,271,trial,,,,,,red,0.9232286847099406,0.9249999999999999,2.300331600010395,0.9977496000065003,1e-05,1e-05,,0.9249108000076376,0.9582409000140615,1.9997713000047952,,2.300331600010395,2.300331600010395,2.300331600010395,0.0,2.5001217999961227,3.26690210000379,0.9665704999933951,0.9665704999933951,0.75468,0.10297870948401318,-0.10605270081189415,,,,None,,-0.1,-0.1,0.7898986847099405,0.7916666666666666,trial_list_0.8_green.csv,0.7915101000107825,0.8249112000048626,sarah_high1,001,2023-04-29_16h58.53.797,expectation_shapes_perceived_time,2022.2.4,120.09242313356899,
,233,0.1999999999999999,unmet,,red,green,,1354.218268406153,,,,,0,61,61,219,trial,,,,,,red,1.354218268406153,1.3583333333333334,2.2997418000013568,0.997490400011884,1e-05,1e-05,0.03336,1.3583552000054624,1.391593800013652,1.9996057999960613,2.0330389000009745,2.2997418000013568,2.2997418000013568,2.3080542999960016,0.008312499994644895,2.49990880000405,3.4663561999914236,1.1666143999900669,1.158301899995422,0.96872,0.014503828556734414,-0.14711026107544906,,,,None,,0.233,0.23333333333333334,1.6205482684061527,1.625,trial_list_0.8_green.csv,1.624579099996481,1.6582025999960024,sarah_high1,001,2023-04-29_16h58.53.797,expectation_shapes_perceived_time,2022.2.4,120.09242313356899,
,-167,0.8,met,,green,red,,1037.777927176072,,,,,0,62,62,131,trial,,,,,,green,1.0377779271760719,1.0416666666666667,2.2995267000223976,0.9975746000127401,1e-05,1e-05,0.03328,1.0413743000244722,1.0750224000075832,1.999768400011817,2.0329775999998674,2.2995267000223976,2.2995267000223976,2.2995267000223976,0.0,2.499859000003198,2.8747533000132535,0.5752265999908559,0.5752265999908559,0.60717,0.139524454694858,-0.0488335591432003,,,,None,,-0.167,-0.16666666666666666,0.8374479271760719,0.8416666666666667,trial_list_0.8_green.csv,0.841637500008801,0.8749063000141177,sarah_high1,001,2023-04-29_16h58.53.797,expectation_shapes_perceived_time,2022.2.4,120.09242313356899,
,-300,0.8,met,,green,red,,960.6243482436512,,,,,0,63,63,347,trial,,,,,,green,0.9606243482436512,0.9583333333333334,2.2998046999855433,0.9976955000020098,1e-05,1e-05,,0.9581558000063524,0.9914442999870516,1.9999092999787536,,2.2998046999855433,2.2998046999855433,2.2998046999855433,0.0,2.499712399992859,3.199432800000068,0.8996281000145245,0.8996281000145245,0.43238,0.14450059133178395,0.031166794208816146,,,,None,,-0.3,-0.3,0.6272943482436512,0.625,trial_list_0.8_green.csv,0.6247587999969255,0.6582364999921992,sarah_high1,001,2023-04-29_16h58.53.797,expectation_shapes_perceived_time,2022.2.4,120.09242313356899,
,300,0.1999999999999999,unmet,,red,green,,581.7930790351173,,,,,0,64,64,54,trial,,,,,,red,0.5817930790351173,0.5833333333333334,2.300122899992857,0.9988310000044294,1e-05,1e-05,,0.583487600000808,0.6166658000147436,2.0002136999974027,,2.300122899992857,2.300122899992857,2.300122899992857,0.0,2.5001612000050955,3.008505100006005,0.7083822000131477,0.7083822000131477,0.79194,0.08988805811143376,-0.11735385364548294,,,,None,,0.3,0.3,0.9151230790351174,0.9166666666666666,trial_list_0.8_green.csv,0.9168060999945737,0.9501124999951571,sarah_high1,001,2023-04-29_16h58.53.797,expectation_shapes_perceived_time,2022.2.4,120.09242313356899,
,300,0.1999999999999999,unmet,,red,green,,992.2983237257596,,,,,0,65,65,167,trial,,,,,,red,0.9922983237257595,0.9916666666666667,2.300409599993145,0.997626800002763,1e-05,1e-05,0.03343,0.9919162000005599,1.0252497000037692,2.0004181999829598,2.0336509000044316,2.300409599993145,2.300409599993145,2.3753645999822766,0.07495499998913147,2.5001983999973163,3.3170374000037555,1.0166278000106104,0.9416728000214789,1.20443,-0.08854490690589037,-0.1183705597584008,,,,None,,0.3,0.3,1.3256283237257593,1.325,trial_list_0.8_green.csv,1.3253371999890078,1.3586310000100639,sarah_high1,001,2023-04-29_16h58.53.797,expectation_shapes_perceived_time,2022.2.4,120.09242313356899,
,-300,0.8,met,,green,red,,1643.0459336808965,,,,,0,66,66,175,trial,,,,,,green,1.6430459336808965,1.6416666666666666,2.300301599985687,0.9980275999987498,1e-05,1e-05,0.03349,1.6418456999817863,1.6749928999925032,1.999751199997263,2.0335814999998547,2.300301599985687,2.300301599985687,2.300301599985687,0.0,2.4997944999777246,3.3751503999810666,1.0748487999953795,1.0748487999953795,1.34446,-0.13052386693592385,-0.06939243558618738,,,,None,,-0.3,-0.3,1.3097159336808966,1.3083333333333333,trial_list_0.8_green.csv,1.3083456000022124,1.3417171999753918,sarah_high1,001,2023-04-29_16h58.53.797,expectation_shapes_perceived_time,2022.2.4,120.09242313356899,
,167,0.8,met,,green,red,,1046.8120323907635,,,,,0,67,67,392,trial,,,,,,green,1.0468120323907635,1.05,2.3003086000098847,0.9972774000198115,1e-05,1e-05,,1.0499623999930918,1.0837611999886576,1.999895099987043,,2.3003086000098847,2.3003086000098847,2.3003086000098847,0.0,2.4999372999882326,3.1916497999918647,0.89134119998198,0.89134119998198,1.54108,-0.1465943015664879,0.01902368798954423,,,,None,,0.167,0.16666666666666666,1.2471420323907634,1.25,trial_list_0.8_green.csv,1.2502636999997776,1.2832376000005752,sarah_high1,001,2023-04-29_16h58.53.797,expectation_shapes_perceived_time,2022.2.4,120.09242313356899,
,-100,0.1999999999999999,unmet,,red,green,,764.4417833484246,,,,,0,68,68,455,trial,,,,,,red,0.7644417833484246,0.7666666666666666,2.299545499990927,0.998476800014032,2e-05,2e-05,,0.7668106000055559,0.8001994999940507,1.9999914999934845,,2.299545499990927,2.299545499990927,2.299545499990927,0.0,2.49976350000361,3.5416630000108853,1.2421175000199582,1.2421175000199582,0.69171,0.12181276919800102,-0.0837462788236257,,,,None,,-0.1,-0.1,0.6311117833484245,0.6333333333333333,trial_list_0.8_green.csv,0.6332802000106312,0.666489700000966,sarah_high1,001,2023-04-29_16h58.53.797,expectation_shapes_perceived_time,2022.2.4,120.09242313356899,
,100,0.8,met,,green,red,,256.2497607782552,,,,,0,69,69,407,trial,,,,,,green,0.25624976077825523,0.2583333333333333,2.3001851000008173,0.9975453999941237,1e-05,1e-05,0.03362,0.2587746000208426,0.2917965000087861,2.000065000000177,2.0334981000050902,2.3001851000008173,2.3001851000008173,2.3001851000008173,0.0,2.500104500009911,2.916706100018928,0.6165210000181105,0.6165210000181105,0.35755,0.13326630223669303,0.06396782507361266,,,,None,,0.1,0.1,0.3895797607782552,0.39166666666666666,trial_list_0.8_green.csv,0.39185559999896213,0.42510540000512265,sarah_high1,001,2023-04-29_16h58.53.797,expectation_shapes_perceived_time,2022.2.4,120.09242313356899,
,-33,0.8,met,,green,red,,1667.514585312528,,,,,0,70,70,0,trial,,,,,,green,1.667514585312528,1.6666666666666667,2.3003914000000805,0.9976102999935392,2e-05,2e-05,,1.667139800003497,1.7004410000226926,1.999995200021658,,2.3003914000000805,2.3003914000000805,2.3003914000000805,0.0,2.5000215000181925,3.1671921999950428,0.8668007999949623,0.8668007999949623,0.65856,0.12986057347639796,-0.07062592592576028,,,,None,,-0.033,-0.03333333333333333,1.601184585312528,1.6,trial_list_0.8_green.csv,1.6006827999954112,1.6339134000008926,sarah_high1,001,2023-04-29_16h58.53.797,expectation_shapes_perceived_time,2022.2.4,120.09242313356899,
,-100,0.8,met,,green,red,,1688.125941129497,,,,,0,71,71,491,trial,,,,,,green,1.688125941129497,1.6916666666666667,2.300441300001694,0.9978980000014417,3e-05,3e-05,0.03298,1.691581099992618,1.724885900010122,1.9998852999997325,2.033642800000962,2.300441300001694,2.300441300001694,2.300441300001694,0.0,2.500295500009088,3.1832390000054147,0.8827977000037208,0.8827977000037208,1.02147,-0.009965353076355111,-0.14748722553005567,,,,None,,-0.1,-0.1,1.5547959411294971,1.5583333333333333,trial_list_0.8_green.csv,1.5586359000008088,1.5918985000171233,sarah_high1,001,2023-04-29_16h58.53.797,expectation_shapes_perceived_time,2022.2.4,120.09242313356899,
,-33,0.8,met,,green,red,,654.0272389303068,,,,,0,72,72,42,trial,,,,,,green,0.6540272389303068,0.6583333333333333,2.300212799978908,0.9984883000142872,9e-05,9e-05,,0.6580697999743279,0.6914910999767017,2.000129599997308,,2.300212799978908,2.300212799978908,2.308663899981184,0.00845110000227578,2.50008239998715,3.3920138999819756,1.0918011000030674,1.0833500000007916,0.26372,0.1089331007722675,0.09992682078715875,,,,None,,-0.033,-0.03333333333333333,0.5876972389303068,0.5916666666666667,trial_list_0.8_green.csv,0.5913933999836445,0.6248038999910932,sarah_high1,001,2023-04-29_16h58.53.797,expectation_shapes_perceived_time,2022.2.4,120.09242313356899,
,300,0.8,met,,green,red,,1126.8730798159652,,,,,0,73,73,254,trial,,,,,,green,1.1268730798159652,1.125,2.30003189999843,0.9980522000114433,1e-05,1e-05,,1.1247152999858372,1.1581221999949776,1.9998135000059847,,2.30003189999843,2.30003189999843,2.30003189999843,0.0,2.500214700005017,3.666969199985033,1.3669372999866027,1.3669372999866027,0.64001,0.13375347600709986,-0.06294281223863522,,,,None,,0.3,0.3,1.460203079815965,1.4583333333333333,trial_list_0.8_green.csv,1.4586308999860194,1.4916372000006959,sarah_high1,001,2023-04-29_16h58.53.797,expectation_shapes_perceived_time,2022.2.4,120.09242313356899,
,-167,0.8,met,,green,red,,1464.2640021765048,,,,,0,74,74,465,trial,,,,,,green,1.4642640021765048,1.4666666666666666,2.299788800009992,0.997990599978948,2e-05,2e-05,0.03313,1.466213500010781,1.4994961000047624,1.999890500010224,2.033262000011746,2.299788800009992,2.299788800009992,2.299788800009992,0.0,2.4998730000224896,2.9330726000189316,0.6332838000089396,0.6332838000089396,1.62008,-0.1374287821021718,0.05445291366312468,,,,None,,-0.167,-0.16666666666666666,1.2639340021765049,1.2666666666666666,trial_list_0.8_green.csv,1.2662404000002425,1.299525700014783,sarah_high1,001,2023-04-29_16h58.53.797,expectation_shapes_perceived_time,2022.2.4,120.09242313356899,
,-100,0.8,met,,green,red,,1817.1424477644089,0,0,0,0,0,75,75,462,fam,0.53241360001266,0.53241360001266,270.0,2.532308199995896,2.532308199995896,,,,,,,,,,,,,,,,,,,,,,,,,,,,,,,,,,,,sarah_high1,001,2023-04-29_16h58.53.797,expectation_shapes_perceived_time,2022.2.4,120.09242313356899,
,-100,0.8,met,,green,red,,1817.1424477644089,1,0,1,0,0,75,75,462,fam,0.49867649999214336,0.49867649999214336,270.0,2.4987043000000995,2.4987043000000995,,,,,,,,,,,,,,,,,,,,,,,,,,,,,,,,,,,,sarah_high1,001,2023-04-29_16h58.53.797,expectation_shapes_perceived_time,2022.2.4,120.09242313356899,
,-100,0.8,met,,green,red,,1817.1424477644089,2,0,2,0,0,75,75,462,fam,0.4988391000078991,0.4988391000078991,270.0,2.4993249000108335,2.4993249000108335,,,,,,,,,,,,,,,,,,,,,,,,,,,,,,,,,,,,sarah_high1,001,2023-04-29_16h58.53.797,expectation_shapes_perceived_time,2022.2.4,120.09242313356899,
,-100,0.8,met,,green,red,,1817.1424477644089,3,0,3,0,0,75,75,462,fam,0.4986362000054214,0.4986362000054214,270.0,2.4985518000030424,2.4985518000030424,,,,,,,,,,,,,,,,,,,,,,,,,,,,,,,,,,,,sarah_high1,001,2023-04-29_16h58.53.797,expectation_shapes_perceived_time,2022.2.4,120.09242313356899,
,-100,0.8,met,,green,red,,1817.1424477644089,,,,,0,75,75,462,trial,,,,,,green,1.817142447764409,1.8166666666666667,2.3000476000015624,0.9910463999840431,1e-05,1e-05,0.03295,1.8164878000097815,1.8498249000112992,1.9999889000027906,2.0329152999911457,2.3000476000015624,2.3000476000015624,2.3000476000015624,0.0,2.4996939999982715,3.8916140999936033,1.591566499992041,1.591566499992041,1.58608,-0.14245078663599514,0.039491307186216476,,,,None,,-0.1,-0.1,1.683812447764409,1.6833333333333333,trial_list_0.8_green.csv,1.6833168000157457,1.7164905999961775,sarah_high1,001,2023-04-29_16h58.53.797,expectation_shapes_perceived_time,2022.2.4,120.09242313356899,
,-100,0.8,met,,green,red,,1546.7400211367485,,,,,0,76,76,246,trial,,,,,,green,1.5467400211367486,1.55,2.299847199989017,0.9975224999943748,1e-05,1e-05,0.03342,1.5500287999748252,1.5833949999941979,2.0000161999778356,2.033198999997694,2.299847199989017,2.299847199989017,2.299847199989017,0.0,2.4999764999956824,3.033355899999151,0.7335087000101339,0.7335087000101339,1.46919,-0.14713170716022345,-0.014284631763128488,,,,None,,-0.1,-0.1,1.4134100211367486,1.4166666666666667,trial_list_0.8_green.csv,1.4167017999861855,1.449656299984781,sarah_high1,001,2023-04-29_16h58.53.797,expectation_shapes_perceived_time,2022.2.4,120.09242313356899,
,-167,0.8,met,,green,red,,1197.523080502047,,,,,0,77,77,320,trial,,,,,,green,1.197523080502047,1.2,2.3001169999770354,0.9976063999929465,2e-05,2e-05,0.03325,1.1999443999957293,1.233472099993378,1.9999489999900106,2.033174299984239,2.3001169999770354,2.3001169999770354,2.3001169999770354,0.0,2.500123199977679,3.3920350999978837,1.0919181000208482,1.0919181000208482,1.35444,-0.13263575030544722,-0.06526521046775975,,,,None,,-0.167,-0.16666666666666666,0.9971930805020469,1.0,trial_list_0.8_green.csv,1.0002554999955464,1.0332574999774806,sarah_high1,001,2023-04-29_16h58.53.797,expectation_shapes_perceived_time,2022.2.4,120.09242313356899,
,-300,0.8,met,,green,red,,640.0486035463051,,,,,0,78,78,71,trial,,,,,,green,0.6400486035463051,0.6416666666666666,2.299837099999422,0.9975609999964945,1e-05,1e-05,,0.6413009999960195,0.6745284000062384,1.9999731999996584,,2.299837099999422,2.299837099999422,2.299837099999422,0.0,2.4996257000020705,3.132900399999926,0.8330633000005037,0.8330633000005037,0.40292,0.14100134376399615,0.04438931192570249,,,,None,,-0.3,-0.3,0.30671860354630515,0.30833333333333335,trial_list_0.8_green.csv,0.30785469998954795,0.341154199995799,sarah_high1,001,2023-04-29_16h58.53.797,expectation_shapes_perceived_time,2022.2.4,120.09242313356899,
,100,0.8,met,,green,red,,1450.1762589025025,,,,,0,79,79,199,trial,,,,,,green,1.4501762589025025,1.45,2.2999669999990147,0.9977926000137813,1e-05,1e-05,0.03346,1.4499782999919262,1.4833478000073228,2.000694000016665,2.0332473999878857,2.2999669999990147,2.2999669999990147,2.2999669999990147,0.0,2.500432600005297,3.674917299998924,1.3749502999999095,1.3749502999999095,0.87524,0.05646695115515269,-0.13661359150440167,,,,None,,0.1,0.1,1.5835062589025024,1.5833333333333333,trial_list_0.8_green.csv,1.5836666999966837,1.6166293999995105,sarah_high1,001,2023-04-29_16h58.53.797,expectation_shapes_perceived_time,2022.2.4,120.09242313356899,
,-300,0.8,met,,green,red,,705.5168423423949,,,,,0,80,80,478,trial,,,,,,green,0.7055168423423949,0.7083333333333334,2.3000045999942813,0.9975267999980133,1e-05,1e-05,,0.708258400001796,0.7419412000162993,2.0001343000039924,2.033364900009474,2.3000045999942813,2.3000045999942813,2.3000045999942813,0.0,2.5000436000118498,2.8416736999934074,0.541669099999126,0.541669099999126,0.47187,0.1472466005926169,0.013047167141117954,,,,None,,-0.3,-0.3,0.37218684234239485,0.375,trial_list_0.8_green.csv,0.37506660001236014,0.4085215000086464,sarah_high1,001,2023-04-29_16h58.53.797,expectation_shapes_perceived_time,2022.2.4,120.09242313356899,
,300,0.8,met,,green,red,,1351.7427879320703,,,,,0,81,81,34,trial,,,,,,green,1.3517427879320703,1.35,2.3000858000013977,0.9973742000001948,2e-05,2e-05,,1.3500377000018489,1.3838619999878574,2.0001060999929905,,2.3000858000013977,2.3000858000013977,2.367106799996691,0.0670209999952931,2.50015850001364,3.150141699996311,0.8500558999949135,0.7830348999996204,1.33412,-0.12820039638593805,-0.07359652385118666,,,,None,,0.3,0.3,1.6850727879320702,1.6833333333333333,trial_list_0.8_green.csv,1.6836360000015702,1.7167866000090726,sarah_high1,001,2023-04-29_16h58.53.797,expectation_shapes_perceived_time,2022.2.4,120.09242313356899,
,-300,0.8,met,,green,red,,1738.5213737689642,,,,,0,82,82,339,trial,,,,,,green,1.7385213737689642,1.7416666666666667,2.2998857000202406,0.9987905999878421,2e-05,2e-05,,1.7415005000075325,1.7751339000242297,1.9997112000128254,,2.2998857000202406,2.2998857000202406,2.3079776000231504,0.008091900002909824,2.4998855000012554,2.9579229000082705,0.6580371999880299,0.6499452999851201,1.59534,-0.14124162207465701,0.04361873622893819,,,,None,,-0.3,-0.3,1.4051913737689643,1.4083333333333332,trial_list_0.8_green.csv,1.4082670000207145,1.441805700014811,sarah_high1,001,2023-04-29_16h58.53.797,expectation_shapes_perceived_time,2022.2.4,120.09242313356899,
,-167,0.8,met,,green,red,,931.2607120632345,,,,,0,83,83,66,trial,,,,,,green,0.9312607120632345,0.9333333333333333,2.30051669999375,0.9982646999997087,2e-05,2e-05,0.03336,0.9333641999983229,0.9670580000092741,2.0001127000141423,2.033924199989997,2.30051669999375,2.30051669999375,2.30051669999375,0.0,2.500495199987199,3.29986060000374,0.9993439000099897,0.9993439000099897,0.65296,0.13108293952455943,-0.06833046847556822,,,,None,,-0.167,-0.16666666666666666,0.7309307120632345,0.7333333333333333,trial_list_0.8_green.csv,0.7333867000124883,0.7671178999880794,sarah_high1,001,2023-04-29_16h58.53.797,expectation_shapes_perceived_time,2022.2.4,120.09242313356899,
,233,0.8,met,,green,red,,748.143110409754,,,,,0,84,84,382,trial,,,,,,green,0.7481431104097539,0.75,2.299600800004555,0.998665399994934,1e-05,1e-05,0.03296,0.7496957000112161,0.7830832000181545,1.9994234000041615,2.032992499996908,2.299600800004555,2.299600800004555,2.299600800004555,0.0,2.4999536000250373,3.5496845000016037,1.2500836999970488,1.2500836999970488,0.90723,0.04247677288753861,-0.14158924295846204,,,,None,,0.233,0.23333333333333334,1.014473110409754,1.0166666666666666,trial_list_0.8_green.csv,1.0164041000243742,1.0496906000189483,sarah_high1,001,2023-04-29_16h58.53.797,expectation_shapes_perceived_time,2022.2.4,120.09242313356899,
,-100,0.8,met,,green,red,,790.2152269954624,,,,,0,85,85,298,trial,,,,,,green,0.7902152269954624,0.7916666666666666,2.2998471000173595,0.9971697999862954,1e-05,1e-05,0.03328,0.7912174000230152,0.8245422000181861,2.000059500016505,,2.2998471000173595,2.2998471000173595,2.474847100005718,0.17499999998835847,2.5002100999990944,2.958522000000812,0.6586748999834526,0.48367489999509417,0.2313,0.09820859423082867,0.11048466850968224,,,,None,,-0.1,-0.1,0.6568852269954624,0.6583333333333333,trial_list_0.8_green.csv,0.6582490000000689,0.6912315000081435,sarah_high1,001,2023-04-29_16h58.53.797,expectation_shapes_perceived_time,2022.2.4,120.09242313356899,
,-233,0.8,met,,green,red,,414.1783000249994,,,,,0,86,86,445,trial,,,,,,green,0.4141783000249994,0.4166666666666667,2.300134999997681,0.9976681999978609,1e-05,1e-05,0.03338,0.4170878000149969,0.4501095000014175,2.000301899999613,2.033502700011013,2.300134999997681,2.300134999997681,2.300134999997681,0.0,2.5001853000139818,3.050217200012412,0.7500822000147309,0.7500822000147309,0.84306,0.06996717316914455,-0.13021668339813014,,,,None,,-0.233,-0.23333333333333334,0.14784830002499938,0.15,trial_list_0.8_green.csv,0.15034220000961795,0.18333349999738857,sarah_high1,001,2023-04-29_16h58.53.797,expectation_shapes_perceived_time,2022.2.4,120.09242313356899,
,-100,0.8,met,,green,red,,1416.1454127229104,,,,,0,87,87,107,trial,,,,,,green,1.4161454127229103,1.4166666666666667,2.299862200015923,0.9972338999796193,2e-05,2e-05,0.03319,1.4166888000036124,1.4499237000127323,1.9996493000071496,2.033198999997694,2.299862200015923,2.299862200015923,2.299862200015923,0.0,2.500081600010162,2.8829435000079684,0.5830812999920454,0.5830812999920454,0.38217,0.13781076655840765,0.05347880493311341,,,,None,,-0.1,-0.1,1.2828154127229103,1.2833333333333332,trial_list_0.8_green.csv,1.2834003000170924,1.3166063000098802,sarah_high1,001,2023-04-29_16h58.53.797,expectation_shapes_perceived_time,2022.2.4,120.09242313356899,
,167,0.8,met,,green,red,,623.8091357350457,,,,,0,88,88,324,trial,,,,,,green,0.6238091357350457,0.625,2.2995555000088643,0.9909744000178762,1e-05,1e-05,0.03287,0.6247735999932047,0.6582851999846753,1.999723199987784,2.0329187999886926,2.2995555000088643,2.2995555000088643,2.2995555000088643,0.0,2.499349899997469,2.899575299990829,0.6000197999819648,0.6000197999819648,0.50732,0.14778446471170242,-0.003397344016360975,,,,None,,0.167,0.16666666666666666,0.8241391357350458,0.825,trial_list_0.8_green.csv,0.824561299989,0.8578999000019394,sarah_high1,001,2023-04-29_16h58.53.797,expectation_shapes_perceived_time,2022.2.4,120.09242313356899,
,100,0.1999999999999999,unmet,,red,green,,1089.0548040259696,,,,,0,89,89,398,trial,,,,,,red,1.0890548040259695,1.0916666666666666,2.300003599986667,0.997803499980364,3e-05,3e-05,0.03308,1.0918347999977414,1.1250612000003457,1.9999425999994855,,2.300003599986667,2.300003599986667,2.300003599986667,0.0,2.5000167999824043,2.88365539998631,0.5836517999996431,0.5836517999996431,1.10403,-0.04745715322333254,-0.13999860200883102,,,,None,,0.1,0.1,1.2223848040259695,1.225,trial_list_0.8_green.csv,1.2251582999888342,1.2586448999936692,sarah_high1,001,2023-04-29_16h58.53.797,expectation_shapes_perceived_time,2022.2.4,120.09242313356899,
,-300,0.8,met,,green,red,,458.9808236344039,,,,,0,90,90,151,trial,,,,,,green,0.4589808236344039,0.4583333333333333,2.2997312000079546,0.9973830999806523,2e-05,2e-05,0.03327,0.4584720999991987,0.49194630002602935,1.9999780000071041,2.033269100007601,2.2997312000079546,2.2997312000079546,2.2997312000079546,0.0,2.500117300020065,2.7663556000043172,0.4666243999963626,0.4666243999963626,0.47556,0.14738809319469942,0.011337545630361493,,,,None,,-0.3,-0.3,0.1256508236344039,0.125,trial_list_0.8_green.csv,0.1249658000015188,0.15842170000541955,sarah_high1,001,2023-04-29_16h58.53.797,expectation_shapes_perceived_time,2022.2.4,120.09242313356899,
,100,0.1999999999999999,unmet,,red,green,,1521.793259198837,,,,,0,91,91,402,trial,,,,,,red,1.521793259198837,1.525,2.299571899988223,0.9981045000022277,1e-05,1e-05,,1.524857599986717,1.5580746999767143,1.9996631999965757,,2.299571899988223,2.299571899988223,2.3744786999886855,0.07490680000046268,2.4994224999973085,3.0085627999796998,0.7089908999914769,0.6340840999910142,1.31787,-0.12427746984213887,-0.08004311616951318,,,,None,,0.1,0.1,1.655123259198837,1.6583333333333332,trial_list_0.8_green.csv,1.6581187999981921,1.691509899974335,sarah_high1,001,2023-04-29_16h58.53.797,expectation_shapes_perceived_time,2022.2.4,120.09242313356899,
,100,0.8,met,,green,red,,1039.5063644018787,,,,,0,92,92,140,trial,,,,,,green,1.0395063644018787,1.0416666666666667,2.3000717999821063,0.9976177999924403,1e-05,1e-05,,1.0418560999969486,1.0751092999998946,2.000071199989179,,2.3000717999821063,2.3000717999821063,2.3000717999821063,0.0,2.5001397999876644,2.9833295999851543,0.683257800003048,0.683257800003048,0.48233,0.14759591349255144,0.008199772971808413,,,,None,,0.1,0.1,1.1728363644018787,1.175,trial_list_0.8_green.csv,1.1749452999792993,1.2084113999735564,sarah_high1,001,2023-04-29_16h58.53.797,expectation_shapes_perceived_time,2022.2.4,120.09242313356899,
,-300,0.8,met,,green,red,,1666.404491632771,,,,,0,93,93,306,trial,,,,,,green,1.666404491632771,1.6666666666666667,2.299950100015849,0.9977885000116657,4e-05,4e-05,0.03337,1.6668783999921288,1.7001957999891602,2.0001923000090756,2.033399100007955,2.299950100015849,2.299950100015849,2.299950100015849,0.0,2.500178299989784,3.0417975000164006,0.7418474000005517,0.7418474000005517,0.67694,0.12556738682938945,-0.07800398272734797,,,,None,,-0.3,-0.3,1.333074491632771,1.3333333333333333,trial_list_0.8_green.csv,1.3333463000017218,1.366774499998428,sarah_high1,001,2023-04-29_16h58.53.797,expectation_shapes_perceived_time,2022.2.4,120.09242313356899,
,-167,0.8,met,,green,red,,925.8865852331518,,,,,0,94,94,43,trial,,,,,,green,0.9258865852331518,0.9249999999999999,2.300264999998035,0.9977140999981202,2e-05,2e-05,0.03346,0.9251109000178985,0.9583391000051051,2.0003734000201803,2.0332915000035428,2.300264999998035,2.300264999998035,2.300264999998035,0.0,2.500274799996987,2.917064900015248,0.6167999000172131,0.6167999000172131,1.26824,-0.11034297490534042,-0.09836776832646627,,,,None,,-0.167,-0.16666666666666666,0.7255565852331517,0.725,trial_list_0.8_green.csv,0.7250290999945719,0.7582449000037741,sarah_high1,001,2023-04-29_16h58.53.797,expectation_shapes_perceived_time,2022.2.4,120.09242313356899,
,-33,0.8,met,,green,red,,1798.1273988620312,,,,,0,95,95,291,trial,,,,,,green,1.7981273988620312,1.8,2.2996138999878895,0.998189599980833,1e-05,1e-05,0.03295,1.7996144999924581,1.8329669999948237,1.999865799996769,2.033230899978662,2.2996138999878895,2.2996138999878895,2.4500494999811053,0.15043559999321587,2.4997649999859277,3.1914022999990266,0.8917884000111371,0.7413528000179213,1.64605,-0.13253518544306248,0.06546918798994653,,,,None,,-0.033,-0.03333333333333333,1.7317973988620312,1.7333333333333334,trial_list_0.8_green.csv,1.7331477999978233,1.766390099975979,sarah_high1,001,2023-04-29_16h58.53.797,expectation_shapes_perceived_time,2022.2.4,120.09242313356899,
,33,0.8,met,,green,red,,1532.8942421869897,,,,,0,96,96,58,trial,,,,,,green,1.5328942421869898,1.5333333333333332,2.2993061000015587,0.998335300013423,1e-05,1e-05,0.03327,1.5330304999952205,1.5663929999864195,1.9998466999968514,2.032952099980321,2.2993061000015587,2.2993061000015587,2.2993061000015587,0.0,2.4996721999777947,3.174522299988894,0.8752161999873351,0.8752161999873351,1.34247,-0.13008796598872852,-0.07020620386693285,,,,None,,0.033,0.03333333333333333,1.5992242421869896,1.6,trial_list_0.8_green.csv,1.5997452999872621,1.6330516999878455,sarah_high1,001,2023-04-29_16h58.53.797,expectation_shapes_perceived_time,2022.2.4,120.09242313356899,
,-33,0.8,met,,green,red,,514.7137577150683,,,,,0,97,97,35,trial,,,,,,green,0.5147137577150682,0.5166666666666666,2.300310399994487,0.9982674000202678,2e-05,2e-05,0.03312,0.5166031999979168,0.5499077999847941,1.9997179999772925,,2.300310399994487,2.300310399994487,2.458477699983632,0.15816729998914525,2.4999052999773994,2.9661879999912344,0.6658775999967474,0.5077103000076022,1.07798,-0.035852467268031776,-0.1434098690721271,,,,None,,-0.033,-0.03333333333333333,0.4483837577150683,0.45,trial_list_0.8_green.csv,0.4497836999944411,0.48319609998725355,sarah_high1,001,2023-04-29_16h58.53.797,expectation_shapes_perceived_time,2022.2.4,120.09242313356899,
,233,0.8,met,,green,red,,417.4381512406328,,,,,0,98,98,18,trial,,,,,,green,0.4174381512406328,0.4166666666666667,2.299596600001678,0.9988593999878503,1e-05,1e-05,0.03317,0.41645380001864396,0.45005959999980405,1.9997517000010703,2.032844200002728,2.299596600001678,2.299596600001678,2.299596600001678,0.0,2.499783600011142,3.141433800017694,0.8418372000160161,0.8418372000160161,0.54912,0.14606684422093047,-0.02272150910103363,,,,None,,0.233,0.23333333333333334,0.6837681512406328,0.6833333333333333,trial_list_0.8_green.csv,0.6832617000036407,0.7165797000052407,sarah_high1,001,2023-04-29_16h58.53.797,expectation_shapes_perceived_time,2022.2.4,120.09242313356899,
,300,0.8,met,,green,red,,1281.8724951107456,,,,,0,99,99,375,trial,,,,,,green,1.2818724951107456,1.2833333333333332,2.300086300005205,0.9979891999973916,1e-05,1e-05,0.03326,1.2834319999965373,1.3167635999852791,2.000278099993011,2.033448200003477,2.300086300005205,2.300086300005205,2.300086300005205,0.0,2.500381899997592,2.858506899996428,0.5584205999912228,0.5584205999912228,0.37433,0.1364524702939337,0.05685519595580572,,,,None,,0.3,0.3,1.6152024951107455,1.6166666666666667,trial_list_0.8_green.csv,1.616756000003079,1.6501104999915697,sarah_high1,001,2023-04-29_16h58.53.797,expectation_shapes_perceived_time,2022.2.4,120.09242313356899,
,100,0.1999999999999999,unmet,,red,green,,395.93733202077954,0,0,0,0,0,100,100,461,fam,0.5319749000191223,0.5319749000191223,270.0,2.531747600005474,2.531747600005474,,,,,,,,,,,,,,,,,,,,,,,,,,,,,,,,,,,,sarah_high1,001,2023-04-29_16h58.53.797,expectation_shapes_perceived_time,2022.2.4,120.09242313356899,
,100,0.1999999999999999,unmet,,red,green,,395.93733202077954,1,0,1,0,0,100,100,461,fam,0.49837200000183657,0.49837200000183657,270.0,2.498448099999223,2.498448099999223,,,,,,,,,,,,,,,,,,,,,,,,,,,,,,,,,,,,sarah_high1,001,2023-04-29_16h58.53.797,expectation_shapes_perceived_time,2022.2.4,120.09242313356899,
,100,0.1999999999999999,unmet,,red,green,,395.93733202077954,2,0,2,0,0,100,100,461,fam,0.49876629997743294,0.49876629997743294,270.0,2.498771399987163,2.498771399987163,,,,,,,,,,,,,,,,,,,,,,,,,,,,,,,,,,,,sarah_high1,001,2023-04-29_16h58.53.797,expectation_shapes_perceived_time,2022.2.4,120.09242313356899,
,100,0.1999999999999999,unmet,,red,green,,395.93733202077954,3,0,3,0,0,100,100,461,fam,0.4984641000046395,0.4984641000046395,270.0,2.4987902000139,2.4987902000139,,,,,,,,,,,,,,,,,,,,,,,,,,,,,,,,,,,,sarah_high1,001,2023-04-29_16h58.53.797,expectation_shapes_perceived_time,2022.2.4,120.09242313356899,
,100,0.1999999999999999,unmet,,red,green,,395.93733202077954,,,,,0,100,100,461,trial,,,,,,red,0.3959373320207795,0.4,2.300064500013832,0.9985422000172548,3e-05,3e-05,,0.40021510000224225,0.4335869000060484,2.0004308000206947,,2.300064500013832,2.300064500013832,2.300064500013832,0.0,2.5001478000194766,3.099738899996737,0.799674399982905,0.799674399982905,0.22518,0.09606810304180388,0.11235083237092316,,,,None,,0.1,0.1,0.5292673320207796,0.5333333333333333,trial_list_0.8_green.csv,0.5335727000201587,0.566650299995672,sarah_high1,001,2023-04-29_16h58.53.797,expectation_shapes_perceived_time,2022.2.4,120.09242313356899,
,100,0.8,met,,green,red,,1243.394920567876,,,,,0,101,101,270,trial,,,,,,green,1.243394920567876,1.2416666666666667,2.300217200012412,0.9983449999999721,2e-05,2e-05,,1.241785299993353,1.2752499000052921,2.000044100015657,2.0334266000136267,2.300217200012412,2.300217200012412,2.300217200012412,0.0,2.5002156000118703,3.2750972000067122,0.9748799999943003,0.9748799999943003,0.56878,0.1443857766773817,-0.03169443878283988,,,,None,,0.1,0.1,1.3767249205678758,1.375,trial_list_0.8_green.csv,1.3752474999928381,1.408380800014129,sarah_high1,001,2023-04-29_16h58.53.797,expectation_shapes_perceived_time,2022.2.4,120.09242313356899,
,300,0.8,met,,green,red,,182.13172621757465,,,,,0,102,102,63,trial,,,,,,green,0.18213172621757465,0.18333333333333332,2.2999520000012126,0.998113600013312,4e-05,4e-05,0.03323,0.18313049999414943,0.21642849998897873,1.9996295000019018,2.0333314999879804,2.2999520000012126,2.2999520000012126,2.2999520000012126,0.0,2.499978599982569,2.9830407999979798,0.6830887999967672,0.6830887999967672,0.41066,0.14203886666808707,0.04094814174215123,,,,None,,0.3,0.3,0.5154617262175747,0.5166666666666666,trial_list_0.8_green.csv,0.516551199980313,0.5499882999865804,sarah_high1,001,2023-04-29_16h58.53.797,expectation_shapes_perceived_time,2022.2.4,120.09242313356899,
,33,0.8,met,,green,red,,527.1997433785452,,,,,0,103,103,345,trial,,,,,,green,0.5271997433785452,0.525,2.3000598999788053,0.9982244000129867,2e-05,2e-05,0.03312,0.5248774999927264,0.5578856999927666,1.9999538999982178,2.033471999980975,2.3000598999788053,2.3000598999788053,2.3000598999788053,0.0,2.500248800002737,2.87524389999453,0.5751840000157245,0.5751840000157245,0.64115,0.13352565073258915,-0.06342468409797984,,,,None,,0.033,0.03333333333333333,0.5935297433785452,0.5916666666666667,trial_list_0.8_green.csv,0.5912565999897197,0.6247124999936204,sarah_high1,001,2023-04-29_16h58.53.797,expectation_shapes_perceived_time,2022.2.4,120.09242313356899,
,233,0.8,met,,green,red,,1161.554076054671,,,,,0,104,104,176,trial,,,,,,green,1.161554076054671,1.1583333333333332,2.2999397999956273,0.9974736000003759,1e-05,1e-05,,1.158467200002633,1.191577200021129,1.9996918000106234,2.0331956000009086,2.2999397999956273,2.2999397999956273,2.366827000019839,0.06688720002421178,2.500202499999432,3.017059700010577,0.71711990001495,0.6502326999907382,1.18992,-0.08305952224002247,-0.12228207440892198,,,,None,,0.233,0.23333333333333334,1.427884076054671,1.425,trial_list_0.8_green.csv,1.4247437000158243,1.4584251000196673,sarah_high1,001,2023-04-29_16h58.53.797,expectation_shapes_perceived_time,2022.2.4,120.09242313356899,
,300,0.8,met,,green,red,,744.4194053218853,,,,,0,105,105,242,trial,,,,,,green,0.7444194053218853,0.7416666666666667,2.2997417000005953,0.9979297000099905,1e-05,1e-05,0.03306,0.7413367999834009,0.7746170999889728,1.9997067999793217,2.033229199994821,2.2997417000005953,2.2997417000005953,2.2997417000005953,0.0,2.500023800006602,3.1246542999870144,0.8249125999864191,0.8249125999864191,0.93448,0.030212730630351774,-0.14470307828221113,,,,None,,0.3,0.3,1.0777494053218852,1.075,trial_list_0.8_green.csv,1.075089099991601,1.108228600001894,sarah_high1,001,2023-04-29_16h58.53.797,expectation_shapes_perceived_time,2022.2.4,120.09242313356899,
,167,0.1999999999999999,unmet,,red,green,,929.6242909027236,,,,,0,106,106,81,trial,,,,,,red,0.9296242909027236,0.9333333333333333,2.2996863999869674,0.9980772999988403,3e-05,3e-05,0.03295,0.9330779000010807,0.9662762999942061,1.9996239999891259,2.0330355999758467,2.2996863999869674,2.2996863999869674,2.308099499990931,0.008413100003963336,2.4998166000004858,3.3082580999762286,1.008571699989261,1.0001585999852978,0.38613,0.1384645730171808,0.05176245720268441,,,,None,,0.167,0.16666666666666666,1.1299542909027236,1.1333333333333333,trial_list_0.8_green.csv,1.1330646999995224,1.1666746999835595,sarah_high1,001,2023-04-29_16h58.53.797,expectation_shapes_perceived_time,2022.2.4,120.09242313356899,
,100,0.8,met,,green,red,,514.2951122164527,,,,,0,107,107,293,trial,,,,,,green,0.5142951122164527,0.5166666666666666,2.3002072000235785,0.9964422000048216,4e-05,4e-05,0.03317,0.5163055000011809,0.5498228000069503,1.999797700002091,,2.3002072000235785,2.3002072000235785,2.550012500025332,0.2498053000017535,2.5002639000013005,3.04140990000451,0.7412026999809314,0.49139739997917786,0.25,0.10452700597570448,0.10452700597570448,,,,None,,0.1,0.1,0.6476251122164528,0.65,trial_list_0.8_green.csv,0.6498858000268228,0.6833855000149924,sarah_high1,001,2023-04-29_16h58.53.797,expectation_shapes_perceived_time,2022.2.4,120.09242313356899,
,-233,0.8,met,,green,red,,1492.118559455468,,,,,0,108,108,6,trial,,,,,,green,1.492118559455468,1.4916666666666667,2.299587200017413,0.9982499000034295,1e-05,1e-05,0.03294,1.4914539000019431,1.5247736000164878,1.999586999998428,2.0333093000226654,2.299587200017413,2.299587200017413,2.424636800016742,0.12504959999932908,2.4996137999987695,3.241442400001688,0.9418551999842748,0.8168055999849457,0.43257,0.14451940441771977,0.031079441810262322,,,,None,,-0.233,-0.23333333333333334,1.225788559455468,1.225,trial_list_0.8_green.csv,1.22462630001246,1.258061300002737,sarah_high1,001,2023-04-29_16h58.53.797,expectation_shapes_perceived_time,2022.2.4,120.09242313356899,
,167,0.8,met,,green,red,,257.98029441345375,,,,,0,109,109,206,trial,,,,,,green,0.25798029441345377,0.2583333333333333,2.300137599988375,0.997275699977763,1e-05,1e-05,0.0333,0.2587218999979086,0.2917040000029374,2.0002100999990944,2.033308899990516,2.300137599988375,2.300137599988375,2.524788399983663,0.22465079999528825,2.5000851999793667,3.1248437000031117,0.8247061000147369,0.6000553000194486,0.60357,0.14006802401055976,-0.04725186352163461,,,,None,,0.167,0.16666666666666666,0.4583102944134537,0.4583333333333333,trial_list_0.8_green.csv,0.4587994999892544,0.49169899997650646,sarah_high1,001,2023-04-29_16h58.53.797,expectation_shapes_perceived_time,2022.2.4,120.09242313356899,
,167,0.8,met,,green,red,,1063.230756768136,,,,,0,110,110,106,trial,,,,,,green,1.063230756768136,1.0666666666666667,2.2994201999972574,0.9973772999946959,1e-05,1e-05,,1.0666492000163998,1.099945399997523,1.9995227000035811,,2.2994201999972574,2.2994201999972574,2.2994201999972574,0.0,2.4995372999983374,3.0413128999934997,0.7418926999962423,0.7418926999962423,0.31844,0.12442217315334843,0.07981799787195937,,,,None,,0.167,0.16666666666666666,1.263560756768136,1.2666666666666666,trial_list_0.8_green.csv,1.266302900010487,1.30000079999445,sarah_high1,001,2023-04-29_16h58.53.797,expectation_shapes_perceived_time,2022.2.4,120.09242313356899,
,-33,0.8,met,,green,red,,345.53191020587894,,,,,0,111,111,405,trial,,,,,,green,0.3455319102058789,0.3416666666666667,2.3000241999980062,0.9975005000014789,2e-05,2e-05,,0.3414851000125054,0.3750452999956906,2.000107300002128,,2.3000241999980062,2.3000241999980062,2.375073200004408,0.07504900000640191,2.4999525000166614,3.058078400004888,0.7580542000068817,0.6830052000004798,0.38414,0.1381392565479771,0.05262447868494365,,,,None,,-0.033,-0.03333333333333333,0.279201910205879,0.2833333333333333,trial_list_0.8_green.csv,0.28331440000329167,0.3167511000065133,sarah_high1,001,2023-04-29_16h58.53.797,expectation_shapes_perceived_time,2022.2.4,120.09242313356899,
,300,0.8,met,,green,red,,376.9413284537205,,,,,0,112,112,301,trial,,,,,,green,0.37694132845372047,0.375,2.30013190000318,0.998577699996531,2e-05,2e-05,,0.37486949999583885,0.40820399997755885,2.0000150999985635,,2.30013190000318,2.30013190000318,2.30013190000318,0.0,2.5001109000004362,2.892043300002115,0.5919113999989349,0.5919113999989349,0.92597,0.034068349683364314,-0.1438441431075382,,,,None,,0.3,0.3,0.7102713284537204,0.7083333333333334,trial_list_0.8_green.csv,0.7085561999992933,0.7416981999995187,sarah_high1,001,2023-04-29_16h58.53.797,expectation_shapes_perceived_time,2022.2.4,120.09242313356899,
,-100,0.8,met,,green,red,,1115.6410266110584,,,,,0,113,113,482,trial,,,,,,green,1.1156410266110584,1.1166666666666667,2.3002566999930423,0.9978214000002481,1e-05,1e-05,,1.1172316999873146,1.1505072999862023,2.00044559998787,2.0340124999929685,2.3002566999930423,2.3002566999930423,2.3002566999930423,0.0,2.5007419000030495,3.0840096999891102,0.783752999996068,0.783752999996068,0.37361,0.13632200994933102,0.05716729449488075,,,,None,,-0.1,-0.1,0.9823110266110583,0.9833333333333333,trial_list_0.8_green.csv,0.9839630000060424,1.0173043000104371,sarah_high1,001,2023-04-29_16h58.53.797,expectation_shapes_perceived_time,2022.2.4,120.09242313356899,
,-233,0.8,met,,green,red,,1616.9962903944772,,,,,0,114,114,436,trial,,,,,,green,1.6169962903944772,1.6166666666666667,2.2998880999803077,0.9975096000125632,2e-05,2e-05,0.03326,1.6166076999797951,1.6499678999825846,1.9999861999822315,2.033296199981123,2.2998880999803077,2.2998880999803077,2.3081492999917828,0.008261200011475012,2.4999033999920357,3.024980999995023,0.7250929000147153,0.7168317000032403,1.37527,-0.13661890543588687,-0.056454093155325145,,,,None,,-0.233,-0.23333333333333334,1.3506662903944773,1.35,trial_list_0.8_green.csv,1.3501566000049934,1.383341799984919,sarah_high1,001,2023-04-29_16h58.53.797,expectation_shapes_perceived_time,2022.2.4,120.09242313356899,
,-100,0.1999999999999999,unmet,,red,green,,1787.8504770894024,,,,,0,115,115,4,trial,,,,,,red,1.7878504770894024,1.7916666666666667,2.2998750999977347,0.9973927999963053,1e-05,1e-05,,1.79156400001375,1.8246372000139672,1.9994975000154227,,2.2998750999977347,2.2998750999977347,2.2998750999977347,0.0,2.4998085999977775,2.9084654000180308,0.6085903000202961,0.6085903000202961,0.46289,0.1468200164081433,0.017195137056809574,,,,None,,-0.1,-0.1,1.6545204770894024,1.6583333333333332,trial_list_0.8_green.csv,1.6583167999924626,1.6914583000179846,sarah_high1,001,2023-04-29_16h58.53.797,expectation_shapes_perceived_time,2022.2.4,120.09242313356899,
,167,0.8,met,,green,red,,907.2996676601304,,,,,0,116,116,344,trial,,,,,,green,0.9072996676601304,0.9083333333333333,2.3000684999860823,0.9979749000049196,1e-05,1e-05,,0.9081768000032753,0.9414791000017431,2.0001060999929905,2.0331887000065763,2.3000684999860823,2.3000684999860823,2.366676599980565,0.06660809999448247,2.5000901999883354,3.358057400007965,1.0579889000218827,0.9913808000274003,1.20716,-0.08955492298417253,-0.1176082723527085,,,,None,,0.167,0.16666666666666666,1.1076296676601303,1.1083333333333334,trial_list_0.8_green.csv,1.1085839000006672,1.141551899985643,sarah_high1,001,2023-04-29_16h58.53.797,expectation_shapes_perceived_time,2022.2.4,120.09242313356899,
,33,0.8,met,,green,red,,903.7170233316356,,,,,0,117,117,204,trial,,,,,,green,0.9037170233316356,0.9083333333333333,2.3002870999916922,0.9976924000075087,1e-05,1e-05,0.03349,0.9084858999995049,0.9420621999888681,2.0000787999888416,2.033296399982646,2.3002870999916922,2.3002870999916922,2.3002870999916922,0.0,2.4999229999957606,3.1001188999798615,0.7998317999881692,0.7998317999881692,1.10835,-0.04935045619816559,-0.13934246455952637,,,,None,,0.033,0.03333333333333333,0.9700470233316356,0.9666666666666667,trial_list_0.8_green.csv,0.9668587999767624,1.0003002999874298,sarah_high1,001,2023-04-29_16h58.53.797,expectation_shapes_perceived_time,2022.2.4,120.09242313356899,
,-33,0.8,met,,green,red,,968.0143209648666,,,,,0,118,118,208,trial,,,,,,green,0.9680143209648665,0.9666666666666667,2.3001334000146016,0.9976084000081755,1e-05,1e-05,0.03363,0.9670435000152793,1.0001680999994278,2.0003501000173856,2.0336712000134867,2.3001334000146016,2.3001334000146016,2.517020900006173,0.21688749999157153,2.4999119999993127,3.1003210000053514,0.8001875999907497,0.5833000999991782,0.93837,0.028443380859461815,-0.14506124238325524,,,,None,,-0.033,-0.03333333333333333,0.9016843209648665,0.9,trial_list_0.8_green.csv,0.900342200009618,0.9336840000178199,sarah_high1,001,2023-04-29_16h58.53.797,expectation_shapes_perceived_time,2022.2.4,120.09242313356899,
,-33,0.8,met,,green,red,,1044.1476823087464,,,,,0,119,119,280,trial,,,,,,green,1.0441476823087463,1.0416666666666667,2.299906000000192,0.9979145999823231,1e-05,1e-05,0.03333,1.041245699976571,1.0747216999880038,1.9997898000001442,2.033107099996414,2.299906000000192,2.299906000000192,2.5667621000029612,0.2668561000027694,2.4999685999937356,2.999956599989673,0.7000505999894813,0.4331944999867119,0.23253,0.09863498859476927,0.11010417331509129,,,,None,,-0.033,-0.03333333333333333,0.9778176823087464,0.975,trial_list_0.8_green.csv,0.9747693999961484,1.0079086999758147,sarah_high1,001,2023-04-29_16h58.53.797,expectation_shapes_perceived_time,2022.2.4,120.09242313356899,
,-300,0.8,met,,green,red,,506.96741851815375,,,,,0,120,120,157,trial,,,,,,green,0.5069674185181537,0.5083333333333333,2.300249599997187,0.9974748999811709,1e-05,1e-05,0.03337,0.5082410000031814,0.5416178999876138,2.0003460999869276,2.033463899977505,2.300249599997187,2.300249599997187,2.300249599997187,0.0,2.499912899977062,2.9670780999877024,0.6668284999905154,0.6668284999905154,0.39981,0.14056115207148284,0.045764096023273484,,,,None,,-0.3,-0.3,0.17363741851815376,0.175,trial_list_0.8_green.csv,0.17502039999817498,0.20831889999681152,sarah_high1,001,2023-04-29_16h58.53.797,expectation_shapes_perceived_time,2022.2.4,120.09242313356899,
,-33,0.8,met,,green,red,,338.104641155359,,,,,0,121,121,485,trial,,,,,,green,0.338104641155359,0.3416666666666667,2.2998306000081357,0.9970007000083569,1e-05,1e-05,0.03327,0.34184380000806414,0.37494300000253133,2.0002321999927517,2.033563500008313,2.2998306000081357,2.2998306000081357,2.316270399984205,0.01643979997606948,2.499682399997255,3.0164059000089765,0.7165753000008408,0.7001355000247713,0.14804,0.06629669201505557,0.1321231947250398,,,,None,,-0.033,-0.03333333333333333,0.271774641155359,0.275,trial_list_0.8_green.csv,0.27496330000576563,0.3081594000104815,sarah_high1,001,2023-04-29_16h58.53.797,expectation_shapes_perceived_time,2022.2.4,120.09242313356899,
,167,0.8,met,,green,red,,983.104962303236,,,,,0,122,122,389,trial,,,,,,green,0.983104962303236,0.9833333333333333,2.3003804000036325,0.9975845000008121,2e-05,2e-05,,0.9833591000060551,1.016561600001296,1.9999790000147186,,2.3003804000036325,2.3003804000036325,2.3003804000036325,0.0,2.500121899996884,3.0002524000010453,0.6998719999974128,0.6998719999974128,0.55493,0.14562764251930055,-0.025384634934556977,,,,None,,0.167,0.16666666666666666,1.1834349623032359,1.1833333333333333,trial_list_0.8_green.csv,1.1833621000114363,1.2170895000163,sarah_high1,001,2023-04-29_16h58.53.797,expectation_shapes_perceived_time,2022.2.4,120.09242313356899,
,-167,0.1999999999999999,unmet,,red,green,,1640.4413540272983,,,,,0,123,123,453,trial,,,,,,red,1.6404413540272984,1.6416666666666666,2.3004302000044845,0.9980528999876697,3e-05,3e-05,,1.6419179000076838,1.6751002999953926,2.000080900004832,,2.3004302000044845,2.3004302000044845,2.4086655999999493,0.10823539999546483,2.5002166999911424,2.99183010001434,0.6913999000098556,0.5831645000143908,0.378,0.13709765323785364,0.0552813117894571,,,,None,,-0.167,-0.16666666666666666,1.4401113540272983,1.4416666666666667,trial_list_0.8_green.csv,1.4415058000013232,1.4751931999926455,sarah_high1,001,2023-04-29_16h58.53.797,expectation_shapes_perceived_time,2022.2.4,120.09242313356899,
