id,delay,expectation,congruency,trial_num,stim_color,distractor_color,block,targetTimeMs,famLoop.thisRepN,famLoop.thisTrialN,famLoop.thisN,famLoop.thisIndex,trialss.thisRepN,trialss.thisTrialN,trialss.thisN,trialss.thisIndex,isTrial,handMove.started,audioCue2Start.started,handOri,handMove.ended,audioCue2End.started,target_color,expected_target_onset,expected_target_onset_in_frames,fixationPoint.started,fixationPoint.stopped,audCueStart.started,placeholder.started,audCueStart.stopped,target.started,target.stopped,audCueEnd.started,audCueEnd.stopped,responsePointer.started,cueForRep.started,space2pass.started,responseStarted,rtUntillMotionTreshold,responsePointer.stopped,rTAfterMotionTreshold,rtDurationBtwRespMotion,perceivedTime,resp_x_coord,resp_y_coord,feedbackPointer.stopped,actualTime_x_coord,actualTime_y_coord,space2pass.keys,space2pass.rt,expected_delay,expected_delays_frame,expected_distractor,expected_distractor_frame,expBlockFiles,distractor.started,distractor.stopped,participant,session,date,expName,psychopyVersion,frameRate,
,,,,,,,,,0,0,0,0,,,,,fam,1.498411400000009,1.498411400000009,270.0,3.4984216000000288,3.4984216000000288,,,,,,,,,,,,,,,,,,,,,,,,,,,,,,,,,,,,p3_high_01,001,2023-05-02_10h17.35.805,expectation_shapes_perceived_time,2022.2.4,120.03591474574317,
,,,,,,,,,1,0,1,0,,,,,fam,0.49710970000001,0.49710970000001,270.0,2.497044800000026,2.497044800000026,,,,,,,,,,,,,,,,,,,,,,,,,,,,,,,,,,,,p3_high_01,001,2023-05-02_10h17.35.805,expectation_shapes_perceived_time,2022.2.4,120.03591474574317,
,,,,,,,,,2,0,2,0,,,,,fam,0.49750349999999344,0.49750349999999344,270.0,2.4971958999999515,2.4971958999999515,,,,,,,,,,,,,,,,,,,,,,,,,,,,,,,,,,,,p3_high_01,001,2023-05-02_10h17.35.805,expectation_shapes_perceived_time,2022.2.4,120.03591474574317,
,,,,,,,,,3,0,3,0,,,,,fam,0.4976662999999917,0.4976662999999917,270.0,2.497595599999954,2.497595599999954,,,,,,,,,,,,,,,,,,,,,,,,,,,,,,,,,,,,p3_high_01,001,2023-05-02_10h17.35.805,expectation_shapes_perceived_time,2022.2.4,120.03591474574317,
,,,,,,,,,4,0,4,0,,,,,fam,0.49708799999996245,0.49708799999996245,270.0,2.4974247000000105,2.4974247000000105,,,,,,,,,,,,,,,,,,,,,,,,,,,,,,,,,,,,p3_high_01,001,2023-05-02_10h17.35.805,expectation_shapes_perceived_time,2022.2.4,120.03591474574317,
,,,,,,,,,5,0,5,0,,,,,fam,0.49862289999998666,0.49862289999998666,270.0,2.4987835999999106,2.4987835999999106,,,,,,,,,,,,,,,,,,,,,,,,,,,,,,,,,,,,p3_high_01,001,2023-05-02_10h17.35.805,expectation_shapes_perceived_time,2022.2.4,120.03591474574317,
,,,,,,,,,6,0,6,0,,,,,fam,0.4973574999999073,0.4973574999999073,270.0,2.497288699999899,2.497288699999899,,,,,,,,,,,,,,,,,,,,,,,,,,,,,,,,,,,,p3_high_01,001,2023-05-02_10h17.35.805,expectation_shapes_perceived_time,2022.2.4,120.03591474574317,
,,,,,,,,,7,0,7,0,,,,,fam,0.4975746000000072,0.4975746000000072,270.0,2.4973995000000286,2.4973995000000286,,,,,,,,,,,,,,,,,,,,,,,,,,,,,,,,,,,,p3_high_01,001,2023-05-02_10h17.35.805,expectation_shapes_perceived_time,2022.2.4,120.03591474574317,
,,,,,,,,,8,0,8,0,,,,,fam,0.4970676000000367,0.4970676000000367,270.0,2.4970676999998886,2.4970676999998886,,,,,,,,,,,,,,,,,,,,,,,,,,,,,,,,,,,,p3_high_01,001,2023-05-02_10h17.35.805,expectation_shapes_perceived_time,2022.2.4,120.03591474574317,
,,,,,,,,,9,0,9,0,,,,,fam,0.49737279999999373,0.49737279999999373,270.0,2.4973712999999407,2.4973712999999407,,,,,,,,,,,,,,,,,,,,,,,,,,,,,,,,,,,,p3_high_01,001,2023-05-02_10h17.35.805,expectation_shapes_perceived_time,2022.2.4,120.03591474574317,
,,,,,,,,,10,0,10,0,,,,,fam,0.4990439000000606,0.4990439000000606,270.0,2.499373000000105,2.499373000000105,,,,,,,,,,,,,,,,,,,,,,,,,,,,,,,,,,,,p3_high_01,001,2023-05-02_10h17.35.805,expectation_shapes_perceived_time,2022.2.4,120.03591474574317,
,,,,,,,,,11,0,11,0,,,,,fam,0.4974555999999666,0.4974555999999666,270.0,2.497814900000094,2.497814900000094,,,,,,,,,,,,,,,,,,,,,,,,,,,,,,,,,,,,p3_high_01,001,2023-05-02_10h17.35.805,expectation_shapes_perceived_time,2022.2.4,120.03591474574317,
,,,,,,,,,12,0,12,0,,,,,fam,0.49919660000000476,0.49919660000000476,270.0,2.499033400000144,2.499033400000144,,,,,,,,,,,,,,,,,,,,,,,,,,,,,,,,,,,,p3_high_01,001,2023-05-02_10h17.35.805,expectation_shapes_perceived_time,2022.2.4,120.03591474574317,
,,,,,,,,,13,0,13,0,,,,,fam,0.49773919999984173,0.49773919999984173,270.0,2.497556899999836,2.497556899999836,,,,,,,,,,,,,,,,,,,,,,,,,,,,,,,,,,,,p3_high_01,001,2023-05-02_10h17.35.805,expectation_shapes_perceived_time,2022.2.4,120.03591474574317,
,,,,,,,,,14,0,14,0,,,,,fam,0.49744600000008177,0.49744600000008177,270.0,2.497627400000056,2.497627400000056,,,,,,,,,,,,,,,,,,,,,,,,,,,,,,,,,,,,p3_high_01,001,2023-05-02_10h17.35.805,expectation_shapes_perceived_time,2022.2.4,120.03591474574317,
,,,,,,,,,15,0,15,0,,,,,fam,0.49708349999991697,0.49708349999991697,270.0,2.4972086999998737,2.4972086999998737,,,,,,,,,,,,,,,,,,,,,,,,,,,,,,,,,,,,p3_high_01,001,2023-05-02_10h17.35.805,expectation_shapes_perceived_time,2022.2.4,120.03591474574317,
,,,,,,,,,16,0,16,0,,,,,fam,0.49717420000001766,0.49717420000001766,270.0,2.497525900000028,2.497525900000028,,,,,,,,,,,,,,,,,,,,,,,,,,,,,,,,,,,,p3_high_01,001,2023-05-02_10h17.35.805,expectation_shapes_perceived_time,2022.2.4,120.03591474574317,
,,,,,,,,,17,0,17,0,,,,,fam,0.4978637000001527,0.4978637000001527,270.0,2.497781000000032,2.497781000000032,,,,,,,,,,,,,,,,,,,,,,,,,,,,,,,,,,,,p3_high_01,001,2023-05-02_10h17.35.805,expectation_shapes_perceived_time,2022.2.4,120.03591474574317,
,,,,,,,,,18,0,18,0,,,,,fam,0.49849929999982123,0.49849929999982123,270.0,2.498693499999945,2.498693499999945,,,,,,,,,,,,,,,,,,,,,,,,,,,,,,,,,,,,p3_high_01,001,2023-05-02_10h17.35.805,expectation_shapes_perceived_time,2022.2.4,120.03591474574317,
,,,,,,,,,19,0,19,0,,,,,fam,0.49761929999999666,0.49761929999999666,270.0,2.497687699999915,2.497687699999915,,,,,,,,,,,,,,,,,,,,,,,,,,,,,,,,,,,,p3_high_01,001,2023-05-02_10h17.35.805,expectation_shapes_perceived_time,2022.2.4,120.03591474574317,
,,,,,,,,,,,,,0,0,0,0,test,,,,,,red,0.4365451833089079,0.43333333333333335,2.2999662999998236,0.9981721999999991,7.619999996677507e-05,8e-05,0.03357329999994363,0.43346759999985807,0.46672659999990174,1.9999756999998226,2.033346699999811,2.2999662999998236,2.2999662999998236,2.5994802999998683,29.191623599999957,26.891657300000134,47.1416878,44.841721500000176,17.950064200000043,0.25922,0.10751162028542423,0.10145462759328765,47.1416878,0.14489596348772227,0.02927370358281604,space,44.53662170000007,,,,,,,,p3_high_01,001,2023-05-02_10h17.35.805,expectation_shapes_perceived_time,2022.2.4,120.03591474574317,
,,,,,,,,,,,,,1,0,1,0,test,,,,,,red,0.5496834509621304,0.55,2.2999317999999676,0.9966239000000314,3.970000011577213e-05,4e-05,0.03325140000015381,0.5500374000000647,0.5832875999999487,1.9999593000000004,2.033361799999966,2.2999317999999676,2.2999317999999676,2.600079800000003,3.399968299999955,1.1000364999999874,11.025063199999977,8.72513140000001,7.625094900000022,0.35684,0.13312270335995696,0.06426613265653094,11.025063199999977,0.14602648135304053,-0.022979484331464756,space,8.417991900000061,,,,,,,,p3_high_01,001,2023-05-02_10h17.35.805,expectation_shapes_perceived_time,2022.2.4,120.03591474574317,
,,,,,,,,,,,,,2,0,2,0,test,,,,,,green,0.8427208941188905,0.8416666666666667,2.2997903999998925,0.9971145999998043,3.919999994650425e-05,4e-05,,0.841250299999956,0.8748258999999052,1.9998504999998659,,2.2997903999998925,2.2997903999998925,2.5992807000000084,3.1913695999999163,0.8915792000000238,10.216704199999867,7.916913799999975,7.025334599999951,0.52366,0.14741532905677315,-0.010977737270185235,10.216704199999867,0.07010464117914007,-0.13014272642615854,space,7.61714730000017,,,,,,,,p3_high_01,001,2023-05-02_10h17.35.805,expectation_shapes_perceived_time,2022.2.4,120.03591474574317,
,,,,,,,,,,,,,3,0,3,0,test,,,,,,green,1.7968061255511316,1.8,2.299807699999974,0.9967533000001367,3.1899999839879456e-05,3e-05,0.033034599999837155,1.7998696999998174,1.8331212999999025,1.999858199999835,2.033140599999797,2.299807699999974,2.299807699999974,2.599839799999927,3.2664080999998077,0.9666003999998338,8.908152199999904,6.60834449999993,5.641744100000096,1.04884,-0.022590791470648318,-0.1460871181768591,8.908152199999904,-0.08808405062463867,0.11871389970027106,space,6.304483399999981,,,,,,,,p3_high_01,001,2023-05-02_10h17.35.805,expectation_shapes_perceived_time,2022.2.4,120.03591474574317,
,,,,,,,,,,,,,4,0,4,0,test,,,,,,green,1.1852367913359276,1.1833333333333333,2.3001212000001487,0.9967592999998942,3.209999999853608e-05,3e-05,0.033476600000085455,1.1834740000001602,1.216753300000164,2.000476400000025,2.033659600000192,2.3001212000001487,2.3001212000001487,2.6000927000000047,2.8333583000001,0.5332370999999512,7.0082462000000305,4.708124999999882,4.174887899999931,1.10353,-0.04723424452858836,-0.14007396653305512,7.0082462000000305,-0.08125036783264274,-0.12349156928126785,space,4.403495600000042,,,,,,,,p3_high_01,001,2023-05-02_10h17.35.805,expectation_shapes_perceived_time,2022.2.4,120.03591474574317,
,,,,,,,,,,,,,5,0,5,0,test,,,,,,red,0.19603686425053213,0.2,2.2998913999999786,0.9965621000001192,1.629999997021514e-05,2e-05,0.03331179999986489,0.1999215999999251,0.23319199999991724,1.99986059999992,2.033232999999882,2.2998913999999786,2.2998913999999786,2.5999184999998306,2.2998913999999786,0.0,5.866634499999918,3.5667430999999397,3.5667430999999397,0.29727,0.11884229740667625,0.08791074054740435,5.866634499999918,0.08539279899810448,0.12066424423067197,space,3.2599875000000793,,,,,,,,p3_high_01,001,2023-05-02_10h17.35.805,expectation_shapes_perceived_time,2022.2.4,120.03591474574317,
,,,,,,,,,,,,,6,0,6,0,test,,,,,,red,0.580288588661495,0.5833333333333334,2.300000199999886,0.998296499999924,1.3399999943430885e-05,1e-05,,0.5833436000000347,0.6165882999998757,2.0000206999998227,,2.300000199999886,2.300000199999886,2.600069500000018,2.300000199999886,0.0,17.99232209999991,15.692321900000024,15.692321900000024,0.1545,0.06896667919977285,0.13074932931623603,17.99232209999991,0.14314597361455023,-0.03689200718898904,space,15.386437900000146,,,,,,,,p3_high_01,001,2023-05-02_10h17.35.805,expectation_shapes_perceived_time,2022.2.4,120.03591474574317,
,,,,,,,,,,,,,7,0,7,0,test,,,,,,red,0.9889728876151065,0.9916666666666667,2.299915300000066,0.9967345999998543,4.020000005766633e-05,4e-05,,0.9919239999999263,1.0248830999998972,1.999908699999878,,2.299915300000066,2.299915300000066,2.599469099999851,2.99164739999992,0.6917320999998537,21.41668579999987,19.116770499999802,18.42503839999995,0.17083,0.07558106585935555,0.127040514955087,21.41668579999987,0.005119980552374439,-0.14773481565167104,space,18.80943000000002,,,,,,,,p3_high_01,001,2023-05-02_10h17.35.805,expectation_shapes_perceived_time,2022.2.4,120.03591474574317,
,,,,,,,,,,,,,8,0,8,0,test,,,,,,red,1.1199960615356164,1.1166666666666667,2.3002862000000732,0.9968784000000142,3.209999999853608e-05,3e-05,0.03331550000007155,1.11654580000004,1.150049000000081,2.0002448000000186,2.0334236000001056,2.3002862000000732,2.3002862000000732,2.600291900000002,3.9666850000000977,1.6663988000000245,7.0084578000000874,4.708171600000014,3.0417727999999897,0.92829,0.03302024736390253,-0.14408835213339283,7.0084578000000874,-0.054415762714284624,-0.13744349648023582,space,4.407986400000027,,,,,,,,p3_high_01,001,2023-05-02_10h17.35.805,expectation_shapes_perceived_time,2022.2.4,120.03591474574317,
,,,,,,,,,,,,,9,0,9,0,test,,,,,,green,0.6187440277325068,0.6166666666666667,2.299692499999992,0.9966030000000501,5.6699999959164415e-05,6e-05,0.033251399999926434,0.617042599999877,0.6502762999998595,2.000081899999941,2.0336763999998766,2.299692499999992,2.299692499999992,2.5998314999999366,2.4330463999999665,0.1333538999999746,5.499971499999901,3.2002789999999095,3.066925099999935,0.41273,0.1423024403826753,0.04002256135762743,5.499971499999901,0.13765647058606853,-0.053874725635280674,space,2.8967083000000002,,,,,,,,p3_high_01,001,2023-05-02_10h17.35.805,expectation_shapes_perceived_time,2022.2.4,120.03591474574317,
,,,,,,,,,,,,,10,0,10,0,test,,,,,,red,0.17025696212184957,0.16666666666666666,2.3002515999999105,0.9969599999999446,3.089999995609105e-05,3e-05,0.033448599999928774,0.1665966999999,0.2001430000000255,2.0001866999998583,2.0334863999999016,2.3002515999999105,2.3002515999999105,2.599657999999863,3.7167531999998573,1.4165015999999468,8.599998200000073,6.299746600000162,4.883245000000215,0.70871,0.11716845977151755,-0.09012958443962889,8.599998200000073,0.07535097940454674,0.12717712003055226,space,5.99639070000012,,,,,,,,p3_high_01,001,2023-05-02_10h17.35.805,expectation_shapes_perceived_time,2022.2.4,120.03591474574317,
,,,,,,,,,,,,,11,0,11,0,test,,,,,,red,0.4404878296101694,0.44166666666666665,2.300092500000119,0.9968357000000196,3.23000001571927e-05,3e-05,0.033240700000078505,0.44185560000005353,0.47514780000005885,2.0002472000001035,2.033545500000173,2.300092500000119,2.300092500000119,2.6003250000001117,2.300092500000119,0.0,4.550164400000085,2.2500718999999663,2.2500718999999663,0.22157,0.09478706023311015,0.11343369503306625,4.550164400000085,0.14524742917333375,0.027476795210273713,space,1.9478605000001608,,,,,,,,p3_high_01,001,2023-05-02_10h17.35.805,expectation_shapes_perceived_time,2022.2.4,120.03591474574317,
,,,,,,,,,,,,,12,0,12,0,test,,,,,,red,0.2821786701316786,0.2833333333333333,2.299664699999994,0.9971327999999176,5.6800000038492726e-05,6e-05,0.03339449999998578,0.2831097000000682,0.31625340000005053,2.0000841999999466,2.033116600000085,2.299664699999994,2.299664699999994,2.599798899999996,2.5331478000000516,0.23348310000005768,5.02479900000003,2.725134300000036,2.4916511999999784,0.13806,0.06212567154882315,0.1341349726622318,5.02479900000003,0.11454222970363288,0.09344446249516411,space,2.42304090000016,,,,,,,,p3_high_01,001,2023-05-02_10h17.35.805,expectation_shapes_perceived_time,2022.2.4,120.03591474574317,
,,,,,,,,,,,,,13,0,13,0,test,,,,,,green,0.6622249692123932,0.6583333333333333,2.2998129000000063,0.9974212999998144,3.9600000036443816e-05,4e-05,0.03320839999992131,0.6579898999998477,0.6914523000000372,1.9996349999998984,,2.2998129000000063,2.2998129000000063,2.5995484000000033,2.2998129000000063,0.0,5.432950899999923,3.133137999999917,3.133137999999917,0.34105,0.12977360454963227,0.07078560248161761,5.432950899999923,0.1290377825989025,-0.07211824053905018,space,2.8303227000001243,,,,,,,,p3_high_01,001,2023-05-02_10h17.35.805,expectation_shapes_perceived_time,2022.2.4,120.03591474574317,
,,,,,,,,,,,,,14,0,14,0,test,,,,,,green,0.3386037881356966,0.3416666666666667,2.3000695999999152,0.9969421999999213,3.969999988839845e-05,4e-05,0.033616799999890645,0.3413491999999678,0.37487739999983205,1.9999018999999407,2.03324090000001,2.3000695999999152,2.3000695999999152,2.5999319999998534,2.3000695999999152,0.0,5.891714099999945,3.5916445000000294,3.5916445000000294,0.10242,0.046745898169240394,0.14023769450772117,5.891714099999945,0.12922511337356082,0.07178203138725095,space,3.291451600000073,,,,,,,,p3_high_01,001,2023-05-02_10h17.35.805,expectation_shapes_perceived_time,2022.2.4,120.03591474574317,
,,,,,,,,,,,,,15,0,15,0,test,,,,,,green,0.8326506698368806,0.8333333333333334,2.3002894999999626,0.9967070000000149,3.9600000036443816e-05,4e-05,0.0333120999998755,0.8332745999998679,0.8664985000000343,1.9999394999999822,2.033222899999828,2.3002894999999626,2.3002894999999626,2.600190499999826,2.4584340999999768,0.15814460000001418,5.174937199999931,2.8746476999999686,2.7165030999999544,0.22664,0.09658046392390197,0.11191069629277532,5.174937199999931,0.07418614039762786,-0.12786010530808026,space,2.567925900000091,,,,,,,,p3_high_01,001,2023-05-02_10h17.35.805,expectation_shapes_perceived_time,2022.2.4,120.03591474574317,
,,,,,,,,,,,,,16,0,16,0,test,,,,,,green,0.20992546182815278,0.20833333333333334,2.3000140999999985,0.9970816999998533,3.9399999877787195e-05,4e-05,,0.2077755000000252,0.2411286999999902,2.000138899999911,2.0333508999999594,2.3000140999999985,2.3000140999999985,2.599760999999944,2.308194599999979,0.008180499999980384,5.382794800000056,3.0827807000000575,3.074600200000077,0.39981,0.14056115207148284,0.045764096023273484,5.382794800000056,0.090574717469449,0.11682469992180342,space,2.777101800000082,,,,,,,,p3_high_01,001,2023-05-02_10h17.35.805,expectation_shapes_perceived_time,2022.2.4,120.03591474574317,
,,,,,,,,,,,,,17,0,17,0,test,,,,,,red,1.7091554035508445,1.7083333333333333,2.2998434999999517,0.9909844000001158,3.919999994650425e-05,4e-05,0.033050900000034744,1.7082632999999987,1.7415218000001005,1.9997992000000977,2.03316719999998,2.2998434999999517,2.2998434999999517,2.5997849000000315,2.9330962999999883,0.6332528000000366,5.791287799999964,3.491444300000012,2.8581914999999753,1.02051,-0.009517214282304199,-0.1475168213757151,5.791287799999964,-0.11704347705595394,0.09029182928229057,space,3.1866641999999956,,,,,,,,p3_high_01,001,2023-05-02_10h17.35.805,expectation_shapes_perceived_time,2022.2.4,120.03591474574317,
,,,,,,,,,,,,,18,0,18,0,test,,,,,,green,1.6732385548146864,1.675,2.2995533999999225,0.9971369999998387,5.9799999917231617e-05,6e-05,0.03349809999986064,1.6750698999999258,1.7085111999999754,1.9996588999999858,2.0330254000000423,2.2995533999999225,2.2995533999999225,2.6001541000000543,5.81637980000005,3.5168264000001273,8.86672939999994,6.567176000000018,3.0503495999998904,1.46042,-0.14668199812023264,-0.01833524976502908,8.86672939999994,-0.12646574231448682,0.07653891805699725,space,6.266450200000236,,,,,,,,p3_high_01,001,2023-05-02_10h17.35.805,expectation_shapes_perceived_time,2022.2.4,120.03591474574317,
,,,,,,,,,,,,,19,0,19,0,test,,,,,,red,0.5008934855476669,0.5,2.2993675999998686,0.9970100999998976,3.190000006725313e-05,3e-05,0.03295849999994971,0.500316200000043,0.5335588000000371,1.999731699999984,2.0332958999999846,2.2993675999998686,2.2993675999998686,2.6000993000000108,2.3077438999998776,0.008376300000008996,5.333208000000013,3.0338404000001447,3.0254641000001357,0.14095,0.06334041045296365,0.1335656481290755,5.333208000000013,0.14782292712978803,-0.0004149352615834481,space,2.727294400000119,,,,,,,,p3_high_01,001,2023-05-02_10h17.35.805,expectation_shapes_perceived_time,2022.2.4,120.03591474574317,
,,,,,,,,,0,0,0,0,,,,,fam,0.5644185000001016,0.5644185000001016,270.0,2.5647030000000086,2.5647030000000086,,,,,,,,,,,,,,,,,,,,,,,,,,,,,,,,,,,,p3_high_01,001,2023-05-02_10h17.35.805,expectation_shapes_perceived_time,2022.2.4,120.03591474574317,
,,,,,,,,,1,0,1,0,,,,,fam,0.49766410000006545,0.49766410000006545,270.0,2.497884600000134,2.497884600000134,,,,,,,,,,,,,,,,,,,,,,,,,,,,,,,,,,,,p3_high_01,001,2023-05-02_10h17.35.805,expectation_shapes_perceived_time,2022.2.4,120.03591474574317,
,,,,,,,,,2,0,2,0,,,,,fam,0.49728970000001027,0.49728970000001027,270.0,2.49796490000017,2.49796490000017,,,,,,,,,,,,,,,,,,,,,,,,,,,,,,,,,,,,p3_high_01,001,2023-05-02_10h17.35.805,expectation_shapes_perceived_time,2022.2.4,120.03591474574317,
,,,,,,,,,3,0,3,0,,,,,fam,0.49722620000011375,0.49722620000011375,270.0,2.4973573000002034,2.4973573000002034,,,,,,,,,,,,,,,,,,,,,,,,,,,,,,,,,,,,p3_high_01,001,2023-05-02_10h17.35.805,expectation_shapes_perceived_time,2022.2.4,120.03591474574317,
,,,,,,,,,4,0,4,0,,,,,fam,0.49730720000002293,0.49730720000002293,270.0,2.4974333000000115,2.4974333000000115,,,,,,,,,,,,,,,,,,,,,,,,,,,,,,,,,,,,p3_high_01,001,2023-05-02_10h17.35.805,expectation_shapes_perceived_time,2022.2.4,120.03591474574317,
,,,,,,,,,,,,,0,0,0,0,testSingleStim,,,,,,green,0.503032671557204,0.5,0.0513716000000386,0.9977489999998852,4.009999997833802e-05,4e-05,0.033307199999853765,0.49979549999989104,0.5332493999999315,1.9997793000000001,2.033094099999971,2.2996670999998514,2.2996670999998514,2.599980399999822,2.2996670999998514,0.0,3.6576672999999573,1.358000200000106,1.358000200000106,0.37112,0.13587124406305215,0.05823053316987949,,,,None,,,,,,,,,p3_high_01,001,2023-05-02_10h17.35.805,expectation_shapes_perceived_time,2022.2.4,120.03591474574317,
,,,,,,,,,,,,,1,0,1,0,testSingleStim,,,,,,red,1.1914287875250436,1.1916666666666667,0.00269679999996697,0.9982693999997991,4.3200000163778896e-05,4e-05,0.033203700000058234,1.1915711000001465,1.2248269000001528,1.9997346000000107,2.0331963000000997,2.2998291000001245,2.2998291000001245,2.5997813000001315,2.4083761000001687,0.10854700000004414,4.0993069000001015,1.799477799999977,1.6909307999999328,1.60466,-0.1399050289062923,0.04773230397979385,,,,None,,,,,,,,,p3_high_01,001,2023-05-02_10h17.35.805,expectation_shapes_perceived_time,2022.2.4,120.03591474574317,
,,,,,,,,,,,,,2,0,2,0,testSingleStim,,,,,,red,1.344499831112474,1.3416666666666666,0.0036999999999807187,0.9984811000001628,4.4299999899521936e-05,4e-05,0.03318689999991875,1.3416004999999132,1.3748786000001019,2.0000087999999323,2.0332484999998996,2.299855799999932,2.299855799999932,2.5999506000000565,2.741490399999975,0.44163460000004306,4.7083247999999,2.408468999999968,1.9668343999999252,1.7273,-0.11170861229756321,0.09681413065788812,,,,None,,,,,,,,,p3_high_01,001,2023-05-02_10h17.35.805,expectation_shapes_perceived_time,2022.2.4,120.03591474574317,
,,,,,,,,,,,,,3,0,3,0,testSingleStim,,,,,,green,1.1862232084375501,1.1833333333333333,0.0044617000000926055,0.9972744000001512,3.790000005210459e-05,4e-05,0.033514599999989514,1.183264999999892,1.2166042999999718,2.0000634000000446,2.0331926999999723,2.2997847999999976,2.2997847999999976,2.5995757000000594,2.5080052000000705,0.2082204000000729,3.766518799999858,1.4667339999998603,1.2585135999997874,0.87381,0.05708028733266932,-0.13635846418359893,,,,None,,,,,,,,,p3_high_01,001,2023-05-02_10h17.35.805,expectation_shapes_perceived_time,2022.2.4,120.03591474574317,
,,,,,,,,,,,,,4,0,4,0,testSingleStim,,,,,,green,0.35048648845809327,0.35,0.004541100000096776,0.9973996999999599,6.329999996523838e-05,6e-05,,0.3501260000000457,0.38351079999983995,2.000032400000009,2.033513200000016,2.299755600000026,2.299755600000026,2.5999391999998807,2.299755600000026,0.0,4.624695100000054,2.3249395000000277,2.3249395000000277,0.21989,0.09418530313548798,0.11393383443809028,,,,None,,,,,,,,,p3_high_01,001,2023-05-02_10h17.35.805,expectation_shapes_perceived_time,2022.2.4,120.03591474574317,
,,,,,,,,,,,,,5,0,5,0,testSingleStim,,,,,,green,1.0942923170889336,1.0916666666666666,0.004372900000134905,0.9976503000000321,4.080000007888884e-05,4e-05,0.0333671000000777,1.0916521999999986,1.1251004000000648,2.0001528000000235,2.03320819999999,2.300609300000133,2.300609300000133,2.5998495000001185,2.6748483000001215,0.37423899999998866,3.8749104999999417,1.5743011999998089,1.2000621999998202,0.73183,0.1103200102358389,-0.09839352264277525,,,,None,,,,,,,,,p3_high_01,001,2023-05-02_10h17.35.805,expectation_shapes_perceived_time,2022.2.4,120.03591474574317,
,,,,,,,,,,,,,6,0,6,0,testSingleStim,,,,,,green,0.3744347076104252,0.375,0.004458499999827836,0.9979576999999153,5.260000011730881e-05,5e-05,,0.3745759000000817,0.4078169000001708,1.999585799999977,2.032870500000172,2.2994926999999734,2.2994926999999734,2.599641799999972,2.2994926999999734,0.0,4.624601400000074,2.3251087000001007,2.3251087000001007,0.28121,0.1142569734886015,0.09379303793840421,,,,None,,,,,,,,,p3_high_01,001,2023-05-02_10h17.35.805,expectation_shapes_perceived_time,2022.2.4,120.03591474574317,
,,,,,,,,,,,,,7,0,7,0,testSingleStim,,,,,,red,1.6283266472753402,1.625,0.0046611999998731335,0.996479700000009,5.350000014914258e-05,5e-05,0.033256600000186154,1.6247143000000506,1.6580129000001307,1.9999330000000555,2.033179300000029,2.2992359000002125,2.2992359000002125,2.599854800000003,2.6830306000001656,0.3837946999999531,4.466292000000067,2.1670560999998543,1.7832613999999012,1.70697,-0.11765954872807934,0.08948754410304625,,,,None,,,,,,,,,p3_high_01,001,2023-05-02_10h17.35.805,expectation_shapes_perceived_time,2022.2.4,120.03591474574317,
,,,,,,,,,,,,,8,0,8,0,testSingleStim,,,,,,green,1.5753405649221006,1.575,0.0044577000001027045,0.9963929000000462,4.009999997833802e-05,4e-05,,1.5749697000001106,1.6086338000000069,1.99961559999997,,2.300120500000048,2.300120500000048,2.5999859999999444,2.3502441000000545,0.05012360000000626,5.158664700000145,2.8585442000000967,2.8084206000000904,1.7062,-0.11787541040555918,0.08920301327988261,,,,None,,,,,,,,,p3_high_01,001,2023-05-02_10h17.35.805,expectation_shapes_perceived_time,2022.2.4,120.03591474574317,
,,,,,,,,,,,,,9,0,9,0,testSingleStim,,,,,,red,1.8075352027935074,1.8083333333333333,0.004404900000054113,0.9970935000001191,7.780000009915966e-05,8e-05,0.03328440000018418,1.808272800000168,1.841657800000121,1.9999993999999788,2.03330700000015,2.3002387000001363,2.3002387000001363,2.600010300000122,2.55824860000007,0.2580098999999336,4.191602600000124,1.8913638999999876,1.633354000000054,1.95193,-0.022238863968484963,0.14614110607861547,,,,None,,,,,,,,,p3_high_01,001,2023-05-02_10h17.35.805,expectation_shapes_perceived_time,2022.2.4,120.03591474574317,
,,,,,,,,,,,,,10,0,10,0,testSingleStim,,,,,,green,1.7625942098736986,1.7666666666666666,0.0044717999999193125,0.9961699999998928,3.979999996772676e-05,4e-05,,1.7667691999999988,1.800140199999987,2.0001816000001327,,2.2999136000000817,2.2999136000000817,2.599972100000059,2.575105300000132,0.27519170000005033,3.8332741000001533,1.5333605000000716,1.2581688000000213,1.41233,-0.14225195317781303,-0.04020163894155586,,,,None,,,,,,,,,p3_high_01,001,2023-05-02_10h17.35.805,expectation_shapes_perceived_time,2022.2.4,120.03591474574317,
,,,,,,,,,,,,,11,0,11,0,testSingleStim,,,,,,green,1.7026830865681115,1.7,0.004630399999996371,0.9964067999999315,3.930000002583256e-05,4e-05,0.033221200000070894,1.6996914999999717,1.73301390000006,1.999845999999934,2.033270399999992,2.300091000000066,2.300091000000066,2.599826599999915,2.433256300000039,0.13316529999997329,3.074815400000034,0.7747243999999682,0.6415590999999949,1.16809,-0.0744839833208242,-0.12768682854998437,,,,None,,,,,,,,,p3_high_01,001,2023-05-02_10h17.35.805,expectation_shapes_perceived_time,2022.2.4,120.03591474574317,
,,,,,,,,,,,,,12,0,12,0,testSingleStim,,,,,,green,1.1321537102748034,1.1333333333333333,0.004441600000063772,0.9973452000001544,4.0500000068277586e-05,4e-05,,1.133358500000213,1.1666403000001537,2.0000022000001536,2.033031300000175,2.300013300000046,2.300013300000046,2.6001500000002125,2.300013300000046,0.0,3.333326100000022,1.033312799999976,1.033312799999976,0.41525,0.14261477387961224,0.03889493833080334,,,,None,,,,,,,,,p3_high_01,001,2023-05-02_10h17.35.805,expectation_shapes_perceived_time,2022.2.4,120.03591474574317,
,,,,,,,,,,,,,13,0,13,0,testSingleStim,,,,,,green,0.32199996820652893,0.325,0.004678799999965122,0.9960791999999401,3.190000006725313e-05,3e-05,0.03331120000007104,0.32502130000011675,0.3587675000001127,2.0000867999999628,,2.29961470000012,2.29961470000012,2.6001966999999695,2.3913535000001502,0.0917388000000301,3.5252333999999337,1.2256186999998135,1.1338798999997834,0.08191,0.03762009263995751,0.1429563520318385,,,,None,,,,,,,,,p3_high_01,001,2023-05-02_10h17.35.805,expectation_shapes_perceived_time,2022.2.4,120.03591474574317,
,,,,,,,,,,,,,14,0,14,0,testSingleStim,,,,,,red,1.5977764327032573,1.6,0.004480400000147711,0.9962778000001435,4.020000005766633e-05,4e-05,0.03350599999998849,1.600024600000097,1.6336169999999584,2.0003120000001218,2.033268399999997,2.3002066999999897,2.3002066999999897,2.599778199999946,2.3002066999999897,0.0,3.1084627000000182,0.8082560000000285,0.8082560000000285,0.8407,0.07092754428023387,-0.1296960809695705,,,,None,,,,,,,,,p3_high_01,001,2023-05-02_10h17.35.805,expectation_shapes_perceived_time,2022.2.4,120.03591474574317,
,,,,,,,,,,,,,15,0,15,0,testSingleStim,,,,,,green,1.3919168674904916,1.3916666666666666,0.00453960000004372,0.99610430000007,4.009999997833802e-05,4e-05,0.03326999999990221,1.3917409999999109,1.4249459000000115,1.9999139999999898,2.033224799999971,2.299857299999985,2.299857299999985,2.5996728999998595,2.299857299999985,0.0,3.024613099999897,0.7247557999999117,0.7247557999999117,0.51212,0.14771636186968615,-0.005627289975988044,,,,None,,,,,,,,,p3_high_01,001,2023-05-02_10h17.35.805,expectation_shapes_perceived_time,2022.2.4,120.03591474574317,
,,,,,,,,,,,,,16,0,16,0,testSingleStim,,,,,,red,1.3609102429141968,1.3583333333333334,0.004478999999946609,0.9965448000000379,3.950000018448918e-05,4e-05,,1.3587352000001829,1.3920205000001715,2.000354600000037,,2.300013799999988,2.300013799999988,2.6000774000001456,2.300013799999988,0.0,3.4499662000000626,1.1499524000000747,1.1499524000000747,0.31753,0.12419249289100905,0.08017490047394256,,,,None,,,,,,,,,p3_high_01,001,2023-05-02_10h17.35.805,expectation_shapes_perceived_time,2022.2.4,120.03591474574317,
,,,,,,,,,,,,,17,0,17,0,testSingleStim,,,,,,green,0.7682771249513227,0.7666666666666666,0.0045150000000830914,0.9962777000000642,6.779999989703356e-05,7e-05,,0.7667582999999922,0.8002539999999954,2.0000451999999314,,2.300043100000039,2.300043100000039,2.599962400000095,2.308466499999895,0.008423399999855974,3.491645900000094,1.1916028000000551,1.1831794000001992,0.30686,0.12143638066264917,0.08429113481289767,,,,None,,,,,,,,,p3_high_01,001,2023-05-02_10h17.35.805,expectation_shapes_perceived_time,2022.2.4,120.03591474574317,
,,,,,,,,,,,,,18,0,18,0,testSingleStim,,,,,,green,1.620107650425944,1.6166666666666667,0.004411800000070798,0.9975887000000512,4.0299999909620965e-05,4e-05,0.03354130000002442,1.6168496999998752,1.6502799999998388,2.000061100000039,2.033256700000038,2.299698699999908,2.299698699999908,2.5998233999998774,2.5414539999999306,0.24175530000002254,3.324710800000048,1.02501210000014,0.7832568000001174,0.60242,0.1402376945077212,-0.046745898169240394,,,,None,,,,,,,,,p3_high_01,001,2023-05-02_10h17.35.805,expectation_shapes_perceived_time,2022.2.4,120.03591474574317,
,,,,,,,,,,,,,19,0,19,0,testSingleStim,,,,,,green,1.0218089640574577,1.025,0.004566300000078627,0.9976991999999427,8.04999999672873e-05,8e-05,0.03333509999993112,1.0248548999998093,1.0581006999998408,1.9997033999998166,2.0331362999997964,2.299833999999919,2.299833999999919,2.5997679999998127,2.3083707999999206,0.008536800000001676,3.233093800000006,0.9332598000000871,0.9247230000000854,0.22817,0.09711683514814203,0.1114455485306548,,,,None,,,,,,,,,p3_high_01,001,2023-05-02_10h17.35.805,expectation_shapes_perceived_time,2022.2.4,120.03591474574317,
,,,,,,,,,,,,,20,0,20,0,testSingleStim,,,,,,green,1.0409777443402803,1.0416666666666667,0.004485700000032011,0.9975609000000532,3.209999999853608e-05,3e-05,,1.0416918999999325,1.0750092000000677,1.999717500000088,,2.299672200000032,2.299672200000032,2.6000097000001006,2.516918700000133,0.21724650000010115,3.1581326000000445,0.8584604000000127,0.6412138999999115,0.38174,0.13773860414213895,0.05366439122420998,,,,None,,,,,,,,,p3_high_01,001,2023-05-02_10h17.35.805,expectation_shapes_perceived_time,2022.2.4,120.03591474574317,
,,,,,,,,,,,,,21,0,21,0,testSingleStim,,,,,,green,0.301708364888315,0.3,0.004854000000023007,0.9955809999999019,3.999999989900971e-05,4e-05,,0.3000204999998459,0.33360399999992296,1.9999754000000394,,2.300048199999992,2.300048199999992,2.5998818999999003,2.300048199999992,0.0,3.6579741000000467,1.3579259000000548,1.3579259000000548,0.09158,0.04194568435419084,0.14174748505898974,,,,None,,,,,,,,,p3_high_01,001,2023-05-02_10h17.35.805,expectation_shapes_perceived_time,2022.2.4,120.03591474574317,
,,,,,,,,,,,,,22,0,22,0,testSingleStim,,,,,,red,1.5289675543127006,1.5333333333333332,0.004434700000047087,0.9966315000001487,4.009999997833802e-05,4e-05,0.03338060000010046,1.5339145000000372,1.5672523000000638,2.0006605000000945,2.0336151999999856,2.3001792000000023,2.3001792000000023,2.599879200000032,2.3001792000000023,0.0,3.2996118999999453,0.999432699999943,0.999432699999943,0.97857,0.00994306045589403,-0.1474887300957614,,,,None,,,,,,,,,p3_high_01,001,2023-05-02_10h17.35.805,expectation_shapes_perceived_time,2022.2.4,120.03591474574317,
,,,,,,,,,,,,,23,0,23,0,testSingleStim,,,,,,red,0.6666545791319979,0.6666666666666666,0.003189100000099643,0.9978067000001829,3.999999989900971e-05,4e-05,0.033533299999817245,0.6667721999999685,0.7001338000000032,2.0000038999999106,2.033341599999858,2.3000531999998657,2.3000531999998657,2.599981800000023,2.4169233000000077,0.11687010000014197,2.9665136999999504,0.6664605000000847,0.5495903999999427,0.35403,0.13255123569710847,0.06543668597705356,,,,None,,,,,,,,,p3_high_01,001,2023-05-02_10h17.35.805,expectation_shapes_perceived_time,2022.2.4,120.03591474574317,
,,,,,,,,,,,,,24,0,24,0,testSingleStim,,,,,,green,1.5071832195485622,1.5083333333333333,0.0033533999999235675,0.9978093999998237,3.2400000009147334e-05,3e-05,0.03316549999999552,1.5091410999998516,1.5425350999998955,2.0003852999998344,2.033680099999856,2.300806699999839,2.300806699999839,2.600370799999837,2.300806699999839,0.0,3.1920350000000326,0.8912283000001935,0.8912283000001935,1.14393,-0.0645846770797156,-0.13296845281117917,,,,None,,,,,,,,,p3_high_01,001,2023-05-02_10h17.35.805,expectation_shapes_perceived_time,2022.2.4,120.03591474574317,
,,,,,,,,,,,,,25,0,25,0,testSingleStim,,,,,,red,1.024644008685483,1.025,0.004400499999974272,0.9972138000000541,3.999999989900971e-05,4e-05,0.03332290000003013,1.0244709999999486,1.0578645999999026,1.9998679000000266,2.033413699999983,2.299959799999897,2.299959799999897,2.5998955999998543,2.299959799999897,0.0,3.008139399999891,0.708179599999994,0.708179599999994,0.51889,0.14756335840640908,-0.008766140103351035,,,,None,,,,,,,,,p3_high_01,001,2023-05-02_10h17.35.805,expectation_shapes_perceived_time,2022.2.4,120.03591474574317,
,,,,,,,,,,,,,26,0,26,0,testSingleStim,,,,,,green,1.3793196934908578,1.3833333333333333,0.0044007999999848835,0.99641859999997,4.3100000084450585e-05,4e-05,0.033225600000150735,1.3830394000001434,1.4164792000001398,1.9993534000000182,2.0327096000000893,2.2996974000000137,2.2996974000000137,2.5998415000001387,2.2996974000000137,0.0,3.0661083000002236,0.76641090000021,0.76641090000021,1.23767,-0.10040018366021464,-0.10849697266507068,,,,None,,,,,,,,,p3_high_01,001,2023-05-02_10h17.35.805,expectation_shapes_perceived_time,2022.2.4,120.03591474574317,
,,,,,,,,,,,,,27,0,27,0,testSingleStim,,,,,,red,1.0969068734352159,1.1,0.002872300000035466,0.9968859000000521,3.209999999853608e-05,3e-05,,1.100329899999906,1.1337353999999777,2.000035900000057,,2.3001060999999936,2.3001060999999936,2.5999583999998777,2.3001060999999936,0.0,2.9245461000000432,0.6244400000000496,0.6244400000000496,0.68229,0.12423961647815811,-0.08010185799249667,,,,None,,,,,,,,,p3_high_01,001,2023-05-02_10h17.35.805,expectation_shapes_perceived_time,2022.2.4,120.03591474574317,
,,,,,,,,,,,,,28,0,28,0,testSingleStim,,,,,,green,1.8308463033095812,1.8333333333333333,0.003843499999902633,0.99868390000006,3.169999990859651e-05,3e-05,0.03307829999994283,1.8331981999999698,1.8667112999999063,1.9999430999998822,2.0332690999998704,2.2999216999999135,2.2999216999999135,2.599915099999862,2.2999216999999135,0.0,3.008366600000045,0.7084449000001314,0.7084449000001314,1.5,-0.14782350948509485,0.0,,,,None,,,,,,,,,p3_high_01,001,2023-05-02_10h17.35.805,expectation_shapes_perceived_time,2022.2.4,120.03591474574317,
,,,,,,,,,,,,,29,0,29,0,testSingleStim,,,,,,red,1.501491623938002,1.5,0.004526700000042183,0.9947999999999411,3.3400000120309414e-05,3e-05,0.03328050000004623,1.5006580000001577,1.5338490999999976,2.000577800000201,2.033575400000018,2.3004097000000456,2.3004097000000456,2.600431700000172,2.475341900000103,0.1749322000000575,2.9585132000001977,0.658103500000152,0.48317130000009456,1.20557,-0.08896761457057054,-0.11805318087248784,,,,None,,,,,,,,,p3_high_01,001,2023-05-02_10h17.35.805,expectation_shapes_perceived_time,2022.2.4,120.03591474574317,
,,,,,,,,,,,,,30,0,30,0,testSingleStim,,,,,,red,0.5635539370043202,0.5666666666666667,0.004903600000034203,0.9977111000000605,3.9600000036443816e-05,4e-05,0.03316280000012739,0.5665186000001086,0.5996841000001041,1.9997577000001456,,2.299783899999966,2.299783899999966,2.5999030000000403,2.299783899999966,0.0,3.057886499999995,0.7581026000000293,0.7581026000000293,0.13143,0.05931808646165767,0.1353999799668273,,,,None,,,,,,,,,p3_high_01,001,2023-05-02_10h17.35.805,expectation_shapes_perceived_time,2022.2.4,120.03591474574317,
,,,,,,,,,,,,,31,0,31,0,testSingleStim,,,,,,green,1.2541957559057069,1.2583333333333333,0.00434240000004138,0.9975828999999976,6.970000004002941e-05,7e-05,,1.2585246000001007,1.291710799999919,1.9995283999999174,,2.300003800000013,2.300003800000013,2.600131200000078,2.300003800000013,0.0,2.9664632999999867,0.6664594999999736,0.6664594999999736,0.89183,0.04927226864236005,-0.13937013130267556,,,,None,,,,,,,,,p3_high_01,001,2023-05-02_10h17.35.805,expectation_shapes_perceived_time,2022.2.4,120.03591474574317,
,,,,,,,,,,,,,32,0,32,0,testSingleStim,,,,,,green,0.7949149614792181,0.7916666666666666,0.004768699999885939,0.9974847999999383,4.059999992023222e-05,4e-05,0.033398099999885744,0.7916467000000011,0.8250241999999162,2.0002832999998645,2.0334146000000146,2.300053799999887,2.300053799999887,2.599982700000055,2.300053799999887,0.0,3.308526000000029,1.008472200000142,1.008472200000142,0.47047,0.14718804814652892,0.013691911455491063,,,,None,,,,,,,,,p3_high_01,001,2023-05-02_10h17.35.805,expectation_shapes_perceived_time,2022.2.4,120.03591474574317,
,,,,,,,,,,,,,33,0,33,0,testSingleStim,,,,,,green,1.1243509023800307,1.125,0.004400499999974272,0.9973405999999159,3.7199999951553764e-05,4e-05,0.03312189999996917,1.1250564999998005,1.1580851999999595,1.9997088999998596,2.033212299999832,2.2998989999998685,2.2998989999998685,2.5997419999998783,2.308142699999962,0.008243700000093668,2.9332116999999016,0.6333127000000331,0.6250689999999395,0.91525,0.03889493833080334,-0.14261477387961224,,,,None,,,,,,,,,p3_high_01,001,2023-05-02_10h17.35.805,expectation_shapes_perceived_time,2022.2.4,120.03591474574317,
,,,,,,,,,,,,,34,0,34,0,testSingleStim,,,,,,green,0.447049465036682,0.45,0.004805499999974927,0.9953880000000481,3.169999990859651e-05,3e-05,0.033232600000019374,0.4503864999999223,0.48385559999996985,2.0000832999999147,,2.300251800000069,2.300251800000069,2.5999687999999423,2.3917939000000388,0.09154209999996965,3.1498011999999562,0.8495493999998871,0.7580072999999174,0.31031,0.12234370329447872,0.08296871832614074,,,,None,,,,,,,,,p3_high_01,001,2023-05-02_10h17.35.805,expectation_shapes_perceived_time,2022.2.4,120.03591474574317,
,,,,,,,,,,,,,35,0,35,0,testSingleStim,,,,,,green,0.6001898930319242,0.6,0.004417500000045038,0.9972829999999249,3.190000006725313e-05,3e-05,,0.5997282999999243,0.6330365999999685,2.0002497000000403,,2.300330600000052,2.300330600000052,2.6003932000000987,2.300330600000052,0.0,3.0918183999999655,0.7914877999999135,0.7914877999999135,0.6161,0.1380994404705365,-0.05272887727056848,,,,None,,,,,,,,,p3_high_01,001,2023-05-02_10h17.35.805,expectation_shapes_perceived_time,2022.2.4,120.03591474574317,
,,,,,,,,,,,,,36,0,36,0,testSingleStim,,,,,,green,1.1765682858946056,1.175,0.004523199999994176,0.9962699000000157,3.2400000009147334e-05,3e-05,,1.1751226000001225,1.2083773000001656,1.999683700000105,,2.2998281000000134,2.2998281000000134,2.599847299999965,2.4331293000000187,0.13330120000000534,3.0080634000000828,0.7082353000000694,0.5749341000000641,1.40226,-0.14090989821342817,-0.044678748214013804,,,,None,,,,,,,,,p3_high_01,001,2023-05-02_10h17.35.805,expectation_shapes_perceived_time,2022.2.4,120.03591474574317,
,,,,,,,,,,,,,37,0,37,0,testSingleStim,,,,,,green,1.7170251825781182,1.7166666666666666,0.004576899999847228,0.996416599999975,3.050000009352516e-05,3e-05,0.033141399999976784,1.716702499999883,1.7499731999998858,2.000019699999939,,2.299775400000044,2.299775400000044,2.599427500000047,2.299775400000044,0.0,3.0168555999998716,0.7170801999998275,0.7170801999998275,1.89954,-0.04588468072299669,0.14052183471417734,,,,None,,,,,,,,,p3_high_01,001,2023-05-02_10h17.35.805,expectation_shapes_perceived_time,2022.2.4,120.03591474574317,
,,,,,,,,,,,,,38,0,38,0,testSingleStim,,,,,,green,1.7386672506694478,1.7416666666666667,0.004614100000026156,0.9962447999998858,3.2400000009147334e-05,3e-05,0.03316439999980503,1.7418059999999969,1.7750301999999465,1.9999272999998539,2.0332376999999724,2.2999776999999995,2.2999776999999995,2.5997648000000027,2.3998163999999633,0.09983869999996386,3.332941599999913,1.0329638999999133,0.9331251999999495,1.72971,-0.11097310668941981,0.09765633388668946,,,,None,,,,,,,,,p3_high_01,001,2023-05-02_10h17.35.805,expectation_shapes_perceived_time,2022.2.4,120.03591474574317,
,,,,,,,,,,,,,39,0,39,0,testSingleStim,,,,,,red,1.2376779697088491,1.2416666666666667,0.0032615000000078,0.9979519999999411,4.099999978279811e-05,4e-05,,1.2417089999999007,1.2750610999999026,1.999600499999815,2.0331186999999318,2.300068399999873,2.300068399999873,2.5998015999998643,2.300068399999873,0.0,3.608182299999953,1.3081139000000803,1.3081139000000803,1.32798,-0.12675761363747,-0.07605456818248199,,,,None,,,,,,,,,p3_high_01,001,2023-05-02_10h17.35.805,expectation_shapes_perceived_time,2022.2.4,120.03591474574317,
,,,,,,,,,0,0,0,0,0,-1,-1,0,fam,0.5636786999998549,0.5636786999998549,270.0,2.5637426999999207,2.5637426999999207,,,,,,,,,,,,,,,,,,,,,,,,,,,,,,,,,,,,p3_high_01,001,2023-05-02_10h17.35.805,expectation_shapes_perceived_time,2022.2.4,120.03591474574317,
,,,,,,,,,1,0,1,0,0,-1,-1,0,fam,0.49723930000004657,0.49723930000004657,270.0,2.497169499999927,2.497169499999927,,,,,,,,,,,,,,,,,,,,,,,,,,,,,,,,,,,,p3_high_01,001,2023-05-02_10h17.35.805,expectation_shapes_perceived_time,2022.2.4,120.03591474574317,
,,,,,,,,,2,0,2,0,0,-1,-1,0,fam,0.49732029999995575,0.49732029999995575,270.0,2.497501700000157,2.497501700000157,,,,,,,,,,,,,,,,,,,,,,,,,,,,,,,,,,,,p3_high_01,001,2023-05-02_10h17.35.805,expectation_shapes_perceived_time,2022.2.4,120.03591474574317,
,,,,,,,,,3,0,3,0,0,-1,-1,0,fam,0.4975314000000708,0.4975314000000708,270.0,2.4974884000000657,2.4974884000000657,,,,,,,,,,,,,,,,,,,,,,,,,,,,,,,,,,,,p3_high_01,001,2023-05-02_10h17.35.805,expectation_shapes_perceived_time,2022.2.4,120.03591474574317,
1,500,0.5,none,98,red,green,no_Expectation,,,,,,0,0,0,5,train_doubleStim,,,,,,red,0.7913041423946816,0.7916666666666666,2.3000348000000486,0.9982774999998583,4e-05,4e-05,0.03326,0.791660100000172,0.824922400000105,1.9999420000001464,2.033219200000076,2.3000348000000486,2.3000348000000486,2.499685100000079,2.3000348000000486,0.0,3.2411455000001297,0.9411107000000811,0.9411107000000811,0.32095,0.125047691338983,0.07883441410501102,,,,None,,0.5,0.5,1.3246341423946815,1.325,training_double_stim.csv,1.3249526000001879,1.3586093000001256,p3_high_01,001,2023-05-02_10h17.35.805,expectation_shapes_perceived_time,2022.2.4,120.03591474574317,
1,-500,0.5,none,77,green,red,no_Expectation,,,,,,0,1,1,1,train_doubleStim,,,,,,green,0.7814673910265726,0.7833333333333333,2.2996554999999717,0.998886500000026,5e-05,5e-05,0.03355,0.783414300000004,0.816844299999957,1.9996997999999166,2.0330132999999933,2.2996554999999717,2.2996554999999717,2.499637200000052,2.2996554999999717,0.0,4.433066800000006,2.1334113000000343,2.1334113000000343,0.2659,0.10961642127883997,0.09917676210942664,,,,None,,-0.5,-0.5,0.24813739102657262,0.25,training_double_stim.csv,0.24993180000001303,0.2835442000000512,p3_high_01,001,2023-05-02_10h17.35.805,expectation_shapes_perceived_time,2022.2.4,120.03591474574317,
1,500,0.5,none,60,red,green,no_Expectation,,,,,,0,2,2,8,train_doubleStim,,,,,,red,0.25654316385286086,0.2583333333333333,2.300075500000048,0.9964737000000241,4e-05,4e-05,0.03355,0.2583693999999923,0.29158559999996214,2.0002786000000015,2.033366800000067,2.300075500000048,2.300075500000048,2.5002624999999625,3.5828151000000616,1.2827396000000135,4.225098600000138,1.9250231000000895,0.642283500000076,1.01692,-0.007851852718929856,-0.1476148311158813,,,,None,,0.5,0.5,0.7898731638528609,0.7916666666666666,training_double_stim.csv,0.791823900000054,0.8249078000001191,p3_high_01,001,2023-05-02_10h17.35.805,expectation_shapes_perceived_time,2022.2.4,120.03591474574317,
1,500,0.5,none,33,green,red,no_Expectation,,,,,,0,3,3,7,train_doubleStim,,,,,,green,1.3010421887251078,1.3,2.2997479000000567,0.9953396000000794,4e-05,4e-05,0.03317,1.2998571999999058,1.3332448000001023,1.9999608000000535,2.0330501000000822,2.2997479000000567,2.2997479000000567,2.500013200000012,3.0413519999999608,0.7416040999999041,4.624783600000001,2.325035699999944,1.58343160000004,0.45066,0.14605140624259377,0.02282053222540528,,,,None,,0.5,0.5,1.8343721887251077,1.8333333333333333,training_double_stim.csv,1.8330218000000968,1.8663656999999603,p3_high_01,001,2023-05-02_10h17.35.805,expectation_shapes_perceived_time,2022.2.4,120.03591474574317,
1,500,0.5,none,88,red,green,no_Expectation,,,,,,0,4,4,9,train_doubleStim,,,,,,red,1.2636093204820311,1.2666666666666666,2.300060399999893,0.9962312000000111,4e-05,4e-05,0.03339,1.2668222999998306,1.3003288999998404,2.0000370999998722,2.033434199999874,2.300060399999893,2.300060399999893,2.5001226999997925,3.108236899999838,0.808176499999945,3.6831980999997995,1.3831376999999065,0.5749611999999615,1.01049,-0.004870656453013514,-0.14774324574140993,,,,None,,0.5,0.5,1.796939320482031,1.8,training_double_stim.csv,1.8000782999999956,1.833350899999914,p3_high_01,001,2023-05-02_10h17.35.805,expectation_shapes_perceived_time,2022.2.4,120.03591474574317,
1,-500,0.5,none,46,red,green,no_Expectation,,,,,,0,5,5,4,train_doubleStim,,,,,,red,1.4074049474926291,1.4083333333333332,2.3000226999999995,0.9976249999999709,6e-05,6e-05,,1.4085214000001542,1.441765900000064,2.0001058000000285,,2.3000226999999995,2.3000226999999995,2.5000875000000633,2.750059100000044,0.4500364000000445,3.9749642000001586,1.674941500000159,1.2249051000001145,0.60458,0.1399164577799493,-0.04769879242498272,,,,None,,-0.5,-0.5,0.8740749474926292,0.875,training_double_stim.csv,0.8750253000000612,0.9084792000001016,p3_high_01,001,2023-05-02_10h17.35.805,expectation_shapes_perceived_time,2022.2.4,120.03591474574317,
1,-500,0.5,none,68,red,green,no_Expectation,,,,,,0,6,6,3,train_doubleStim,,,,,,red,1.4387225518573776,1.4416666666666667,2.3001776000000973,0.9973813999999948,3e-05,3e-05,0.03357,1.4418104000001222,1.4753195000000687,2.0002163000001474,2.0337140999999974,2.3001776000000973,2.3001776000000973,2.5004553000001124,2.8586573000000044,0.5584796999999071,5.391812000000073,3.0916343999999754,2.5331547000000683,1.10011,-0.045728482406631354,-0.14057274221297786,,,,None,,-0.5,-0.5,0.9053925518573775,0.9083333333333333,training_double_stim.csv,0.9083438000000115,0.9417230999999902,p3_high_01,001,2023-05-02_10h17.35.805,expectation_shapes_perceived_time,2022.2.4,120.03591474574317,
1,-500,0.5,none,23,green,red,no_Expectation,,,,,,0,7,7,2,train_doubleStim,,,,,,green,0.9106949637009586,0.9083333333333333,2.3002256000002035,0.9972228000001451,9e-05,9e-05,0.03348,0.9082206000000497,0.941706300000078,2.0001638000001094,2.0334442000000763,2.3002256000002035,2.3002256000002035,2.499963600000001,2.7167505000002166,0.4165249000000131,4.749895300000162,2.4496696999999585,2.0331447999999455,0.31547,0.12367188700209339,0.08097564029898971,,,,None,,-0.5,-0.5,0.3773649637009586,0.375,training_double_stim.csv,0.3748237000002064,0.40844780000020364,p3_high_01,001,2023-05-02_10h17.35.805,expectation_shapes_perceived_time,2022.2.4,120.03591474574317,
1,-500,0.5,none,59,green,red,no_Expectation,,,,,,0,8,8,0,train_doubleStim,,,,,,green,0.9504162748962975,0.95,2.2999543999999332,0.9965927999999167,4e-05,4e-05,0.0332,0.9495481999999811,0.9827921999999489,2.0002615999999307,2.0332957999999053,2.2999543999999332,2.2999543999999332,2.5000350999998773,2.8750683999999183,0.575113999999985,4.332813099999839,2.032858699999906,1.457744699999921,0.42964,0.14422672909878692,0.03241050092107571,,,,None,,-0.5,-0.5,0.4170862748962975,0.4166666666666667,training_double_stim.csv,0.41654449999987264,0.45019779999984166,p3_high_01,001,2023-05-02_10h17.35.805,expectation_shapes_perceived_time,2022.2.4,120.03591474574317,
1,500,0.5,none,25,green,red,no_Expectation,,,,,,0,9,9,6,train_doubleStim,,,,,,green,0.6237686829157602,0.625,2.3001581000000897,0.9983612999999423,4e-05,4e-05,,0.6248041999999714,0.6579765999999836,2.0001422000000275,,2.3001581000000897,2.3001581000000897,2.5003163000001223,2.9335382000001573,0.6333801000000676,5.59146469999996,3.2913065999998707,2.657926499999803,0.45951,0.14662893654965783,0.018754863977281815,,,,None,,0.5,0.5,1.1570986829157601,1.1583333333333332,training_double_stim.csv,1.1584459000000606,1.1918651000000864,p3_high_01,001,2023-05-02_10h17.35.805,expectation_shapes_perceived_time,2022.2.4,120.03591474574317,
1,-500,0.5,none,59,green,red,no_Expectation,,,,,,1,0,10,0,train_doubleStim,,,,,,green,1.3699832399448655,1.3666666666666667,2.2997230000000854,0.996193299999959,4e-05,4e-05,0.03357,1.366327100000035,1.3996213999998872,1.999661900000092,2.0330269999999473,2.2997230000000854,2.2997230000000854,2.4996243000000504,2.874839800000018,0.5751167999999325,3.574384400000099,1.2746614000000136,0.6995446000000811,1.40687,-0.14154222088886456,-0.04263319906291101,,,,None,,-0.5,-0.5,0.8366532399448655,0.8333333333333334,training_double_stim.csv,0.8329951999999139,0.8664361000001009,p3_high_01,001,2023-05-02_10h17.35.805,expectation_shapes_perceived_time,2022.2.4,120.03591474574317,
1,500,0.5,none,88,red,green,no_Expectation,,,,,,1,1,11,9,train_doubleStim,,,,,,red,0.9628582020104968,0.9666666666666667,2.2999606999999287,0.9987421000000722,4e-05,4e-05,0.03345,0.9665623999999298,0.9999970999999732,1.9999485000000732,2.033241999999973,2.2999606999999287,2.2999606999999287,2.500050099999953,3.300034000000096,1.0000733000001674,4.632791900000029,2.3328312000001006,1.3327578999999332,0.45724,0.1464919789364176,0.01979621336978616,,,,None,,0.5,0.5,1.4961882020104968,1.5,training_double_stim.csv,1.4999846999999136,1.5335617999999158,p3_high_01,001,2023-05-02_10h17.35.805,expectation_shapes_perceived_time,2022.2.4,120.03591474574317,
1,500,0.5,none,33,green,red,no_Expectation,,,,,,1,2,12,7,train_doubleStim,,,,,,green,0.7453276453403072,0.7416666666666667,2.299570700000004,0.9987911000000622,5e-05,5e-05,,0.741372199999887,0.7745296999999027,1.9996095999999852,,2.299570700000004,2.299570700000004,2.499547200000052,3.3494384999999056,1.0498677999999018,4.666027999999869,2.3664572999998654,1.3165894999999637,0.49672,0.14781565467972863,0.0015238727286569962,,,,None,,0.5,0.5,1.2786576453403071,1.275,training_double_stim.csv,1.2744708999998693,1.3079184999999143,p3_high_01,001,2023-05-02_10h17.35.805,expectation_shapes_perceived_time,2022.2.4,120.03591474574317,
1,-500,0.5,none,46,red,green,no_Expectation,,,,,,1,3,13,4,train_doubleStim,,,,,,red,0.9656647356737332,0.9666666666666667,2.2995625000000928,0.9980570000000171,5e-05,5e-05,0.03342,0.96612499999992,0.9998041999999714,1.9995910000000094,2.032802400000037,2.2995625000000928,2.2995625000000928,2.4994587000001047,2.457931099999996,0.15836859999990338,4.074556900000061,1.7749943999999687,1.6166258000000653,0.7376,0.10851715547070413,-0.10037836881040134,,,,None,,-0.5,-0.5,0.4323347356737333,0.43333333333333335,training_double_stim.csv,0.43342200000006414,0.4665090999999393,p3_high_01,001,2023-05-02_10h17.35.805,expectation_shapes_perceived_time,2022.2.4,120.03591474574317,
1,-500,0.5,none,23,green,red,no_Expectation,,,,,,1,4,14,2,train_doubleStim,,,,,,green,1.0381537371656446,1.0416666666666667,2.300122300000112,0.9963482999999087,4e-05,4e-05,0.03302,1.041272299999946,1.0749484000000393,2.000009600000112,2.033226700000114,2.300122300000112,2.300122300000112,2.4997421000000486,3.3908673999999337,1.0907450999998218,5.2494678999999,2.9493455999997877,1.858600499999966,0.65596,0.13043250836920134,-0.06956400446357404,,,,None,,-0.5,-0.5,0.5048237371656445,0.5083333333333333,training_double_stim.csv,0.5080508999999438,0.541502600000058,p3_high_01,001,2023-05-02_10h17.35.805,expectation_shapes_perceived_time,2022.2.4,120.03591474574317,
1,500,0.5,none,60,red,green,no_Expectation,,,,,,1,5,15,8,train_doubleStim,,,,,,red,0.9566818926694282,0.9583333333333334,2.2998696999998174,0.9966022000000976,4e-05,4e-05,0.03324,0.9583143999998356,0.9914881999998215,1.9993377999999211,,2.2998696999998174,2.2998696999998174,2.4997816999998577,3.2000633000000107,0.9001936000001933,5.399744699999928,3.099875000000111,2.1996813999999176,0.6153,0.13823124670590148,-0.052382367172762664,,,,None,,0.5,0.5,1.4900118926694281,1.4916666666666667,training_double_stim.csv,1.4916254999998273,1.5252629999999954,p3_high_01,001,2023-05-02_10h17.35.805,expectation_shapes_perceived_time,2022.2.4,120.03591474574317,
1,-500,0.5,none,68,red,green,no_Expectation,,,,,,1,6,16,3,train_doubleStim,,,,,,red,1.2431884898224006,1.2416666666666667,2.3001767000000655,0.9964829999998983,4e-05,4e-05,0.03336,1.2415876000000026,1.275242100000014,2.0002340000000913,2.033266600000161,2.3001767000000655,2.3001767000000655,2.5002255000001696,2.9666239000000587,0.6664471999999932,5.058128500000066,2.7579518000000007,2.0915046000000075,1.23102,-0.09811189467956832,-0.11057054797221193,,,,None,,-0.5,-0.5,0.7098584898224006,0.7083333333333334,training_double_stim.csv,0.7078427000001284,0.7411713000001328,p3_high_01,001,2023-05-02_10h17.35.805,expectation_shapes_perceived_time,2022.2.4,120.03591474574317,
1,500,0.5,none,98,red,green,no_Expectation,,,,,,1,7,17,5,train_doubleStim,,,,,,red,0.6588056255353428,0.6583333333333333,2.300027,0.9974793999999747,3e-05,3e-05,,0.6585723999999118,0.6919835999999577,1.9999759999998332,,2.300027,2.300027,2.499996499999952,2.567910799999936,0.26788379999993595,3.258239000000003,0.9582120000000032,0.6903282000000672,0.24768,0.10376127099977886,0.10528717204389323,,,,None,,0.5,0.5,1.1921356255353428,1.1916666666666667,training_double_stim.csv,1.1917187999999896,1.2249594999998408,p3_high_01,001,2023-05-02_10h17.35.805,expectation_shapes_perceived_time,2022.2.4,120.03591474574317,
1,-500,0.5,none,77,green,red,no_Expectation,,,,,,1,8,18,1,train_doubleStim,,,,,,green,0.984306081336349,0.9833333333333333,2.300042200000007,0.9976214999999229,3e-05,3e-05,,0.9834473999999318,1.0167999000000236,2.0002512000000934,,2.300042200000007,2.300042200000007,2.4999496000000363,3.475101499999937,1.1750592999999299,5.391169999999875,3.0911277999998674,1.9160684999999376,0.31372,0.12322452245499087,0.08165480403643974,,,,None,,-0.5,-0.5,0.4509760813363491,0.45,training_double_stim.csv,0.4495506999999179,0.4832767000000331,p3_high_01,001,2023-05-02_10h17.35.805,expectation_shapes_perceived_time,2022.2.4,120.03591474574317,
1,500,0.5,none,25,green,red,no_Expectation,,,,,,1,9,19,6,train_doubleStim,,,,,,green,0.24075169534059304,0.24166666666666667,2.3001404999999977,0.9987437999998292,4e-05,4e-05,,0.24188389999994797,0.2749684000000343,2.0001592000000983,,2.3001404999999977,2.3001404999999977,2.5002377000000706,2.883461099999977,0.5833205999999791,4.291447900000094,1.991307400000096,1.407986800000117,0.20345,0.08818022245028886,0.1186424811149341,,,,None,,0.5,0.5,0.7740816953405931,0.775,training_double_stim.csv,0.7748472000000675,0.8082131000001027,p3_high_01,001,2023-05-02_10h17.35.805,expectation_shapes_perceived_time,2022.2.4,120.03591474574317,
,,,,,,,,,0,0,0,0,0,-1,-1,0,fam,0.5557845000000725,0.5557845000000725,270.0,2.556226400000014,2.556226400000014,,,,,,,,,,,,,,,,,,,,,,,,,,,,,,,,,,,,p3_high_01,001,2023-05-02_10h17.35.805,expectation_shapes_perceived_time,2022.2.4,120.03591474574317,
,,,,,,,,,1,0,1,0,0,-1,-1,0,fam,0.4974717000000055,0.4974717000000055,270.0,2.497565800000075,2.497565800000075,,,,,,,,,,,,,,,,,,,,,,,,,,,,,,,,,,,,p3_high_01,001,2023-05-02_10h17.35.805,expectation_shapes_perceived_time,2022.2.4,120.03591474574317,
,,,,,,,,,2,0,2,0,0,-1,-1,0,fam,0.49774840000009135,0.49774840000009135,270.0,2.497511300000042,2.497511300000042,,,,,,,,,,,,,,,,,,,,,,,,,,,,,,,,,,,,p3_high_01,001,2023-05-02_10h17.35.805,expectation_shapes_perceived_time,2022.2.4,120.03591474574317,
,,,,,,,,,3,0,3,0,0,-1,-1,0,fam,0.4993879000001016,0.4993879000001016,270.0,2.499200700000074,2.499200700000074,,,,,,,,,,,,,,,,,,,,,,,,,,,,,,,,,,,,p3_high_01,001,2023-05-02_10h17.35.805,expectation_shapes_perceived_time,2022.2.4,120.03591474574317,
,33,0.8,met,,red,green,,831.046066983627,,,,,0,0,0,154,trial,,,,,,red,0.831046066983627,0.8333333333333334,2.3000807000000805,0.9985870999998951,4e-05,4e-05,,0.8332761000001483,0.8666075000001001,1.9999155000000428,,2.3000807000000805,2.3000807000000805,2.5000260000001617,3.1088776000001417,0.8087969000000612,3.9168907000000672,1.6168099999999868,0.8080130999999255,0.63789,0.13416861447156964,-0.06205298419310097,,,,None,,0.033,0.03333333333333333,0.897376066983627,0.9,trial_list_0.8_red.csv,0.8999555000000328,0.9332086000001709,p3_high_01,001,2023-05-02_10h17.35.805,expectation_shapes_perceived_time,2022.2.4,120.03591474574317,
,167,0.8,met,,red,green,,1541.0340323789026,,,,,0,1,1,472,trial,,,,,,red,1.5410340323789025,1.5416666666666667,2.299889500000063,0.9952730999998494,5e-05,5e-05,0.03333,1.541272299999946,1.5744518999999855,1.9996989000001122,2.0330650999999307,2.299889500000063,2.299889500000063,2.49981559999992,2.77506029999995,0.4751707999998871,3.5076005000000805,1.2077110000000175,0.7325402000001304,1.26781,-0.1102078476730054,-0.09851913655617148,,,,None,,0.167,0.16666666666666666,1.7413640323789026,1.7416666666666667,trial_list_0.8_red.csv,1.741201300000057,1.7748759000000973,p3_high_01,001,2023-05-02_10h17.35.805,expectation_shapes_perceived_time,2022.2.4,120.03591474574317,
,-100,0.8,met,,red,green,,430.7153812468291,,,,,0,2,2,373,trial,,,,,,red,0.4307153812468291,0.43333333333333335,2.299675900000011,0.9990847000001395,5e-05,5e-05,0.03347,0.4329170000000886,0.4664771000000201,1.9999434999999721,2.033293000000185,2.299675900000011,2.299675900000011,2.4994211000000632,2.7995411000001695,0.49986520000015844,3.8246712000000116,1.5249953000000005,1.025130099999842,0.29147,0.1172215818388485,0.09006048360789579,,,,None,,-0.1,-0.1,0.2973853812468291,0.3,trial_list_0.8_red.csv,0.2998208000001341,0.33292370000003757,p3_high_01,001,2023-05-02_10h17.35.805,expectation_shapes_perceived_time,2022.2.4,120.03591474574317,
,300,0.8,met,,red,green,,1452.971864886743,,,,,0,3,3,79,trial,,,,,,red,1.4529718648867431,1.45,2.300063499999851,0.9964411999999356,4e-05,4e-05,,1.4501249999998436,1.4832292999999481,2.000222299999905,,2.300063499999851,2.300063499999851,2.500059199999896,2.9338981999999305,0.6338347000000795,3.791396799999802,1.4913332999999511,0.8574985999998717,0.97415,0.0119924853786228,-0.14733624893736585,,,,None,,0.3,0.3,1.786301864886743,1.7833333333333332,trial_list_0.8_red.csv,1.783446099999992,1.816727199999832,p3_high_01,001,2023-05-02_10h17.35.805,expectation_shapes_perceived_time,2022.2.4,120.03591474574317,
,100,0.8,met,,red,green,,1726.3708232803606,,,,,0,4,4,205,trial,,,,,,red,1.7263708232803605,1.7249999999999999,2.29994099999999,0.9957955999998376,4e-05,4e-05,0.03323,1.724945899999966,1.7582835000000614,1.9999938000000839,2.0332903999999417,2.29994099999999,2.29994099999999,2.50018759999989,2.7924384000000373,0.4924974000000475,4.191477500000019,1.8915365000000293,1.3990390999999818,1.17887,-0.0787623274252334,-0.12509310826360598,,,,None,,0.1,0.1,1.8597008232803605,1.8583333333333334,trial_list_0.8_red.csv,1.8582648999999947,1.8915137999999843,p3_high_01,001,2023-05-02_10h17.35.805,expectation_shapes_perceived_time,2022.2.4,120.03591474574317,
,-33,0.8,met,,red,green,,1513.811269582307,,,,,0,5,5,146,trial,,,,,,red,1.513811269582307,1.5166666666666666,2.3001672000000326,0.9965147000000343,3e-05,3e-05,0.03329,1.5165587000001324,1.549960800000008,1.9998725000000377,2.0333466000001863,2.3001672000000326,2.3001672000000326,2.500327900000002,2.7001890999999887,0.4000218999999561,3.3832491000000573,1.0830819000000247,0.6830600000000686,1.13942,-0.06269788693678864,-0.13386846129746763,,,,None,,-0.033,-0.03333333333333333,1.447481269582307,1.45,trial_list_0.8_red.csv,1.4500586000001476,1.48327519999998,p3_high_01,001,2023-05-02_10h17.35.805,expectation_shapes_perceived_time,2022.2.4,120.03591474574317,
,300,0.8,met,,red,green,,705.3282533565058,,,,,0,6,6,489,trial,,,,,,red,0.7053282533565058,0.7083333333333334,2.300401200000124,0.9962811000000329,3e-05,3e-05,0.03332,0.7086300000000847,0.741894000000002,2.000584500000059,2.033630099999982,2.300401200000124,2.300401200000124,2.500281900000118,2.8505033999999796,0.5501021999998557,3.575356900000088,1.274955699999964,0.7248535000001084,0.60242,0.1402376945077212,-0.046745898169240394,,,,None,,0.3,0.3,1.0386582533565059,1.0416666666666667,trial_list_0.8_red.csv,1.0420748999999887,1.0753067000000556,p3_high_01,001,2023-05-02_10h17.35.805,expectation_shapes_perceived_time,2022.2.4,120.03591474574317,
,-33,0.1999999999999999,unmet,,green,red,,610.4789085792872,,,,,0,7,7,107,trial,,,,,,green,0.6104789085792872,0.6083333333333333,2.299818200000118,0.9964320999999927,3e-05,3e-05,0.03313,0.6081906000001709,0.6413575000001401,1.9997875000001386,2.0331993000002058,2.299818200000118,2.299818200000118,2.499830200000133,2.299818200000118,0.0,3.0081946000000244,0.7083763999999064,0.7083763999999064,0.60781,0.1394253659616055,-0.04911575391829284,,,,None,,-0.033,-0.03333333333333333,0.5441489085792872,0.5416666666666666,trial_list_0.8_red.csv,0.5411333000001832,0.5747841000002154,p3_high_01,001,2023-05-02_10h17.35.805,expectation_shapes_perceived_time,2022.2.4,120.03591474574317,
,100,0.1999999999999999,unmet,,green,red,,1629.1381102011717,,,,,0,8,8,499,trial,,,,,,green,1.6291381102011717,1.6333333333333333,2.2999468999998953,0.9964535000001433,4e-05,4e-05,,1.6332353999998759,1.6666933999999856,1.9999068999998144,,2.2999468999998953,2.2999468999998953,2.500053699999853,2.7248141000000032,0.4248672000001079,3.2914710999998533,0.991524199999958,0.5666569999998501,1.25909,-0.10746963565173664,-0.10149910033775127,,,,None,,0.1,0.1,1.7624681102011717,1.7666666666666666,trial_list_0.8_red.csv,1.7666442999998253,1.7998700999999073,p3_high_01,001,2023-05-02_10h17.35.805,expectation_shapes_perceived_time,2022.2.4,120.03591474574317,
,300,0.8,met,,red,green,,217.6438276741646,,,,,0,9,9,307,trial,,,,,,red,0.21764382767416462,0.21666666666666667,2.2995058000001336,0.9968572000000222,0.0001,0.0001,0.03298,0.21634060000019417,0.2494962000000669,1.999125400000139,,2.2995058000001336,2.2995058000001336,2.4996581000000333,2.2995058000001336,0.0,2.9411757000000307,0.6416698999998971,0.6416698999998971,0.2435,0.10237248527313218,0.10663800549284601,,,,None,,0.3,0.3,0.5509738276741647,0.55,trial_list_0.8_red.csv,0.5495531000001392,0.5831128000002082,p3_high_01,001,2023-05-02_10h17.35.805,expectation_shapes_perceived_time,2022.2.4,120.03591474574317,
,233,0.1999999999999999,unmet,,green,red,,892.3445201661846,,,,,0,10,10,325,trial,,,,,,green,0.8923445201661846,0.8916666666666666,2.30000670000004,0.9967077999999674,6e-05,6e-05,0.03314,0.8915302000000338,0.9251802999999654,1.9998980000000302,2.033295500000122,2.30000670000004,2.30000670000004,2.5000720000000456,2.71685350000007,0.41684680000003027,4.049713600000132,1.749706900000092,1.3328601000000617,0.50974,0.14775429471734514,-0.004523090654612606,,,,None,,0.233,0.23333333333333334,1.1586745201661846,1.1583333333333332,trial_list_0.8_red.csv,1.1582637000001341,1.1916470000001027,p3_high_01,001,2023-05-02_10h17.35.805,expectation_shapes_perceived_time,2022.2.4,120.03591474574317,
,-33,0.8,met,,red,green,,1653.841489466953,,,,,0,11,11,244,trial,,,,,,red,1.6538414894669529,1.6583333333333332,2.2995797999999468,0.9966755000000376,4e-05,4e-05,0.03348,1.6578549000000748,1.691337599999997,1.9996031999999104,2.0328973000000587,2.2995797999999468,2.2995797999999468,2.4995794999999816,3.024600400000054,0.7250206000001072,4.899526700000024,2.599946900000077,1.87492629999997,0.79447,0.08895266473988463,-0.11806444592748322,,,,None,,-0.033,-0.03333333333333333,1.587511489466953,1.5916666666666666,trial_list_0.8_red.csv,1.5912390999999388,1.6246235999999499,p3_high_01,001,2023-05-02_10h17.35.805,expectation_shapes_perceived_time,2022.2.4,120.03591474574317,
,167,0.1999999999999999,unmet,,green,red,,1170.319389554884,,,,,0,12,12,174,trial,,,,,,green,1.170319389554884,1.1666666666666667,2.3000357000000804,0.9976713999999447,1e-05,1e-05,0.0333,1.1666483000001335,1.2000262000001385,1.9999940000000151,2.0333525999999438,2.3000357000000804,2.3000357000000804,2.500143499999922,3.058394000000135,0.7583583000000544,6.81669490000013,4.516659200000049,3.7583008999999947,0.85388,0.06549869108319002,-0.1325206075404077,,,,None,,0.167,0.16666666666666666,1.370649389554884,1.375,trial_list_0.8_red.csv,1.3749328000001242,1.408290500000021,p3_high_01,001,2023-05-02_10h17.35.805,expectation_shapes_perceived_time,2022.2.4,120.03591474574317,
,300,0.8,met,,red,green,,1384.2986968813625,,,,,0,13,13,412,trial,,,,,,red,1.3842986968813624,1.3833333333333333,2.3001197999999476,0.9988138999999592,3e-05,3e-05,,1.3834603999998762,1.4167735999999422,2.0000832999999147,,2.3001197999999476,2.3001197999999476,2.500256199999967,4.6501625999999305,2.350042799999983,5.291439999999966,2.9913202000000183,0.6412774000000354,0.83295,0.07406493989079822,-0.12793035072046965,,,,None,,0.3,0.3,1.7176286968813623,1.7166666666666666,trial_list_0.8_red.csv,1.7169914999999492,1.7503660999998374,p3_high_01,001,2023-05-02_10h17.35.805,expectation_shapes_perceived_time,2022.2.4,120.03591474574317,
,-300,0.8,met,,red,green,,911.6348713375244,,,,,0,14,14,128,trial,,,,,,red,0.9116348713375244,0.9083333333333333,2.300269099999923,0.9958303000000797,3e-05,3e-05,0.03322,0.9083055999999488,0.9416458999999122,1.9999852999999348,2.0333605999999236,2.300269099999923,2.300269099999923,2.4999644999998054,2.7498755999999958,0.44960650000007263,3.8166557999998076,1.5163866999998845,1.0667801999998119,0.52646,0.14731289134624298,-0.012276074278853584,,,,None,,-0.3,-0.3,0.5783048713375243,0.575,trial_list_0.8_red.csv,0.575014499999952,0.6083199999998214,p3_high_01,001,2023-05-02_10h17.35.805,expectation_shapes_perceived_time,2022.2.4,120.03591474574317,
,-100,0.8,met,,red,green,,943.2137860836012,,,,,0,15,15,421,trial,,,,,,red,0.9432137860836012,0.9416666666666667,2.300275699999929,0.9959698999998636,3e-05,3e-05,,0.9417903999999453,0.9750427999999829,2.0001443999999537,,2.300275699999929,2.300275699999929,2.500068800000008,3.0833224999998947,0.7830467999999655,4.8417683000000125,2.5414926000000833,1.7584458000001177,0.47992,0.14752956054522576,0.009317656455487943,,,,None,,-0.1,-0.1,0.8098837860836012,0.8083333333333333,trial_list_0.8_red.csv,0.8084300999998959,0.8417491999998674,p3_high_01,001,2023-05-02_10h17.35.805,expectation_shapes_perceived_time,2022.2.4,120.03591474574317,
,-33,0.8,met,,red,green,,330.7528959196709,,,,,0,16,16,163,trial,,,,,,red,0.3307528959196709,0.3333333333333333,2.2995437000001857,0.9957554999998592,4e-05,4e-05,,0.3333716000001914,0.366711099999975,1.999984799999993,,2.2995437000001857,2.2995437000001857,2.499608900000112,2.4578773000000638,0.15833359999987806,3.216557899999998,0.9170141999998123,0.7586805999999342,0.14919,0.06677559601557126,0.13188180213075323,,,,None,,-0.033,-0.03333333333333333,0.2644228959196709,0.26666666666666666,trial_list_0.8_red.csv,0.26695860000018,0.3001776000000973,p3_high_01,001,2023-05-02_10h17.35.805,expectation_shapes_perceived_time,2022.2.4,120.03591474574317,
,-300,0.1999999999999999,unmet,,green,red,,525.3171928984102,,,,,0,17,17,84,trial,,,,,,green,0.5253171928984102,0.525,2.299557199999981,0.995862999999872,4e-05,4e-05,0.03334,0.5247306999999637,0.5579370000000381,1.999556900000016,2.0328511000000162,2.299557199999981,2.299557199999981,2.4997101999999813,2.941283999999996,0.6417268000000149,3.9333581999999296,1.6338009999999485,0.9920741999999336,0.25,0.1045270059757045,0.1045270059757045,,,,None,,-0.3,-0.3,0.19198719289841024,0.19166666666666665,trial_list_0.8_red.csv,0.1915168000000449,0.22479300000009061,p3_high_01,001,2023-05-02_10h17.35.805,expectation_shapes_perceived_time,2022.2.4,120.03591474574317,
,-100,0.8,met,,red,green,,1651.90900036867,,,,,0,18,18,261,trial,,,,,,red,1.6519090003686698,1.65,2.3002722000001086,0.9967068999999356,3e-05,3e-05,,1.650410600000214,1.6834796000000551,2.000060200000007,,2.3002722000001086,2.3002722000001086,2.500137800000175,5.458246300000155,3.1579741000000467,7.399925200000098,5.099652999999989,1.9416788999999426,1.4444,-0.14557416174768872,-0.02568955795547448,,,,None,,-0.1,-0.1,1.5185790003686699,1.5166666666666666,trial_list_0.8_red.csv,1.5168429000000287,1.5499639000001935,p3_high_01,001,2023-05-02_10h17.35.805,expectation_shapes_perceived_time,2022.2.4,120.03591474574317,
,100,0.8,met,,red,green,,1022.9212464111644,,,,,0,19,19,43,trial,,,,,,red,1.0229212464111643,1.025,2.3006991000002017,0.9961166000000503,2e-05,2e-05,,1.0255495000001247,1.0593305000002147,2.0006584000000203,,2.3006991000002017,2.3006991000002017,2.500545500000044,2.608703400000195,0.30800429999999324,3.3004339999999956,0.9997348999997939,0.6917305999998007,1.04085,-0.01891717224199767,-0.14660808487548194,,,,None,,0.1,0.1,1.1562512464111643,1.1583333333333332,trial_list_0.8_red.csv,1.1586017000001902,1.1920270000000528,p3_high_01,001,2023-05-02_10h17.35.805,expectation_shapes_perceived_time,2022.2.4,120.03591474574317,
,100,0.8,met,,red,green,,1262.566615076557,,,,,0,20,20,77,trial,,,,,,red,1.2625666150765569,1.2666666666666666,2.3002775000002202,0.996486300000015,3e-05,3e-05,,1.2669740000001184,1.3002810000000409,2.0002503000000615,,2.3002775000002202,2.3002775000002202,2.500363200000038,2.4417540000001736,0.14147649999995338,3.3833422000000155,1.0830646999997953,0.9415881999998419,1.69743,-0.12028893749926794,0.08592066964233425,,,,None,,0.1,0.1,1.3958966150765568,1.4,trial_list_0.8_red.csv,1.4001754000000801,1.4333612000000358,p3_high_01,001,2023-05-02_10h17.35.805,expectation_shapes_perceived_time,2022.2.4,120.03591474574317,
,167,0.8,met,,red,green,,1348.401644540604,,,,,0,21,21,395,trial,,,,,,red,1.348401644540604,1.35,2.2998477000001003,0.9973068000001604,3e-05,3e-05,0.0333,1.349572500000022,1.3828327000001082,1.9999255000000176,2.033216700000139,2.2998477000001003,2.2998477000001003,2.4999561000001904,3.0998272000001634,0.7999795000000631,4.016481399999975,1.7166336999998748,0.9166541999998117,1.4212,-0.1433167485793188,-0.036222914476091564,,,,None,,0.167,0.16666666666666666,1.5487316445406039,1.55,trial_list_0.8_red.csv,1.5497705000000224,1.5831010000001697,p3_high_01,001,2023-05-02_10h17.35.805,expectation_shapes_perceived_time,2022.2.4,120.03591474574317,
,-33,0.8,met,,red,green,,1211.828196576804,,,,,0,22,22,224,trial,,,,,,red,1.211828196576804,1.2083333333333333,2.299626499999931,0.9945106000000123,4e-05,4e-05,,1.2074694999998883,1.240843699999914,1.9997507000000496,,2.299626499999931,2.299626499999931,2.4998218999999153,3.7161266999999043,1.4165001999999731,7.474466399999983,5.174839900000052,3.7583397000000787,1.1094,-0.04981122323228085,-0.13917841785490237,,,,None,,-0.033,-0.03333333333333333,1.145498196576804,1.15,trial_list_0.8_red.csv,1.1492719000000307,1.1825352000000748,p3_high_01,001,2023-05-02_10h17.35.805,expectation_shapes_perceived_time,2022.2.4,120.03591474574317,
,300,0.1999999999999999,unmet,,green,red,,678.9592354015655,,,,,0,23,23,319,trial,,,,,,green,0.6789592354015654,0.675,2.299717399999963,0.9979707999998482,5e-05,5e-05,0.03358,0.6746908000000076,0.7080754999999499,1.9997028000000228,2.033149699999967,2.299717399999963,2.299717399999963,2.4996036999998523,2.9491886999999224,0.6494712999999592,4.1578462999998465,1.8581288999998833,1.208657599999924,0.87112,0.05823053316987949,-0.13587124406305215,,,,None,,0.3,0.3,1.0122892354015656,1.0166666666666666,trial_list_0.8_red.csv,1.016328799999883,1.0498399999999037,p3_high_01,001,2023-05-02_10h17.35.805,expectation_shapes_perceived_time,2022.2.4,120.03591474574317,
,100,0.8,met,,red,green,,1568.239731125289,,,,,0,24,24,88,trial,,,,,,red,1.568239731125289,1.5666666666666667,2.299780400000145,0.997655899999927,7e-05,7e-05,0.03335,1.5665561000000707,1.599850700000161,1.9998440000001665,2.0331462000001466,2.299780400000145,2.299780400000145,2.4993848999999955,3.1080742000001464,0.8082938000000013,4.708131200000025,2.40835079999988,1.6000569999998788,1.83389,-0.07368575096481059,0.12814913211271406,,,,None,,0.1,0.1,1.7015697311252889,1.7,trial_list_0.8_red.csv,1.6998009000001275,1.7334030000001803,p3_high_01,001,2023-05-02_10h17.35.805,expectation_shapes_perceived_time,2022.2.4,120.03591474574317,
,-167,0.8,met,,red,green,,744.8693757407905,0,0,0,0,0,25,25,482,fam,0.5647879000000557,0.5647879000000557,270.0,2.5645798999998988,2.5645798999998988,,,,,,,,,,,,,,,,,,,,,,,,,,,,,,,,,,,,p3_high_01,001,2023-05-02_10h17.35.805,expectation_shapes_perceived_time,2022.2.4,120.03591474574317,
,-167,0.8,met,,red,green,,744.8693757407905,1,0,1,0,0,25,25,482,fam,0.4974735000000692,0.4974735000000692,270.0,2.497373300000163,2.497373300000163,,,,,,,,,,,,,,,,,,,,,,,,,,,,,,,,,,,,p3_high_01,001,2023-05-02_10h17.35.805,expectation_shapes_perceived_time,2022.2.4,120.03591474574317,
,-167,0.8,met,,red,green,,744.8693757407905,2,0,2,0,0,25,25,482,fam,0.4971436000000722,0.4971436000000722,270.0,2.4974317000001065,2.4974317000001065,,,,,,,,,,,,,,,,,,,,,,,,,,,,,,,,,,,,p3_high_01,001,2023-05-02_10h17.35.805,expectation_shapes_perceived_time,2022.2.4,120.03591474574317,
,-167,0.8,met,,red,green,,744.8693757407905,3,0,3,0,0,25,25,482,fam,0.4977974000000813,0.4977974000000813,270.0,2.497802800000045,2.497802800000045,,,,,,,,,,,,,,,,,,,,,,,,,,,,,,,,,,,,p3_high_01,001,2023-05-02_10h17.35.805,expectation_shapes_perceived_time,2022.2.4,120.03591474574317,
,-167,0.8,met,,red,green,,744.8693757407905,,,,,0,25,25,482,trial,,,,,,red,0.7448693757407905,0.7416666666666667,2.300017900000057,0.998404599999958,4e-05,4e-05,0.03336,0.7412722999999914,0.7742898000001333,1.999985800000104,2.0330028000000766,2.300017900000057,2.300017900000057,2.5000735000000986,2.4506397000000106,0.1506217999999535,3.2913714999999684,0.9913535999999112,0.8407317999999577,0.56283,0.14495287681389743,-0.028990575362779485,,,,None,,-0.167,-0.16666666666666666,0.5445393757407905,0.5416666666666666,trial_list_0.8_red.csv,0.5415201000000707,0.5748435000000427,p3_high_01,001,2023-05-02_10h17.35.805,expectation_shapes_perceived_time,2022.2.4,120.03591474574317,
,-233,0.8,met,,red,green,,1603.537009072155,,,,,0,26,26,382,trial,,,,,,red,1.6035370090721548,1.6,2.300734299999931,0.9943914000000404,3e-05,3e-05,,1.5996652000001177,1.6329815000001418,2.0003802000001087,,2.300734299999931,2.300734299999931,2.500159599999961,2.3085000999999465,0.007765800000015588,3.200089299999945,0.8993550000000141,0.8915891999999985,1.33331,-0.12801256607804795,-0.07392274942535164,,,,None,,-0.233,-0.23333333333333334,1.337207009072155,1.3416666666666666,trial_list_0.8_red.csv,1.341854499999954,1.375296599999956,p3_high_01,001,2023-05-02_10h17.35.805,expectation_shapes_perceived_time,2022.2.4,120.03591474574317,
,33,0.8,met,,red,green,,341.9780433687534,,,,,0,27,27,0,trial,,,,,,red,0.34197804336875337,0.3416666666666667,2.299301499999956,0.9977002000000539,5e-05,5e-05,,0.3415890999999647,0.37468749999993634,1.9998275999998896,,2.299301499999956,2.299301499999956,2.4992479000000003,2.299301499999956,0.0,2.9663398999998662,0.6670383999999103,0.6670383999999103,0.13764,0.06194665047082311,0.13421774268678338,,,,None,,0.033,0.03333333333333333,0.40830804336875337,0.4083333333333333,trial_list_0.8_red.csv,0.4079975999998169,0.4413913999999295,p3_high_01,001,2023-05-02_10h17.35.805,expectation_shapes_perceived_time,2022.2.4,120.03591474574317,
,-167,0.1999999999999999,unmet,,green,red,,1325.7621416083157,,,,,0,28,28,446,trial,,,,,,green,1.3257621416083156,1.325,2.300057700000025,0.9971593000000212,4e-05,4e-05,0.03316,1.324848799999927,1.3581693999999516,2.000047099999847,2.033291599999984,2.300057700000025,2.300057700000025,2.4998884999999973,2.3915861999998924,0.09152849999986756,3.4660271000000193,1.1659693999999945,1.074440900000127,1.23398,-0.09913742439612697,-0.1096519997108677,,,,None,,-0.167,-0.16666666666666666,1.1254321416083157,1.125,trial_list_0.8_red.csv,1.1248156999999992,1.1583381000000372,p3_high_01,001,2023-05-02_10h17.35.805,expectation_shapes_perceived_time,2022.2.4,120.03591474574317,
,-233,0.8,met,,red,green,,603.0600157872705,,,,,0,29,29,195,trial,,,,,,red,0.6030600157872704,0.6,2.2995184999999765,0.9989216999999826,4e-05,4e-05,0.03299,0.5995081000000937,0.632747899999913,1.9995194999999057,2.0327970000000732,2.2995184999999765,2.2995184999999765,2.499599900000021,2.2995184999999765,0.0,2.916353000000072,0.6168345000000954,0.6168345000000954,0.25424,0.10591128547060538,0.10312414637927365,,,,None,,-0.233,-0.23333333333333334,0.33673001578727046,0.3333333333333333,trial_list_0.8_red.csv,0.33283239999991565,0.3661716999999953,p3_high_01,001,2023-05-02_10h17.35.805,expectation_shapes_perceived_time,2022.2.4,120.03591474574317,
,233,0.8,met,,red,green,,524.3777108851989,,,,,0,30,30,279,trial,,,,,,red,0.5243777108851989,0.525,2.3003525999999965,0.9961148999998386,3e-05,3e-05,,0.5253041999999368,0.5586637999999766,2.000418399999944,,2.3003525999999965,2.3003525999999965,2.5002938000000086,3.025276500000018,0.7249239000000216,6.066906499999959,3.7665538999999626,3.041629999999941,0.42439,0.14367278008305237,0.03478393623063373,,,,None,,0.233,0.23333333333333334,0.790707710885199,0.7916666666666666,trial_list_0.8_red.csv,0.7920140000001084,0.8254136000000472,p3_high_01,001,2023-05-02_10h17.35.805,expectation_shapes_perceived_time,2022.2.4,120.03591474574317,
,300,0.1999999999999999,unmet,,green,red,,1016.7533140346604,,,,,0,31,31,340,trial,,,,,,green,1.0167533140346605,1.0166666666666666,2.2998356000000513,0.9959741999998641,4e-05,4e-05,0.03336,1.0164998000000196,1.0498845000001893,1.9998738000001595,2.0332726999999977,2.2998356000000513,2.2998356000000513,2.5000215000000026,2.8500338000001193,0.550198200000068,3.624684200000047,1.3248485999999957,0.7746503999999277,0.28522,0.11543076785931652,0.0923446142874532,,,,None,,0.3,0.3,1.3500833140346604,1.35,trial_list_0.8_red.csv,1.3499025000000984,1.383313500000213,p3_high_01,001,2023-05-02_10h17.35.805,expectation_shapes_perceived_time,2022.2.4,120.03591474574317,
,-100,0.8,met,,red,green,,1785.0694796726866,,,,,0,32,32,31,trial,,,,,,red,1.7850694796726867,1.7833333333333332,2.3001586000000316,0.997571999999991,4e-05,4e-05,,1.7832190000001447,1.8168491999999787,1.9999761999999919,,2.3001586000000316,2.3001586000000316,2.500155599999971,2.90844119999997,0.6082825999999386,3.549398300000121,1.2492397000000892,0.6409571000001506,1.08903,-0.04080982999962306,-0.1420786674060951,,,,None,,-0.1,-0.1,1.6517394796726868,1.65,trial_list_0.8_red.csv,1.6499446000000262,1.6832805000001372,p3_high_01,001,2023-05-02_10h17.35.805,expectation_shapes_perceived_time,2022.2.4,120.03591474574317,
,-100,0.1999999999999999,unmet,,green,red,,416.8815631013277,,,,,0,33,33,153,trial,,,,,,green,0.4168815631013277,0.4166666666666667,2.300254399999858,0.990817300000117,4e-05,4e-05,0.03348,0.41657119999990755,0.4503632999999354,2.000044399999979,2.0333513999999013,2.300254399999858,2.300254399999858,2.4999194999998053,2.300254399999858,0.0,3.467071399999895,1.1668170000000373,1.1668170000000373,0.24036,0.10131301508411346,0.10764507852687052,,,,None,,-0.1,-0.1,0.2835515631013277,0.2833333333333333,trial_list_0.8_red.csv,0.2832637999999861,0.31696789999978137,p3_high_01,001,2023-05-02_10h17.35.805,expectation_shapes_perceived_time,2022.2.4,120.03591474574317,
,-100,0.8,met,,red,green,,1019.6329350332112,,,,,0,34,34,197,trial,,,,,,red,1.0196329350332112,1.0166666666666666,2.3000626999998985,0.9960464000000684,4e-05,4e-05,,1.0167604999999185,1.0501446999999189,1.999965199999906,,2.3000626999998985,2.3000626999998985,2.500095199999805,2.758331799999951,0.4582691000000523,3.4916860999999244,1.1916234000000259,0.7333542999999736,0.73073,0.11065893195225744,-0.09801219687199945,,,,None,,-0.1,-0.1,0.8863029350332111,0.8833333333333333,trial_list_0.8_red.csv,0.8832921999999144,0.9166292999998404,p3_high_01,001,2023-05-02_10h17.35.805,expectation_shapes_perceived_time,2022.2.4,120.03591474574317,
,-233,0.1999999999999999,unmet,,green,red,,1095.724460199106,,,,,0,35,35,449,trial,,,,,,green,1.095724460199106,1.1,2.3001725999999962,0.995294400000148,2e-05,2e-05,,1.1003396999999495,1.1338851000000432,2.000754800000095,,2.3001725999999962,2.3001725999999962,2.50045769999997,2.792068499999914,0.4918958999999177,3.8754065000000537,1.5752339000000575,1.0833380000001398,1.09525,-0.04357838546571324,-0.14125407702679466,,,,None,,-0.233,-0.23333333333333334,0.829394460199106,0.8333333333333334,trial_list_0.8_red.csv,0.833794399999988,0.8671537000000171,p3_high_01,001,2023-05-02_10h17.35.805,expectation_shapes_perceived_time,2022.2.4,120.03591474574317,
,-167,0.1999999999999999,unmet,,green,red,,535.3885746425675,,,,,0,36,36,424,trial,,,,,,green,0.5353885746425675,0.5333333333333333,2.3004375999998956,0.9961504999998851,2e-05,2e-05,0.03317,0.5337676999999985,0.5671439000000191,2.0003277000000708,2.0337131999999656,2.3004375999998956,2.3004375999998956,2.500377599999865,2.833882200000062,0.5334446000001662,4.983369399999901,2.6829318000000058,2.1494871999998395,0.2405,0.1013616468857929,0.10759928669414938,,,,None,,-0.167,-0.16666666666666666,0.3350585746425675,0.3333333333333333,trial_list_0.8_red.csv,0.33381159999999,0.3671538999999484,p3_high_01,001,2023-05-02_10h17.35.805,expectation_shapes_perceived_time,2022.2.4,120.03591474574317,
,167,0.8,met,,red,green,,780.7828190287634,,,,,0,37,37,93,trial,,,,,,red,0.7807828190287633,0.7833333333333333,2.299979399999984,0.9974835999998959,4e-05,4e-05,,0.7835599000000002,0.816751899999872,2.000107299999854,,2.299979399999984,2.299979399999984,2.500063599999976,3.0166229999999814,0.7166435999999976,5.824907999999823,3.524928599999839,2.8082849999998416,0.4616,0.14674939164463394,0.017787805047834414,,,,None,,0.167,0.16666666666666666,0.9811128190287633,0.9833333333333333,trial_list_0.8_red.csv,0.9835185999997975,1.0167467999999644,p3_high_01,001,2023-05-02_10h17.35.805,expectation_shapes_perceived_time,2022.2.4,120.03591474574317,
,-33,0.8,met,,red,green,,425.6267302511717,,,,,0,38,38,397,trial,,,,,,red,0.4256267302511717,0.425,2.299417200000107,0.9964651000000231,4e-05,4e-05,0.03322,0.42490909999992255,0.45825349999995524,2.0000230000000556,2.0334867999999915,2.299417200000107,2.299417200000107,2.4999502999999095,2.299417200000107,0.0,5.008198499999935,2.7087812999998278,2.7087812999998278,0.14035,0.06308745188844443,0.13368531471598938,,,,None,,-0.033,-0.03333333333333333,0.3592967302511717,0.35833333333333334,trial_list_0.8_red.csv,0.3585312000000158,0.39180160000000797,p3_high_01,001,2023-05-02_10h17.35.805,expectation_shapes_perceived_time,2022.2.4,120.03591474574317,
,233,0.8,met,,red,green,,302.307009543869,,,,,0,39,39,10,trial,,,,,,red,0.302307009543869,0.3,2.300119400000085,0.9959493000001203,4e-05,4e-05,0.03307,0.3000179999999091,0.3332018999999491,2.0000557000000754,2.0334232000000156,2.300119400000085,2.300119400000085,2.5000233000000662,2.766417600000068,0.4662981999999829,3.59989029999997,1.299770899999885,0.833472699999902,0.16525,0.07334099906011632,0.12834674835520357,,,,None,,0.233,0.23333333333333334,0.5686370095438691,0.5666666666666667,trial_list_0.8_red.csv,0.5664352999999664,0.5999707000000853,p3_high_01,001,2023-05-02_10h17.35.805,expectation_shapes_perceived_time,2022.2.4,120.03591474574317,
,300,0.8,met,,red,green,,151.81594375972577,,,,,0,40,40,354,trial,,,,,,red,0.15181594375972576,0.15,2.2999677000000247,0.9957996999999068,4e-05,4e-05,0.03322,0.1499412000000575,0.18330409999998665,1.9998289000000113,2.033104699999967,2.2999677000000247,2.2999677000000247,2.499822199999926,2.608147400000007,0.3081796999999824,3.9080979000000298,1.608130200000005,1.2999505000000227,0.21593,0.09276298965780025,0.11509482050134476,,,,None,,0.3,0.3,0.48514594375972575,0.48333333333333334,trial_list_0.8_red.csv,0.48316320000003543,0.5165285000000495,p3_high_01,001,2023-05-02_10h17.35.805,expectation_shapes_perceived_time,2022.2.4,120.03591474574317,
,-100,0.1999999999999999,unmet,,green,red,,1533.5639972836366,,,,,0,41,41,51,trial,,,,,,green,1.5335639972836366,1.5333333333333332,2.2997992000000522,0.9970319999999901,5e-05,5e-05,0.03292,1.533100599999898,1.5663142999999309,1.9990187999999307,,2.2997992000000522,2.2997992000000522,2.4997628000000987,2.7411976999999297,0.44139849999987746,3.7327033999999912,1.432904199999939,0.9915057000000616,1.75668,-0.10231161954093163,0.10669640323554297,,,,None,,-0.1,-0.1,1.4002339972836366,1.4,trial_list_0.8_red.csv,1.3994411999999556,1.4330846000000292,p3_high_01,001,2023-05-02_10h17.35.805,expectation_shapes_perceived_time,2022.2.4,120.03591474574317,
,-233,0.8,met,,red,green,,1353.1970179320358,,,,,0,42,42,371,trial,,,,,,red,1.3531970179320358,1.35,2.299576800000068,0.9975308000000496,3e-05,3e-05,0.03339,1.3500578000000587,1.3832735999999386,1.999818100000084,2.0330593999999564,2.299576800000068,2.299576800000068,2.500152099999923,3.1004719000000023,0.8008950999999342,3.9502328999999463,1.6506560999998783,0.849760999999944,1.56477,-0.14477341368207447,0.0298738790137614,,,,None,,-0.233,-0.23333333333333334,1.0868670179320359,1.0833333333333333,trial_list_0.8_red.csv,1.0833864999999605,1.1167963000000327,p3_high_01,001,2023-05-02_10h17.35.805,expectation_shapes_perceived_time,2022.2.4,120.03591474574317,
,-33,0.1999999999999999,unmet,,green,red,,960.8745039071256,,,,,0,43,43,75,trial,,,,,,green,0.9608745039071256,0.9583333333333334,2.2993922999999086,0.9973988000001555,4e-05,4e-05,0.03322,0.9582034999998541,0.9916160999998738,1.9995304999999917,2.032764199999974,2.2993922999999086,2.2993922999999086,2.500243199999886,2.2993922999999086,0.0,4.216274499999827,1.9168821999999182,1.9168821999999182,0.94849,0.02381908278571363,-0.14589188206249598,,,,None,,-0.033,-0.03333333333333333,0.8945445039071256,0.8916666666666666,trial_list_0.8_red.csv,0.891565700000001,0.9249545999998645,p3_high_01,001,2023-05-02_10h17.35.805,expectation_shapes_perceived_time,2022.2.4,120.03591474574317,
,233,0.8,met,,red,green,,702.9118900164467,,,,,0,44,44,364,trial,,,,,,red,0.7029118900164467,0.7,2.299864200000002,0.9976082999999107,4e-05,4e-05,,0.7001482000000578,0.7333404000000883,1.9995618000000377,,2.299864200000002,2.299864200000002,2.500057500000139,3.2082268000001477,0.9083626000001459,4.5416327000000365,2.2417685000000347,1.3334058999998888,1.339,-0.12931472832377142,-0.0716204649177811,,,,None,,0.233,0.23333333333333334,0.9692418900164468,0.9666666666666667,trial_list_0.8_red.csv,0.9666677000000163,0.9999645000000328,p3_high_01,001,2023-05-02_10h17.35.805,expectation_shapes_perceived_time,2022.2.4,120.03591474574317,
,-33,0.1999999999999999,unmet,,green,red,,1477.4336047305617,,,,,0,45,45,18,trial,,,,,,green,1.4774336047305616,1.475,2.299954800000023,0.996448300000111,3e-05,3e-05,0.03315,1.474344500000143,1.5077817000001232,1.99985300000003,2.0334567000002153,2.299954800000023,2.299954800000023,2.4999480000001313,2.774739400000044,0.4747846000000209,3.641585900000109,1.341631100000086,0.8668465000000651,1.71272,-0.1160241249355179,0.09159799337014572,,,,None,,-0.033,-0.03333333333333333,1.4111036047305618,1.4083333333333332,trial_list_0.8_red.csv,1.4076561000001675,1.4411364000000049,p3_high_01,001,2023-05-02_10h17.35.805,expectation_shapes_perceived_time,2022.2.4,120.03591474574317,
,167,0.8,met,,red,green,,1590.8786794295606,,,,,0,46,46,262,trial,,,,,,red,1.5908786794295606,1.5916666666666666,2.29985889999989,0.997258200000033,3e-05,3e-05,0.03334,1.5915621999999985,1.624959600000011,1.999600800000053,2.0333322999999837,2.29985889999989,2.29985889999989,2.5000804999999673,3.0333009999999376,0.7334421000000475,4.750169099999994,2.4503102000001036,1.716868100000056,1.79811,-0.08759536186717576,0.11907494503819205,,,,None,,0.167,0.16666666666666666,1.7912086794295605,1.7916666666666667,trial_list_0.8_red.csv,1.7912286000000677,1.8246612000000368,p3_high_01,001,2023-05-02_10h17.35.805,expectation_shapes_perceived_time,2022.2.4,120.03591474574317,
,-233,0.8,met,,red,green,,1373.4383425201154,,,,,0,47,47,26,trial,,,,,,red,1.3734383425201153,1.375,2.2999525000000176,0.9958475999999337,4e-05,4e-05,0.0333,1.3748063000000457,1.4084680000000844,1.9999841000001197,2.0334599000000253,2.2999525000000176,2.2999525000000176,2.500011500000028,2.9000817000001007,0.6001292000000831,4.525078800000074,2.2251263000000563,1.6249970999999732,1.55579,-0.1455588719070332,0.02577605023353713,,,,None,,-0.233,-0.23333333333333334,1.1071083425201154,1.1083333333333334,trial_list_0.8_red.csv,1.10779360000015,1.1411482000000888,p3_high_01,001,2023-05-02_10h17.35.805,expectation_shapes_perceived_time,2022.2.4,120.03591474574317,
,-300,0.8,met,,red,green,,979.1756189764586,,,,,0,48,48,87,trial,,,,,,red,0.9791756189764587,0.9833333333333333,2.299892600000021,0.9958659000001262,4e-05,4e-05,,0.9830686000000242,1.0164269000001696,1.9996393000001262,,2.299892600000021,2.299892600000021,2.499814100000094,2.666699100000187,0.3668065000001661,4.658232800000178,2.358340200000157,1.9915336999999909,1.17202,-0.07605456818248199,-0.12675761363746998,,,,None,,-0.3,-0.3,0.6458456189764585,0.65,trial_list_0.8_red.csv,0.6494171000001643,0.6828129000000445,p3_high_01,001,2023-05-02_10h17.35.805,expectation_shapes_perceived_time,2022.2.4,120.03591474574317,
,-33,0.8,met,,red,green,,893.926198641211,,,,,0,49,49,186,trial,,,,,,red,0.893926198641211,0.8916666666666666,2.3005279999999857,0.9958702999999787,3e-05,3e-05,0.03331,0.8922559000000092,0.925446299999976,2.000488199999836,2.033842800000002,2.3005279999999857,2.3005279999999857,2.50047440000003,3.6004134999998314,1.2998854999998457,5.242271800000026,2.94174380000004,1.6418583000001945,0.93797,0.028623514327203642,-0.14502580592449846,,,,None,,-0.033,-0.03333333333333333,0.827596198641211,0.825,trial_list_0.8_red.csv,0.8255629000000226,0.8590841000000182,p3_high_01,001,2023-05-02_10h17.35.805,expectation_shapes_perceived_time,2022.2.4,120.03591474574317,
,-233,0.8,met,,red,green,,917.9788727684912,0,0,0,0,0,50,50,289,fam,0.5566710999999032,0.5566710999999032,270.0,2.5567323000000215,2.5567323000000215,,,,,,,,,,,,,,,,,,,,,,,,,,,,,,,,,,,,p3_high_01,001,2023-05-02_10h17.35.805,expectation_shapes_perceived_time,2022.2.4,120.03591474574317,
,-233,0.8,met,,red,green,,917.9788727684912,1,0,1,0,0,50,50,289,fam,0.4974706000000424,0.4974706000000424,270.0,2.4976905000000897,2.4976905000000897,,,,,,,,,,,,,,,,,,,,,,,,,,,,,,,,,,,,p3_high_01,001,2023-05-02_10h17.35.805,expectation_shapes_perceived_time,2022.2.4,120.03591474574317,
,-233,0.8,met,,red,green,,917.9788727684912,2,0,2,0,0,50,50,289,fam,0.49697680000008404,0.49697680000008404,270.0,2.497224899999992,2.497224899999992,,,,,,,,,,,,,,,,,,,,,,,,,,,,,,,,,,,,p3_high_01,001,2023-05-02_10h17.35.805,expectation_shapes_perceived_time,2022.2.4,120.03591474574317,
,-233,0.8,met,,red,green,,917.9788727684912,3,0,3,0,0,50,50,289,fam,0.4977861000002122,0.4977861000002122,270.0,2.4976440000000366,2.4976440000000366,,,,,,,,,,,,,,,,,,,,,,,,,,,,,,,,,,,,p3_high_01,001,2023-05-02_10h17.35.805,expectation_shapes_perceived_time,2022.2.4,120.03591474574317,
,-233,0.8,met,,red,green,,917.9788727684912,,,,,0,50,50,289,trial,,,,,,red,0.9179788727684912,0.9166666666666666,2.3078436000000693,0.9982381999998324,6e-05,6e-05,0.03303,0.9248100999998314,0.957992699999977,1.9999753000001874,,2.3078436000000693,2.3078436000000693,2.5079412999998567,2.4578160000000935,0.1499724000000242,3.832901700000093,1.5250581000000238,1.3750856999999996,0.59277,0.14158924295846204,-0.04247677288753861,,,,None,,-0.233,-0.23333333333333334,0.6516488727684911,0.65,trial_list_0.8_red.csv,0.658053000000109,0.6915487999999641,p3_high_01,001,2023-05-02_10h17.35.805,expectation_shapes_perceived_time,2022.2.4,120.03591474574317,
,300,0.8,met,,red,green,,360.78889433014433,,,,,0,51,51,377,trial,,,,,,red,0.3607888943301443,0.35833333333333334,2.3002489000000423,0.9952289000002565,3e-05,3e-05,0.0333,0.3583627999996679,0.39168289999997796,2.000344000000041,2.033430899999985,2.3002489000000423,2.3002489000000423,2.5003373999998075,2.8585651999997026,0.5583162999996603,3.591316900000038,1.2910679999999957,0.7327517000003354,0.43411,0.14466799443756262,0.030380278831888152,,,,None,,0.3,0.3,0.6941188943301444,0.6916666666666667,trial_list_0.8_red.csv,0.6916604999996707,0.7249090000000251,p3_high_01,001,2023-05-02_10h17.35.805,expectation_shapes_perceived_time,2022.2.4,120.03591474574317,
,-167,0.8,met,,red,green,,657.3450252102773,,,,,0,52,52,221,trial,,,,,,red,0.6573450252102773,0.6583333333333333,2.299893500000053,0.9989885999998478,4e-05,4e-05,0.03348,0.6584622000000309,0.6915591000001768,2.0001298000001952,2.0333221000000776,2.299893500000053,2.299893500000053,2.5000629000001027,2.683517700000266,0.383624200000213,3.4497338000001037,1.1498403000000508,0.7662160999998378,0.7687,0.09820859423082867,-0.11048466850968224,,,,None,,-0.167,-0.16666666666666666,0.4570150252102773,0.4583333333333333,trial_list_0.8_red.csv,0.4583452000001671,0.4915949000001092,p3_high_01,001,2023-05-02_10h17.35.805,expectation_shapes_perceived_time,2022.2.4,120.03591474574317,
,167,0.1999999999999999,unmet,,green,red,,1320.9440913484923,,,,,0,53,53,498,trial,,,,,,green,1.3209440913484922,1.325,2.299972599999819,0.9976916000000529,4e-05,4e-05,0.03315,1.3250304999996843,1.358318600000075,1.9995483999996395,2.0328503000000637,2.299972599999819,2.299972599999819,2.49994979999974,2.8914770999999746,0.5915045000001555,3.674771999999848,1.374799400000029,0.7832948999998735,0.53354,0.14700352265936087,-0.015548449512047785,,,,None,,0.167,0.16666666666666666,1.5212740913484921,1.525,trial_list_0.8_red.csv,1.5248554999998305,1.558301499999743,p3_high_01,001,2023-05-02_10h17.35.805,expectation_shapes_perceived_time,2022.2.4,120.03591474574317,
,167,0.1999999999999999,unmet,,green,red,,1355.429396117252,,,,,0,54,54,223,trial,,,,,,green,1.355429396117252,1.3583333333333334,2.30036199999995,0.9961868999998842,1e-05,1e-05,,1.3587017999998352,1.392074699999739,2.000369299999875,,2.30036199999995,2.30036199999995,2.5003075999998146,3.333786599999712,1.033424599999762,4.550372499999867,2.2500104999999166,1.2165859000001547,1.65238,-0.13120584450673597,0.06809417246552121,,,,None,,0.167,0.16666666666666666,1.555759396117252,1.5583333333333333,trial_list_0.8_red.csv,1.5586146000000554,1.5920001999998021,p3_high_01,001,2023-05-02_10h17.35.805,expectation_shapes_perceived_time,2022.2.4,120.03591474574317,
,33,0.8,met,,red,green,,602.1881318608087,,,,,0,55,55,235,trial,,,,,,red,0.6021881318608087,0.6,2.3001844000000347,0.9964893999999731,4e-05,4e-05,,0.59996000000001,0.6332254999997531,1.9999301999996533,,2.3001844000000347,2.3001844000000347,2.4999422999999297,2.641502099999798,0.34131769999976314,3.433339199999864,1.1331547999998293,0.7918371000000661,0.38977,0.13904869425408023,0.05017220926693616,,,,None,,0.033,0.03333333333333333,0.6685181318608087,0.6666666666666666,trial_list_0.8_red.csv,0.6668540999999095,0.6999521999996432,p3_high_01,001,2023-05-02_10h17.35.805,expectation_shapes_perceived_time,2022.2.4,120.03591474574317,
,300,0.1999999999999999,unmet,,green,red,,741.0890232995196,,,,,0,56,56,298,trial,,,,,,green,0.7410890232995195,0.7416666666666667,2.300568900000144,0.995852499999728,1e-05,1e-05,0.03337,0.74228549999998,0.7756737999998222,2.000747600000068,2.0337869999998475,2.300568900000144,2.300568900000144,2.5007942000002004,2.6587248999999247,0.35815599999978076,3.6503474999999526,1.3497785999998086,0.9916226000000279,0.57638,0.14358777684362373,-0.035133179440461126,,,,None,,0.3,0.3,1.0744190232995194,1.075,trial_list_0.8_red.csv,1.0753255999998146,1.1089013999999224,p3_high_01,001,2023-05-02_10h17.35.805,expectation_shapes_perceived_time,2022.2.4,120.03591474574317,
,100,0.8,met,,red,green,,1496.8640377091945,,,,,0,57,57,263,trial,,,,,,red,1.4968640377091944,1.5,2.300366899999972,0.9972826000002897,3e-05,3e-05,0.03318,1.5001382000000376,1.5336124000000382,2.0003160000001117,2.0338505999998233,2.300366899999972,2.300366899999972,2.5002181999998356,2.4088677999998254,0.10850089999985357,3.541842000000088,1.241475100000116,1.1329742000002625,0.98013,0.00922097717512429,-0.14753563480198864,,,,None,,0.1,0.1,1.6301940377091944,1.6333333333333333,trial_list_0.8_red.csv,1.6336962999998832,1.6668869999998606,p3_high_01,001,2023-05-02_10h17.35.805,expectation_shapes_perceived_time,2022.2.4,120.03591474574317,
,233,0.8,met,,red,green,,1310.5463424228674,,,,,0,58,58,122,trial,,,,,,red,1.3105463424228674,1.3083333333333333,2.300305599999774,0.9956578999999692,4e-05,4e-05,0.03347,1.3083129999999983,1.3417254000000867,2.0001115000000027,2.0333862000002227,2.300305599999774,2.300305599999774,2.5001406999999745,2.7840910999998414,0.48378550000006726,3.7748240999999325,1.4745185000001584,0.9907330000000911,0.85826,0.0636719590733549,-0.13340791424893406,,,,None,,0.233,0.23333333333333334,1.5768763424228673,1.575,trial_list_0.8_red.csv,1.5750913000001674,1.608451099999911,p3_high_01,001,2023-05-02_10h17.35.805,expectation_shapes_perceived_time,2022.2.4,120.03591474574317,
,-33,0.8,met,,red,green,,1726.311605937134,,,,,0,59,59,137,trial,,,,,,red,1.726311605937134,1.7249999999999999,2.300258600000234,0.9973903000000064,3e-05,3e-05,,1.7251988000002711,1.75852470000018,2.0000153999999384,,2.300258600000234,2.300258600000234,2.5000339000002896,2.300258600000234,0.0,3.5331740999999965,1.2329154999997627,1.2329154999997627,1.34579,-0.13081171723981624,-0.06884827223148224,,,,None,,-0.033,-0.03333333333333333,1.659981605937134,1.6583333333333332,trial_list_0.8_red.csv,1.6582585999999537,1.6920390000000225,p3_high_01,001,2023-05-02_10h17.35.805,expectation_shapes_perceived_time,2022.2.4,120.03591474574317,
,233,0.8,met,,red,green,,1412.581152002282,,,,,0,60,60,309,trial,,,,,,red,1.412581152002282,1.4166666666666667,2.2999016000003394,0.9977669999998398,4e-05,4e-05,0.03339,1.4161591000001863,1.4495111000001089,2.0000560000003134,2.033383599999979,2.2999016000003394,2.2999016000003394,2.499887100000251,2.375116600000183,0.07521499999984371,3.316606600000341,1.0167050000000017,0.941490000000158,0.97949,0.009517214282304199,-0.1475168213757151,,,,None,,0.233,0.23333333333333334,1.678911152002282,1.6833333333333333,trial_list_0.8_red.csv,1.683422900000096,1.7166197999999895,p3_high_01,001,2023-05-02_10h17.35.805,expectation_shapes_perceived_time,2022.2.4,120.03591474574317,
,300,0.8,met,,red,green,,687.9292414236186,,,,,0,61,61,240,trial,,,,,,red,0.6879292414236186,0.6916666666666667,2.2996978000001036,0.9960303000002568,3e-05,3e-05,,0.6914166000001387,0.7250271000002613,1.9993004000002657,,2.2996978000001036,2.2996978000001036,2.4996601000002556,2.4662191000002167,0.16652130000011311,3.816552700000102,1.5168548999999985,1.3503335999998853,0.82917,0.07558106585935555,-0.127040514955087,,,,None,,0.3,0.3,1.0212592414236186,1.025,trial_list_0.8_red.csv,1.024720900000375,1.0582358999999997,p3_high_01,001,2023-05-02_10h17.35.805,expectation_shapes_perceived_time,2022.2.4,120.03591474574317,
,-167,0.8,met,,red,green,,1569.952244604919,,,,,0,62,62,431,trial,,,,,,red,1.569952244604919,1.5666666666666667,2.299310900000364,0.9957201000001987,4e-05,4e-05,0.03308,1.5663360000003195,1.6000950000002376,1.9997670000002472,2.0329687000003105,2.299310900000364,2.299310900000364,2.499798600000304,2.6747402000000875,0.3754292999997233,3.3577194000004056,1.0584085000000414,0.6829792000003181,1.24248,-0.1020294018121682,-0.10696630835146667,,,,None,,-0.167,-0.16666666666666666,1.369622244604919,1.3666666666666667,trial_list_0.8_red.csv,1.3664581000002727,1.3999708000001192,p3_high_01,001,2023-05-02_10h17.35.805,expectation_shapes_perceived_time,2022.2.4,120.03591474574317,
