id,delay,expectation,congruency,trial_num,stim_color,distractor_color,block,targetTimeMs,famLoop.thisRepN,famLoop.thisTrialN,famLoop.thisN,famLoop.thisIndex,trialss.thisRepN,trialss.thisTrialN,trialss.thisN,trialss.thisIndex,isTrial,handMove.started,audioCue2Start.started,handOri,handMove.ended,audioCue2End.started,target_color,expected_target_onset,expected_target_onset_in_frames,fixationPoint.started,fixationPoint.stopped,audCueStart.started,placeholder.started,audCueStart.stopped,target.started,target.stopped,audCueEnd.started,audCueEnd.stopped,responsePointer.started,cueForRep.started,responseStarted,rtUntillMotionTreshold,space2pass.started,responsePointer.stopped,rTAfterMotionTreshold,rtDurationBtwRespMotion,perceivedTime,resp_x_coord,resp_y_coord,feedbackPointer.stopped,actualTime_x_coord,actualTime_y_coord,space2pass.keys,space2pass.rt,expected_delay,expected_delays_frame,expected_distractor,expected_distractor_frame,expBlockFiles,distractor.started,distractor.stopped,participant,session,date,expName,psychopyVersion,frameRate,
,,,,,,,,,0,0,0,0,,,,,fam,1.1901535000069998,1.1901535000069998,270.0,3.1907740000169724,3.1907740000169724,,,,,,,,,,,,,,,,,,,,,,,,,,,,,,,,,,,,p12_high_01,001,2023-05-10_11h33.37.701,expectation_shapes_perceived_time,2022.2.4,119.94348267536306,
,,,,,,,,,1,0,1,0,,,,,fam,0.4983581999549642,0.4983581999549642,270.0,2.4982394999824464,2.4982394999824464,,,,,,,,,,,,,,,,,,,,,,,,,,,,,,,,,,,,p12_high_01,001,2023-05-10_11h33.37.701,expectation_shapes_perceived_time,2022.2.4,119.94348267536306,
,,,,,,,,,2,0,2,0,,,,,fam,0.49827710003592074,0.49827710003592074,270.0,2.4985832000384107,2.4985832000384107,,,,,,,,,,,,,,,,,,,,,,,,,,,,,,,,,,,,p12_high_01,001,2023-05-10_11h33.37.701,expectation_shapes_perceived_time,2022.2.4,119.94348267536306,
,,,,,,,,,3,0,3,0,,,,,fam,0.49898179998854175,0.49898179998854175,270.0,2.499377000029199,2.499377000029199,,,,,,,,,,,,,,,,,,,,,,,,,,,,,,,,,,,,p12_high_01,001,2023-05-10_11h33.37.701,expectation_shapes_perceived_time,2022.2.4,119.94348267536306,
,,,,,,,,,4,0,4,0,,,,,fam,0.4990277000470087,0.4990277000470087,270.0,2.4986560000106692,2.4986560000106692,,,,,,,,,,,,,,,,,,,,,,,,,,,,,,,,,,,,p12_high_01,001,2023-05-10_11h33.37.701,expectation_shapes_perceived_time,2022.2.4,119.94348267536306,
,,,,,,,,,,,,,0,0,0,0,test,,,,,,red,0.7565838266629322,0.7583333333333333,2.3001892000320368,0.9979058000026271,1.4099990949034691e-05,1e-05,0.033877499983645976,0.7585931000066921,0.792062500026077,1.9999844999983907,2.0333175000268966,2.3001892000320368,2.3001892000320368,2.3164858000236563,0.016296599991619587,2.6004319000057876,10.424824599991553,8.124635399959516,8.108338799967896,1.76097,-0.1008626783539464,0.10806715537922829,10.424824599991553,0.10234279640121993,-0.10666649887039684,space,7.822097999975085,,,,,,,,p12_high_01,001,2023-05-10_11h33.37.701,expectation_shapes_perceived_time,2022.2.4,119.94348267536306,
,,,,,,,,,,,,,1,0,1,0,test,,,,,,green,0.4483301915002847,0.45,2.3000170000013895,0.9982687999727204,1.4099990949034691e-05,1e-05,0.03319580003153533,0.44989740004530177,0.483268300013151,1.9999794000177644,2.033481299993582,2.3000170000013895,2.3000170000013895,2.3166758000152186,0.016658800013829023,2.5999367000185885,7.558287599997129,5.25827059999574,5.241611799981911,0.84618,0.06868797767665197,-0.13089595745928018,7.558287599997129,0.1458802395560945,0.023890283873290515,space,4.9506784999975935,,,,,,,,p12_high_01,001,2023-05-10_11h33.37.701,expectation_shapes_perceived_time,2022.2.4,119.94348267536306,
,,,,,,,,,,,,,2,0,2,0,test,,,,,,red,0.6571955268907794,0.6583333333333333,2.299963800003752,0.9909041000064462,1.4299992471933365e-05,1e-05,0.032845099980477244,0.6580120000289753,0.6916513000032865,1.9997940000030212,2.033062100003008,2.299963800003752,2.299963800003752,2.7412424000212923,0.44127860001754016,2.5996548000257462,7.3330721000093035,5.033108300005551,4.591829699988011,0.52619,0.14732331218502107,-0.01215037626268215,7.3330721000093035,0.13016112939538768,-0.07007046703859669,space,4.727605799969751,,,,,,,,p12_high_01,001,2023-05-10_11h33.37.701,expectation_shapes_perceived_time,2022.2.4,119.94348267536306,
,,,,,,,,,,,,,3,0,3,0,test,,,,,,red,1.4627208427674936,1.4583333333333333,2.2999024000018835,0.9984987999778241,1.4099990949034691e-05,1e-05,,1.4586140000028536,1.4916135999956168,2.000105400045868,,2.2999024000018835,2.2999024000018835,2.2999024000018835,0.0,2.59986580000259,5.491573300037999,3.191670900036115,3.191670900036115,1.8147,-0.08127494417279243,0.12347539595481927,5.491573300037999,-0.14681088372906284,-0.017272937653494833,space,2.890672200010158,,,,,,,,p12_high_01,001,2023-05-10_11h33.37.701,expectation_shapes_perceived_time,2022.2.4,119.94348267536306,
,,,,,,,,,,,,,4,0,4,0,test,,,,,,red,1.1096623673678405,1.1083333333333334,2.2998390999855474,0.9984774999902584,1.6600009985268116e-05,2e-05,0.03299039998091757,1.1081794000347145,1.1414024999830872,1.9999277000315487,2.03304670000216,2.2998390999855474,2.2998390999855474,2.2998390999855474,0.0,2.5998131000087596,5.274646900012158,2.9748078000266105,2.9748078000266105,1.65554,-0.13052386693592385,0.06939243558618738,5.274646900012158,-0.04992587272753786,-0.13913733211788853,space,2.6710543000372127,,,,,,,,p12_high_01,001,2023-05-10_11h33.37.701,expectation_shapes_perceived_time,2022.2.4,119.94348267536306,
,,,,,,,,,0,0,0,0,0,-1,-1,0,fam,0.5554555999697186,0.5554555999697186,270.0,2.555471099971328,2.555471099971328,,,,,,,,,,,,,,,,,,,,,,,,,,,,,,,,,,,,p12_high_01,001,2023-05-10_11h33.37.701,expectation_shapes_perceived_time,2022.2.4,119.94348267536306,
,,,,,,,,,1,0,1,0,0,-1,-1,0,fam,0.4989468999556266,0.4989468999556266,270.0,2.4988545999513008,2.4988545999513008,,,,,,,,,,,,,,,,,,,,,,,,,,,,,,,,,,,,p12_high_01,001,2023-05-10_11h33.37.701,expectation_shapes_perceived_time,2022.2.4,119.94348267536306,
,,,,,,,,,2,0,2,0,0,-1,-1,0,fam,0.49888289999216795,0.49888289999216795,270.0,2.498461600043811,2.498461600043811,,,,,,,,,,,,,,,,,,,,,,,,,,,,,,,,,,,,p12_high_01,001,2023-05-10_11h33.37.701,expectation_shapes_perceived_time,2022.2.4,119.94348267536306,
,,,,,,,,,3,0,3,0,0,-1,-1,0,fam,0.49876689998200163,0.49876689998200163,270.0,2.4986708000069484,2.4986708000069484,,,,,,,,,,,,,,,,,,,,,,,,,,,,,,,,,,,,p12_high_01,001,2023-05-10_11h33.37.701,expectation_shapes_perceived_time,2022.2.4,119.94348267536306,
1,500,0.5,none,33,green,red,no_Expectation,,,,,,0,0,0,7,train_doubleStim,,,,,,green,0.4596175071422479,0.4583333333333333,2.2999074999825098,0.9988848000066355,1e-05,1e-05,0.03306,0.45859489997383207,0.4920863999868743,1.9997820999706164,2.03327299997909,2.2999074999825098,2.2999074999825098,3.433562799997162,1.1336553000146523,2.500126699975226,5.650089300004765,3.3501818000222556,2.2165265000076033,0.86915,0.05906811919944627,-0.1355092146340238,,,,None,,0.5,0.5,0.9929475071422479,0.9916666666666667,training_double_stim.csv,0.991468199994415,1.0247524000005797,p12_high_01,001,2023-05-10_11h33.37.701,expectation_shapes_perceived_time,2022.2.4,119.94348267536306,
1,500,0.5,none,60,red,green,no_Expectation,,,,,,0,1,1,8,train_doubleStim,,,,,,red,0.6339699417449454,0.6333333333333333,2.2997962000081316,0.9970181999960914,6e-05,6e-05,0.0332,0.6329612000263296,0.6660950999939814,1.9994633999885991,2.033033500018064,2.2997962000081316,2.2997962000081316,2.51629610004602,0.21649990003788844,2.499443100008648,4.741174100025091,2.4413779000169598,2.2248779999790713,0.57551,0.14368417568485187,-0.0347368336820521,,,,None,,0.5,0.5,1.1672999417449452,1.1666666666666667,training_double_stim.csv,1.1662832000292838,1.1993666000198573,p12_high_01,001,2023-05-10_11h33.37.701,expectation_shapes_perceived_time,2022.2.4,119.94348267536306,
1,500,0.5,none,88,red,green,no_Expectation,,,,,,0,2,2,9,train_doubleStim,,,,,,red,0.572449761307126,0.575,2.3000878000166267,0.9970165000413544,2e-05,2e-05,,0.5749514999915846,0.6083462000242434,2.000255200022366,,2.3000878000166267,2.3000878000166267,2.5335253000375815,0.23343750002095476,2.5000744000426494,3.3917447000276297,1.091656900011003,0.8582193999900483,0.60242,0.14023769450772117,-0.046745898169240394,,,,None,,0.5,0.5,1.1057797613071259,1.1083333333333334,training_double_stim.csv,1.1086004000389948,1.141427399998065,p12_high_01,001,2023-05-10_11h33.37.701,expectation_shapes_perceived_time,2022.2.4,119.94348267536306,
1,500,0.5,none,25,green,red,no_Expectation,,,,,,0,3,3,6,train_doubleStim,,,,,,green,0.753589881228207,0.75,2.3002049999777228,0.9975031000212766,2e-05,2e-05,,0.7504767999635078,0.7838044999516569,2.0002788999699987,,2.3002049999777228,2.3002049999777228,2.3002049999777228,0.0,2.500218599976506,8.875346299959347,6.575141299981624,6.575141299981624,0.86818,0.059484395205691834,-0.1353269990929489,,,,None,,0.5,0.5,1.286919881228207,1.2833333333333332,training_double_stim.csv,1.2835338999866508,1.316830999974627,p12_high_01,001,2023-05-10_11h33.37.701,expectation_shapes_perceived_time,2022.2.4,119.94348267536306,
1,-500,0.5,none,59,green,red,no_Expectation,,,,,,0,4,4,0,train_doubleStim,,,,,,green,0.7423598145684396,0.7416666666666667,2.29941710003186,0.9979760000132956,0.00012,0.00012,0.03275,0.7411042000167072,0.7745326000149362,1.9995246000471525,2.0328941000043415,2.29941710003186,2.29941710003186,2.3494036000338383,0.04998650000197813,2.499422200024128,4.249712300021201,1.9502951999893412,1.900308699987363,0.28265,0.11468110891255831,0.0932739685822141,,,,None,,-0.5,-0.5,0.20902981456843958,0.20833333333333334,training_double_stim.csv,0.2083214000449516,0.24132180004380643,p12_high_01,001,2023-05-10_11h33.37.701,expectation_shapes_perceived_time,2022.2.4,119.94348267536306,
1,-500,0.5,none,23,green,red,no_Expectation,,,,,,0,5,5,2,train_doubleStim,,,,,,green,1.1457081062992533,1.1416666666666666,2.300223400001414,0.9974600000423379,2e-05,2e-05,0.03331,1.1416437999578193,1.175175299984403,1.9999597999849357,2.0332373999990523,2.300223400001414,2.300223400001414,2.300223400001414,0.0,2.4998733999673277,3.9002845999784768,1.6000611999770626,1.6000611999770626,0.75232,0.10376127099977886,-0.10528717204389323,,,,None,,-0.5,-0.5,0.6123781062992533,0.6083333333333333,training_double_stim.csv,0.6082131000002846,0.6416777999838814,p12_high_01,001,2023-05-10_11h33.37.701,expectation_shapes_perceived_time,2022.2.4,119.94348267536306,
1,-500,0.5,none,77,green,red,no_Expectation,,,,,,0,6,6,1,train_doubleStim,,,,,,green,1.1680469986186546,1.1666666666666667,2.2993663999950513,0.9984390999889001,0.0001,0.0001,0.0326,1.1661961000063457,1.199569899996277,1.999520700017456,2.032629400026053,2.2993663999950513,2.2993663999950513,2.2993663999950513,0.0,2.4993075000238605,5.249583800032269,2.950217400037218,2.950217400037218,0.98538,0.006789311069574834,-0.14766751576325265,,,,None,,-0.5,-0.5,0.6347169986186544,0.6333333333333333,training_double_stim.csv,0.63273010001285,0.6661313000367954,p12_high_01,001,2023-05-10_11h33.37.701,expectation_shapes_perceived_time,2022.2.4,119.94348267536306,
1,500,0.5,none,98,red,green,no_Expectation,,,,,,0,7,7,5,train_doubleStim,,,,,,red,0.2952798338562568,0.2916666666666667,2.299551900010556,0.9980158000253141,1e-05,1e-05,0.03335,0.2913120000157505,0.32448589999694377,1.9995174999930896,2.0331866000196896,2.299551900010556,2.299551900010556,2.299551900010556,0.0,2.499673200014513,4.558078700036276,2.25852680002572,2.25852680002572,0.17877,0.07872503835198218,0.12511657880940025,,,,None,,0.5,0.5,0.8286098338562569,0.825,training_double_stim.csv,0.8244196000159718,0.8577693999977782,p12_high_01,001,2023-05-10_11h33.37.701,expectation_shapes_perceived_time,2022.2.4,119.94348267536306,
1,-500,0.5,none,68,red,green,no_Expectation,,,,,,0,8,8,3,train_doubleStim,,,,,,red,1.1046910990455043,1.1083333333333334,2.2994932000292465,0.9974783000070602,1e-05,1e-05,0.03327,1.1080611000070348,1.1413809999939986,2.000043599982746,2.032813699974213,2.2994932000292465,2.2994932000292465,2.2994932000292465,0.0,2.4994945999933407,3.9079000999918208,1.6084068999625742,1.6084068999625742,0.31107,0.1225404329466769,0.08267788247004704,,,,None,,-0.5,-0.5,0.5713610990455044,0.575,training_double_stim.csv,0.5745587000274099,0.6084705999819562,p12_high_01,001,2023-05-10_11h33.37.701,expectation_shapes_perceived_time,2022.2.4,119.94348267536306,
1,-500,0.5,none,46,red,green,no_Expectation,,,,,,0,9,9,4,train_doubleStim,,,,,,red,0.6975643819442547,0.7,2.3002423000289127,0.9982638999936171,1e-05,1e-05,0.03339,0.7004182999953628,0.7335768000339158,2.000347100023646,2.03374270000495,2.3002423000289127,2.3002423000289127,2.3002423000289127,0.0,2.499973400030285,4.841944299987517,2.5417019999586046,2.5417019999586046,0.15498,0.06916480487732228,0.1306446314349421,,,,None,,-0.5,-0.5,0.16423438194425471,0.16666666666666666,training_double_stim.csv,0.1673024999909103,0.20030979998409748,p12_high_01,001,2023-05-10_11h33.37.701,expectation_shapes_perceived_time,2022.2.4,119.94348267536306,
,,,,,,,,,0,0,0,0,0,-1,-1,0,fam,0.5407947999774478,0.5407947999774478,270.0,2.5404940000153147,2.5404940000153147,,,,,,,,,,,,,,,,,,,,,,,,,,,,,,,,,,,,p12_high_01,001,2023-05-10_11h33.37.701,expectation_shapes_perceived_time,2022.2.4,119.94348267536306,
,,,,,,,,,1,0,1,0,0,-1,-1,0,fam,0.49835650000022724,0.49835650000022724,270.0,2.498466599965468,2.498466599965468,,,,,,,,,,,,,,,,,,,,,,,,,,,,,,,,,,,,p12_high_01,001,2023-05-10_11h33.37.701,expectation_shapes_perceived_time,2022.2.4,119.94348267536306,
,,,,,,,,,2,0,2,0,0,-1,-1,0,fam,0.498347700049635,0.498347700049635,270.0,2.4984221000340767,2.4984221000340767,,,,,,,,,,,,,,,,,,,,,,,,,,,,,,,,,,,,p12_high_01,001,2023-05-10_11h33.37.701,expectation_shapes_perceived_time,2022.2.4,119.94348267536306,
,,,,,,,,,3,0,3,0,0,-1,-1,0,fam,0.4982247999869287,0.4982247999869287,270.0,2.498382199963089,2.498382199963089,,,,,,,,,,,,,,,,,,,,,,,,,,,,,,,,,,,,p12_high_01,001,2023-05-10_11h33.37.701,expectation_shapes_perceived_time,2022.2.4,119.94348267536306,
,167,0.1999999999999999,unmet,,green,red,,546.0990354247676,,,,,0,0,0,334,trial,,,,,,green,0.5460990354247677,0.55,2.2998337000026368,0.9992160000256263,0.00012,0.00012,0.03324,0.5493523000041023,0.5825965999974869,1.9991784000303596,2.032768399978522,2.2998337000026368,2.2998337000026368,2.2998337000026368,0.0,2.499463599990122,4.182540800014976,1.8827071000123397,1.8827071000123397,0.45214,0.14615539571683012,0.022144756926792443,,,,None,,0.167,0.16666666666666666,0.7464290354247677,0.75,trial_list_0.8_red.csv,0.7495428000111133,0.7827676999731921,p12_high_01,001,2023-05-10_11h33.37.701,expectation_shapes_perceived_time,2022.2.4,119.94348267536306,
,233,0.8,met,,red,green,,172.46663866212157,,,,,0,1,1,288,trial,,,,,,red,0.17246663866212156,0.175,2.3003235000069253,0.9970979999634437,2e-05,2e-05,0.03309,0.17473069997504354,0.20830240001669154,2.0001539000077173,2.0331752999918535,2.3003235000069253,2.3003235000069253,2.3003235000069253,0.0,2.4998594999779016,3.708255800011102,1.4079323000041768,1.4079323000041768,0.11302,0.05139194483215483,0.13860251788066,,,,None,,0.233,0.23333333333333334,0.43879663866212154,0.44166666666666665,trial_list_0.8_red.csv,0.4416025999817066,0.4749465999775566,p12_high_01,001,2023-05-10_11h33.37.701,expectation_shapes_perceived_time,2022.2.4,119.94348267536306,
,300,0.8,met,,red,green,,894.626225804547,,,,,0,2,2,490,trial,,,,,,red,0.894626225804547,0.8916666666666666,2.2993301000096835,0.9987461999990046,0.0001,0.0001,0.03319,0.8909057999844663,0.9244708999758586,1.9994221999659203,2.0329050999716856,2.2993301000096835,2.2993301000096835,2.2993301000096835,0.0,2.499331299972255,4.191125100012869,1.8917950000031851,1.8917950000031851,0.98915,0.00503651198106712,-0.14773768477796886,,,,None,,0.3,0.3,1.2279562258045469,1.225,trial_list_0.8_red.csv,1.2242750999866985,1.2577878999873064,p12_high_01,001,2023-05-10_11h33.37.701,expectation_shapes_perceived_time,2022.2.4,119.94348267536306,
,-233,0.8,met,,red,green,,712.0657306789109,,,,,0,3,3,208,trial,,,,,,red,0.7120657306789109,0.7083333333333334,2.3002114000264555,0.9971847000415437,1e-05,1e-05,0.03396,0.7086972999968566,0.7416450000018813,2.0000837999978103,2.0333391000167467,2.3002114000264555,2.3002114000264555,2.3002114000264555,0.0,2.5000391000066884,3.4669835999957286,1.166772199969273,1.166772199969273,0.25589,0.10644444104577666,0.10257373409865753,,,,None,,-0.233,-0.23333333333333334,0.4457357306789109,0.44166666666666665,trial_list_0.8_red.csv,0.44188060000305995,0.4751523000304587,p12_high_01,001,2023-05-10_11h33.37.701,expectation_shapes_perceived_time,2022.2.4,119.94348267536306,
,100,0.8,met,,red,green,,717.6079012106829,,,,,0,4,4,361,trial,,,,,,red,0.717607901210683,0.7166666666666667,2.300048400007654,0.9980188999907114,2e-05,2e-05,0.03321,0.7167111000162549,0.7499753999873064,1.9999347000266425,2.0332707000197843,2.300048400007654,2.300048400007654,2.4749894000124186,0.17494100000476465,2.4999863000120968,4.074895800033119,1.7748474000254646,1.5999064000207,0.70557,0.11805318087248784,-0.08896761457057054,,,,None,,0.1,0.1,0.850937901210683,0.85,trial_list_0.8_red.csv,0.8498959999997169,0.8832593000261113,p12_high_01,001,2023-05-10_11h33.37.701,expectation_shapes_perceived_time,2022.2.4,119.94348267536306,
,233,0.8,met,,red,green,,1022.5067123997412,,,,,0,5,5,315,trial,,,,,,red,1.0225067123997411,1.025,2.300167999987025,0.9963097000145353,2e-05,2e-05,0.03338,1.025222499971278,1.0585109000094235,2.0000992999994196,2.0335192999918945,2.300167999987025,2.300167999987025,2.800085199996829,0.4999172000098042,2.5005538999685086,3.7086306999553926,1.4084626999683678,0.9085454999585636,0.87608,0.05610735262918208,-0.13676167203363135,,,,None,,0.233,0.23333333333333334,1.288836712399741,1.2916666666666667,trial_list_0.8_red.csv,1.2917953999713063,1.3252296999562532,p12_high_01,001,2023-05-10_11h33.37.701,expectation_shapes_perceived_time,2022.2.4,119.94348267536306,
,33,0.8,met,,red,green,,1584.0214018937145,,,,,0,6,6,286,trial,,,,,,red,1.5840214018937144,1.5833333333333333,2.300432199961506,0.9970328999916092,1e-05,1e-05,0.03335,1.5836041999864392,1.616524799959734,1.9998682999867015,2.033059299981687,2.300432199961506,2.300432199961506,2.300432199961506,0.0,2.500058399979025,3.6167333999765106,1.3163012000150047,1.3163012000150047,1.94743,-0.02430203525927347,0.1458122115556408,,,,None,,0.033,0.03333333333333333,1.6503514018937144,1.65,trial_list_0.8_red.csv,1.6498518000007607,1.683239899983164,p12_high_01,001,2023-05-10_11h33.37.701,expectation_shapes_perceived_time,2022.2.4,119.94348267536306,
,-33,0.8,met,,red,green,,330.7528959196709,,,,,0,7,7,163,trial,,,,,,red,0.3307528959196709,0.3333333333333333,2.3000013999990188,0.9982070999685675,1e-05,1e-05,0.03338,0.3333670000429265,0.3666887999861501,2.0001128999865614,2.0334046999923885,2.3000013999990188,2.3000013999990188,2.3000013999990188,0.0,2.500002700020559,3.4584660000400618,1.158464600041043,1.158464600041043,0.11497,0.05224091232200848,0.1382847679111989,,,,None,,-0.033,-0.03333333333333333,0.2644228959196709,0.26666666666666666,trial_list_0.8_red.csv,0.2666519000194967,0.3001541999983601,p12_high_01,001,2023-05-10_11h33.37.701,expectation_shapes_perceived_time,2022.2.4,119.94348267536306,
,-300,0.8,met,,red,green,,1601.5178059759608,,,,,0,8,8,52,trial,,,,,,red,1.6015178059759607,1.6,2.299926100007724,0.9971192000084557,4e-05,4e-05,,1.5996674000052735,1.6331117000081576,1.9997525000362657,,2.299926100007724,2.299926100007724,2.299926100007724,0.0,2.499665000010282,4.524938900023699,2.225012800015975,2.225012800015975,1.40524,-0.1413212849685414,-0.04335993970625701,,,,None,,-0.3,-0.3,1.2681878059759608,1.2666666666666666,trial_list_0.8_red.csv,1.2663421000470407,1.2997577000060119,p12_high_01,001,2023-05-10_11h33.37.701,expectation_shapes_perceived_time,2022.2.4,119.94348267536306,
,-100,0.8,met,,red,green,,686.9933704648456,,,,,0,9,9,363,trial,,,,,,red,0.6869933704648457,0.6833333333333333,2.2999397999956273,0.9977292999974452,1e-05,1e-05,0.03337,0.6831423999974504,0.71649379999144,2.0001983999973163,2.033164399967063,2.2999397999956273,2.2999397999956273,2.2999397999956273,0.0,2.499885400000494,4.367622099991422,2.067682299995795,2.067682299995795,0.24718,0.10359793168429703,0.10544789475008805,,,,None,,-0.1,-0.1,0.5536633704648456,0.55,trial_list_0.8_red.csv,0.5498903999687172,0.5833119999733754,p12_high_01,001,2023-05-10_11h33.37.701,expectation_shapes_perceived_time,2022.2.4,119.94348267536306,
,-167,0.8,met,,red,green,,838.4307884181216,,,,,0,10,10,399,trial,,,,,,red,0.8384307884181216,0.8416666666666667,2.3001143999863416,0.9964293999946676,1e-05,1e-05,0.03339,0.8417026000097394,0.8750561000197195,2.000209200021345,2.033602499985136,2.3001143999863416,2.3001143999863416,2.3001143999863416,0.0,2.5001974999904633,4.1584187999833375,1.858304399996996,1.858304399996996,0.85597,0.06462736025122069,-0.13294771251679685,,,,None,,-0.167,-0.16666666666666666,0.6381007884181215,0.6416666666666666,trial_list_0.8_red.csv,0.6416873999987729,0.6752089000074193,p12_high_01,001,2023-05-10_11h33.37.701,expectation_shapes_perceived_time,2022.2.4,119.94348267536306,
,33,0.8,met,,red,green,,616.7233137908011,,,,,0,11,11,161,trial,,,,,,red,0.616723313790801,0.6166666666666667,2.299820800020825,0.9984127000207081,3e-05,3e-05,,0.6165272999787703,0.6498578999890015,2.0002495999797247,,2.299820800020825,2.299820800020825,2.299820800020825,0.0,2.500036999990698,3.792083900014404,1.492263099993579,1.492263099993579,0.27671,0.11292025401343331,0.0953981456320385,,,,None,,0.033,0.03333333333333333,0.6830533137908011,0.6833333333333333,trial_list_0.8_red.csv,0.6833258999977261,0.7166156999883242,p12_high_01,001,2023-05-10_11h33.37.701,expectation_shapes_perceived_time,2022.2.4,119.94348267536306,
,-233,0.1999999999999999,unmet,,green,red,,665.2180643546983,,,,,0,12,12,44,trial,,,,,,green,0.6652180643546983,0.6666666666666666,2.2997319999849424,0.9973703000578098,1e-05,1e-05,0.03304,0.6668548999587074,0.7002248999779113,1.9995798000018112,2.033061699999962,2.2997319999849424,2.2997319999849424,5.008126999950036,2.708394999965094,2.499667899974156,6.199771299958229,3.9000392999732867,1.1916443000081927,1.25,-0.10452700597570448,-0.10452700597570448,,,,None,,-0.233,-0.23333333333333334,0.3988880643546983,0.4,trial_list_0.8_red.csv,0.39963159995386377,0.43289589998312294,p12_high_01,001,2023-05-10_11h33.37.701,expectation_shapes_perceived_time,2022.2.4,119.94348267536306,
,-233,0.8,met,,red,green,,1388.4089718343666,,,,,0,13,13,488,trial,,,,,,red,1.3884089718343666,1.3916666666666666,2.300052299979143,0.997959100001026,1e-05,1e-05,0.03339,1.3918532999814488,1.4251284999772906,2.000276699953247,2.0333501999848522,2.300052299979143,2.300052299979143,2.300052299979143,0.0,2.49985799996648,3.883434099960141,1.583381799980998,1.583381799980998,1.13068,-0.058999394973324716,-0.13553915061439464,,,,None,,-0.233,-0.23333333333333334,1.1220789718343667,1.125,trial_list_0.8_red.csv,1.1251451999996789,1.1589329999987967,p12_high_01,001,2023-05-10_11h33.37.701,expectation_shapes_perceived_time,2022.2.4,119.94348267536306,
,-233,0.8,met,,red,green,,1603.537009072155,,,,,0,14,14,382,trial,,,,,,red,1.6035370090721548,1.6,2.3001318000024185,0.9966705000260845,1e-05,1e-05,0.03351,1.6001621999894269,1.6332117000129074,1.9998918999917805,2.033448700036388,2.3001318000024185,2.3001318000024185,2.5084073999896646,0.2082755999872461,2.500022699998226,4.241619200038258,1.9414874000358395,1.7332118000485934,1.59082,-0.14184685446056305,0.04160841064176517,,,,None,,-0.233,-0.23333333333333334,1.337207009072155,1.3333333333333333,trial_list_0.8_red.csv,1.3332207000348717,1.3665799000300467,p12_high_01,001,2023-05-10_11h33.37.701,expectation_shapes_perceived_time,2022.2.4,119.94348267536306,
,-100,0.8,met,,red,green,,943.2137860836012,,,,,0,15,15,421,trial,,,,,,red,0.9432137860836012,0.9416666666666667,2.2999797000084072,0.9981823999551125,3e-05,3e-05,0.03333,0.9413456000038423,0.9749196000047959,1.999894900014624,2.0332233000081033,2.2999797000084072,2.2999797000084072,2.2999797000084072,0.0,2.4997679000371136,3.549859100021422,1.2498794000130147,1.2498794000130147,1.17258,-0.0762787984662499,-0.1266228054539748,,,,None,,-0.1,-0.1,0.8098837860836012,0.8083333333333333,trial_list_0.8_red.csv,0.8080192000488751,0.8413491000537761,p12_high_01,001,2023-05-10_11h33.37.701,expectation_shapes_perceived_time,2022.2.4,119.94348267536306,
,-167,0.8,met,,red,green,,333.43696986500606,,,,,0,16,16,366,trial,,,,,,red,0.33343696986500604,0.3333333333333333,2.29995500005316,0.9979672999470495,1e-05,1e-05,0.03314,0.3334016000153497,0.3664108000230044,1.9999351000296883,,2.29995500005316,2.29995500005316,2.29995500005316,0.0,2.5000755000510253,3.249996300030034,0.9500412999768741,0.9500412999768741,0.17405,0.0768603824361893,0.12627062828802527,,,,None,,-0.167,-0.16666666666666666,0.1331069698650061,0.13333333333333333,trial_list_0.8_red.csv,0.13312880002195016,0.16648740001255646,p12_high_01,001,2023-05-10_11h33.37.701,expectation_shapes_perceived_time,2022.2.4,119.94348267536306,
,33,0.8,met,,red,green,,154.17281636017253,,,,,0,17,17,448,trial,,,,,,red,0.15417281636017252,0.15,2.299903400009498,0.998706599988509,1e-05,1e-05,0.03318,0.14977850002469495,0.18332230002852157,1.999918700021226,,2.299903400009498,2.299903400009498,2.324894300021697,0.024990900012198836,2.5001267000334337,3.183113900013268,0.88321050000377,0.8582195999915712,0.08384,0.03848769845293552,0.14272521509630254,,,,None,,0.033,0.03333333333333333,0.22050281636017252,0.21666666666666667,trial_list_0.8_red.csv,0.21663010003976524,0.2501752999960445,p12_high_01,001,2023-05-10_11h33.37.701,expectation_shapes_perceived_time,2022.2.4,119.94348267536306,
,100,0.8,met,,red,green,,1585.5044674530975,,,,,0,18,18,444,trial,,,,,,red,1.5855044674530976,1.5833333333333333,2.2997328999917954,0.9973332000081427,3e-05,3e-05,,1.5832684999913909,1.616582099988591,1.9997945000068285,,2.2997328999917954,2.2997328999917954,3.0749929000157863,0.7752600000239909,2.4998260000138544,7.783277200011071,5.483544300019275,4.7082842999952845,1.38194,-0.13777220140373744,-0.05357807832367567,,,,None,,0.1,0.1,1.7188344674530975,1.7166666666666666,trial_list_0.8_red.csv,1.71661609999137,1.7498995999922045,p12_high_01,001,2023-05-10_11h33.37.701,expectation_shapes_perceived_time,2022.2.4,119.94348267536306,
,-100,0.8,met,,red,green,,592.6262231824602,,,,,0,19,19,480,trial,,,,,,red,0.5926262231824602,0.5916666666666667,2.300118899962399,0.9979846000205725,4e-05,4e-05,0.03358,0.5916377999819815,0.6248556999489665,1.9999451999901794,2.033753199968487,2.300118899962399,2.300118899962399,2.300118899962399,0.0,2.499913399980869,4.766567699960433,2.466448799998034,2.466448799998034,0.08802,0.04035636290400762,0.14220813594745543,,,,None,,-0.1,-0.1,0.4592962231824602,0.4583333333333333,trial_list_0.8_red.csv,0.4582181999576278,0.4915480999625288,p12_high_01,001,2023-05-10_11h33.37.701,expectation_shapes_perceived_time,2022.2.4,119.94348267536306,
,233,0.8,met,,red,green,,739.3988042758124,,,,,0,20,20,283,trial,,,,,,red,0.7393988042758124,0.7416666666666667,2.300182799983304,0.9975880000274628,2e-05,2e-05,,0.7416244999621995,0.7750146999605931,1.9999557999544777,,2.300182799983304,2.300182799983304,3.041763099958189,0.7415802999748848,2.500366299995221,4.108539699984249,1.8083569000009447,1.06677660002606,1.66575,-0.12823054195138997,0.07354398729565012,,,,None,,0.233,0.23333333333333334,1.0057288042758123,1.0083333333333333,trial_list_0.8_red.csv,1.008351499971468,1.041628499981016,p12_high_01,001,2023-05-10_11h33.37.701,expectation_shapes_perceived_time,2022.2.4,119.94348267536306,
,-33,0.8,met,,red,green,,860.8233305617108,,,,,0,21,21,184,trial,,,,,,red,0.8608233305617108,0.8583333333333333,2.300421299994923,0.9973018000018783,1e-05,1e-05,,0.8582398000289686,0.8915777999791317,1.9999427000293508,,2.300421299994923,2.300421299994923,2.300421299994923,0.0,2.500232300022617,4.675192599999718,2.374771300004795,2.374771300004795,1.19336,-0.08437338146069041,-0.12137925052239673,,,,None,,-0.033,-0.03333333333333333,0.7944933305617108,0.7916666666666666,trial_list_0.8_red.csv,0.7915857000043616,0.8248899999889545,p12_high_01,001,2023-05-10_11h33.37.701,expectation_shapes_perceived_time,2022.2.4,119.94348267536306,
,-233,0.8,met,,red,green,,1643.5424670182622,,,,,0,22,22,360,trial,,,,,,red,1.6435424670182621,1.6416666666666666,2.299913100025151,0.9976102000218816,3e-05,3e-05,0.03331,1.6418156999861822,1.6753532000002451,1.9999199000303634,2.033417200029362,2.299913100025151,2.299913100025151,2.3834413000149652,0.08352819998981431,2.5008803000091575,5.517015399993397,3.2171022999682464,3.133574099978432,1.62112,-0.1372506829217666,0.05490027316870664,,,,None,,-0.233,-0.23333333333333334,1.3772124670182622,1.375,trial_list_0.8_red.csv,1.374951800040435,1.408273899985943,p12_high_01,001,2023-05-10_11h33.37.701,expectation_shapes_perceived_time,2022.2.4,119.94348267536306,
,100,0.8,met,,red,green,,1504.8718834545905,,,,,0,23,23,64,trial,,,,,,red,1.5048718834545904,1.5,2.2999037000117823,0.9978010999620892,1e-05,1e-05,,1.4999497000244446,1.5334596000029705,2.0000938000157475,2.0333739000489004,2.2999037000117823,2.2999037000117823,2.4584909999975935,0.15858729998581111,2.500101200013887,4.016829000029247,1.716925300017465,1.5583380000316538,1.64023,-0.133710154966975,0.06303478734157394,,,,None,,0.1,0.1,1.6382018834545904,1.6333333333333333,trial_list_0.8_red.csv,1.6333823000313714,1.6668359000468627,p12_high_01,001,2023-05-10_11h33.37.701,expectation_shapes_perceived_time,2022.2.4,119.94348267536306,
,-300,0.8,met,,red,green,,720.9259599330709,,,,,0,24,24,101,trial,,,,,,red,0.7209259599330708,0.7166666666666667,2.300231300003361,0.9981702999793924,2e-05,2e-05,0.03345,0.7168349000276066,0.7501237000105903,2.0000032000243664,2.033309000020381,2.300231300003361,2.300231300003361,2.300231300003361,0.0,2.5003398000262678,3.416691999998875,1.116460699995514,1.116460699995514,0.59309,0.14154728381707976,-0.042616386525572404,,,,None,,-0.3,-0.3,0.3875959599330709,0.3833333333333333,trial_list_0.8_red.csv,0.38348620000761,0.416921199997887,p12_high_01,001,2023-05-10_11h33.37.701,expectation_shapes_perceived_time,2022.2.4,119.94348267536306,
,33,0.8,met,,red,green,,1723.220880181316,0,0,0,0,0,25,25,33,fam,0.5407598000019789,0.5407598000019789,270.0,2.5410123000037856,2.5410123000037856,,,,,,,,,,,,,,,,,,,,,,,,,,,,,,,,,,,,p12_high_01,001,2023-05-10_11h33.37.701,expectation_shapes_perceived_time,2022.2.4,119.94348267536306,
,33,0.8,met,,red,green,,1723.220880181316,1,0,1,0,0,25,25,33,fam,0.49868599994806573,0.49868599994806573,270.0,2.4985968999681063,2.4985968999681063,,,,,,,,,,,,,,,,,,,,,,,,,,,,,,,,,,,,p12_high_01,001,2023-05-10_11h33.37.701,expectation_shapes_perceived_time,2022.2.4,119.94348267536306,
,33,0.8,met,,red,green,,1723.220880181316,2,0,2,0,0,25,25,33,fam,0.49852059996919706,0.49852059996919706,270.0,2.4985127999680117,2.4985127999680117,,,,,,,,,,,,,,,,,,,,,,,,,,,,,,,,,,,,p12_high_01,001,2023-05-10_11h33.37.701,expectation_shapes_perceived_time,2022.2.4,119.94348267536306,
,33,0.8,met,,red,green,,1723.220880181316,3,0,3,0,0,25,25,33,fam,0.49845439998898655,0.49845439998898655,270.0,2.498554299992975,2.498554299992975,,,,,,,,,,,,,,,,,,,,,,,,,,,,,,,,,,,,p12_high_01,001,2023-05-10_11h33.37.701,expectation_shapes_perceived_time,2022.2.4,119.94348267536306,
,33,0.8,met,,red,green,,1723.220880181316,,,,,0,25,25,33,trial,,,,,,red,1.723220880181316,1.7249999999999999,2.2999579000170343,0.9908423000015318,2e-05,2e-05,,1.7246517000021413,1.7580176999908872,1.9998942000092939,2.033105099981185,2.2999579000170343,2.2999579000170343,2.2999579000170343,0.0,2.4997662999667227,3.100131599989254,0.8001736999722198,0.8001736999722198,1.95997,-0.018542702218319038,0.14665591754488694,,,,None,,0.033,0.03333333333333333,1.789550880181316,1.7916666666666667,trial_list_0.8_red.csv,1.7913133999682032,1.8246668999781832,p12_high_01,001,2023-05-10_11h33.37.701,expectation_shapes_perceived_time,2022.2.4,119.94348267536306,
,33,0.8,met,,red,green,,1634.5259426982757,,,,,0,26,26,113,trial,,,,,,red,1.6345259426982757,1.6333333333333333,2.2999166999943554,0.9943603000137955,1e-05,1e-05,0.03333,1.6331411999999546,1.6665030000149272,1.99980739998864,2.033142099971883,2.2999166999943554,2.2999166999943554,2.2999166999943554,0.0,2.4999916999950074,3.2418062000069767,0.9418895000126213,0.9418895000126213,1.94519,-0.025328253771028365,0.1456374591834131,,,,None,,0.033,0.03333333333333333,1.7008559426982757,1.7,trial_list_0.8_red.csv,1.6997947000199929,1.7332676000078209,p12_high_01,001,2023-05-10_11h33.37.701,expectation_shapes_perceived_time,2022.2.4,119.94348267536306,
,-167,0.8,met,,red,green,,907.5542233071654,,,,,0,27,27,332,trial,,,,,,red,0.9075542233071654,0.9083333333333333,2.299751800019294,0.9978107000351883,1e-05,1e-05,,0.9088862999924459,0.9416940999799408,1.9998078999924473,,2.299751800019294,2.299751800019294,2.40824000001885,0.10848819999955595,2.4997141999774612,3.5747397000086494,1.2749878999893554,1.1664996999897994,0.3237,0.12572441998045622,0.07775062814580846,,,,None,,-0.167,-0.16666666666666666,0.7072242233071654,0.7083333333333334,trial_list_0.8_red.csv,0.7087020999751985,0.7416869000298902,p12_high_01,001,2023-05-10_11h33.37.701,expectation_shapes_perceived_time,2022.2.4,119.94348267536306,
,-233,0.8,met,,red,green,,962.2125503306236,,,,,0,28,28,369,trial,,,,,,red,0.9622125503306236,0.9583333333333334,2.300158799975179,0.9976269000326283,3e-05,3e-05,0.03332,0.9584553000167944,0.9916257999720983,2.000049299967941,2.0333776000188664,2.300158799975179,2.300158799975179,2.458529199997429,0.15837040002224967,2.5001986999996006,3.791828899993561,1.491670100018382,1.3332996999961324,0.57798,0.1434098690721271,-0.035852467268031776,,,,None,,-0.233,-0.23333333333333334,0.6958825503306235,0.6916666666666667,trial_list_0.8_red.csv,0.6923662999761291,0.7249612999730743,p12_high_01,001,2023-05-10_11h33.37.701,expectation_shapes_perceived_time,2022.2.4,119.94348267536306,
,167,0.1999999999999999,unmet,,green,red,,1578.396681837744,,,,,0,29,29,212,trial,,,,,,green,1.578396681837744,1.575,2.299779299995862,0.9975143000483513,3e-05,3e-05,0.03329,1.5748220999957994,1.6083936999784783,1.999912699975539,2.0332905999966897,2.299779299995862,2.299779299995862,2.299779299995862,0.0,2.4999889999744482,4.508114999975078,2.208335699979216,2.208335699979216,1.83475,-0.07334099906011632,0.12834674835520357,,,,None,,0.167,0.16666666666666666,1.7787266818377439,1.775,trial_list_0.8_red.csv,1.7749786999775097,1.8084276999579743,p12_high_01,001,2023-05-10_11h33.37.701,expectation_shapes_perceived_time,2022.2.4,119.94348267536306,
,-167,0.8,met,,red,green,,1569.952244604919,,,,,0,30,30,431,trial,,,,,,red,1.569952244604919,1.5666666666666667,2.3003680999972858,0.9983219999703579,1e-05,1e-05,0.03355,1.5668635999900289,1.6001731000142172,1.999931900005322,2.0334184000384994,2.3003680999972858,2.3003680999972858,2.3003680999972858,0.0,2.5006057000136934,4.508551100036129,2.2081830000388436,2.2081830000388436,1.78422,-0.0927088617083937,0.11513842502494054,,,,None,,-0.167,-0.16666666666666666,1.369622244604919,1.3666666666666667,trial_list_0.8_red.csv,1.3674258000100963,1.40054100000998,p12_high_01,001,2023-05-10_11h33.37.701,expectation_shapes_perceived_time,2022.2.4,119.94348267536306,
,33,0.1999999999999999,unmet,,green,red,,1623.4859191416683,,,,,0,31,31,459,trial,,,,,,green,1.6234859191416684,1.625,2.2996825000154786,0.9987085000029765,3e-05,3e-05,0.03313,1.6246740000206046,1.6579757000436075,1.999951100035105,2.033189800044056,2.2996825000154786,2.2996825000154786,2.3913440000033006,0.09166149998782203,2.499657800013665,3.3746985000325367,1.075016000017058,0.9833545000292361,1.93717,-0.028990575362779485,0.14495287681389743,,,,None,,0.033,0.03333333333333333,1.6898159191416682,1.6916666666666667,trial_list_0.8_red.csv,1.6916434000013396,1.7248957000556402,p12_high_01,001,2023-05-10_11h33.37.701,expectation_shapes_perceived_time,2022.2.4,119.94348267536306,
,-100,0.8,met,,red,green,,1739.8894699510347,,,,,0,32,32,429,trial,,,,,,red,1.7398894699510348,1.7416666666666667,2.3000184999546036,0.9973945000092499,1e-05,1e-05,0.03329,1.7418470999691635,1.7751910999650136,2.0000999000039883,2.0333134999964386,2.3000184999546036,2.3000184999546036,2.6168585999985225,0.31684010004391894,2.5005174999823794,3.741858499997761,1.4418400000431575,1.1249998999992386,1.98984,-0.004715370745466666,0.14774828335795553,,,,None,,-0.1,-0.1,1.6065594699510348,1.6083333333333334,trial_list_0.8_red.csv,1.60900739999488,1.6418531999806874,p12_high_01,001,2023-05-10_11h33.37.701,expectation_shapes_perceived_time,2022.2.4,119.94348267536306,
,-233,0.8,met,,red,green,,857.2166214932591,,,,,0,33,33,372,trial,,,,,,red,0.8572166214932592,0.8583333333333333,2.299818800005596,0.9973167999996804,1e-05,1e-05,,0.858429400017485,0.8919091999996454,2.000613800017163,,2.299818800005596,2.299818800005596,2.858380399993621,0.5585615999880247,2.4997613999876194,4.18348300002981,1.8836642000242136,1.325102600036189,1.49233,-0.1477806123543352,-0.003560978610947837,,,,None,,-0.233,-0.23333333333333334,0.5908866214932591,0.5916666666666667,trial_list_0.8_red.csv,0.5916800000122748,0.6249143999884836,p12_high_01,001,2023-05-10_11h33.37.701,expectation_shapes_perceived_time,2022.2.4,119.94348267536306,
,-233,0.8,met,,red,green,,1079.361265830638,,,,,0,34,34,474,trial,,,,,,red,1.0793612658306382,1.075,2.2997111000004224,0.9977068000007421,1e-05,1e-05,0.0333,1.0748649999732152,1.1083386999671347,1.9999265999649651,2.0332987000001594,2.2997111000004224,2.2997111000004224,2.8499960000044666,0.5502849000040442,2.499646499985829,4.842167800001334,2.542456700000912,1.9921717999968678,1.61012,-0.1390646537581613,0.050127956587244185,,,,None,,-0.233,-0.23333333333333334,0.8130312658306381,0.8166666666666667,trial_list_0.8_red.csv,0.8166656999965198,0.8499446999630891,p12_high_01,001,2023-05-10_11h33.37.701,expectation_shapes_perceived_time,2022.2.4,119.94348267536306,
,-300,0.8,met,,red,green,,1359.286769425341,,,,,0,35,35,475,trial,,,,,,red,1.359286769425341,1.3583333333333334,2.299813500023447,0.9968633999815211,1e-05,1e-05,0.03382,1.3585468999808654,1.3917694999836385,2.0004755000118166,2.033461000013631,2.299813500023447,2.299813500023447,2.299813500023447,0.0,2.4998792000114918,4.083411899977364,1.7835983999539167,1.7835983999539167,1.38542,-0.1383502332856749,-0.052067292096759366,,,,None,,-0.3,-0.3,1.025956769425341,1.025,trial_list_0.8_red.csv,1.0251769999740645,1.058300299977418,p12_high_01,001,2023-05-10_11h33.37.701,expectation_shapes_perceived_time,2022.2.4,119.94348267536306,
,-33,0.8,met,,red,green,,368.3121735241632,,,,,0,36,36,357,trial,,,,,,red,0.3683121735241632,0.36666666666666664,2.299834400007967,0.9980855000321753,3e-05,3e-05,0.03342,0.366623800015077,0.39996040001278743,1.99987770000007,,2.299834400007967,2.299834400007967,2.299834400007967,0.0,2.499838899995666,3.8499671000172384,1.5501327000092715,1.5501327000092715,0.20764,0.08973483536012253,0.11747105719870585,,,,None,,-0.033,-0.03333333333333333,0.30198217352416323,0.3,trial_list_0.8_red.csv,0.3000241999980062,0.33328389999223873,p12_high_01,001,2023-05-10_11h33.37.701,expectation_shapes_perceived_time,2022.2.4,119.94348267536306,
,33,0.8,met,,red,green,,1401.2818212456991,,,,,0,37,37,202,trial,,,,,,red,1.4012818212456992,1.4,2.29995760001475,0.9978930999641307,1e-05,1e-05,0.03324,1.4003823000239208,1.4333164999843575,1.999939400004223,2.0332278999849223,2.29995760001475,2.29995760001475,2.399923700024374,0.09996610000962391,2.499898799986113,5.725100799987558,3.4251431999728084,3.3251770999631844,1.10874,-0.04952230478416862,-0.13928148220547426,,,,None,,0.033,0.03333333333333333,1.467611821245699,1.4666666666666666,trial_list_0.8_red.csv,1.466674899973441,1.5001328000216745,p12_high_01,001,2023-05-10_11h33.37.701,expectation_shapes_perceived_time,2022.2.4,119.94348267536306,
,167,0.8,met,,red,green,,1209.1557447120645,,,,,0,38,38,1,trial,,,,,,red,1.2091557447120644,1.2083333333333333,2.29989680001745,0.9974289999809116,1e-05,1e-05,0.03313,1.2079971000202931,1.2413807999691926,1.9999217999866232,2.033333599974867,2.29989680001745,2.29989680001745,2.29989680001745,0.0,2.5003790999762714,3.341478399990592,1.0415815999731421,1.0415815999731421,1.38085,-0.13758695221884534,-0.05405201694311781,,,,None,,0.167,0.16666666666666666,1.4094857447120643,1.4083333333333332,trial_list_0.8_red.csv,1.40803719998803,1.441541199979838,p12_high_01,001,2023-05-10_11h33.37.701,expectation_shapes_perceived_time,2022.2.4,119.94348267536306,
,233,0.8,met,,red,green,,229.35779554401404,,,,,0,39,39,190,trial,,,,,,red,0.22935779554401403,0.23333333333333334,2.3006200999952853,0.9977357999887317,1e-05,1e-05,0.03334,0.23362140002427623,0.26682760001858696,2.0001011000131257,2.03334140003426,2.3006200999952853,2.3006200999952853,2.37523320002947,0.07461310003418475,2.5003162000211887,4.091832500009332,1.7912124000140466,1.7165992999798618,0.17202,0.076054568182482,0.12675761363747,,,,None,,0.233,0.23333333333333334,0.49568779554401404,0.49166666666666664,trial_list_0.8_red.csv,0.49188190000131726,0.5254308000439778,p12_high_01,001,2023-05-10_11h33.37.701,expectation_shapes_perceived_time,2022.2.4,119.94348267536306,
,-167,0.8,met,,red,green,,554.3578478516406,,,,,0,40,40,436,trial,,,,,,red,0.5543578478516406,0.55,2.300182399980258,0.9976236000075005,1e-05,1e-05,0.03332,0.5502842999994755,0.5837612999603152,1.9999067999888211,2.0333253999706358,2.300182399980258,2.300182399980258,3.6258700999896973,1.3256877000094391,2.5004020999767818,6.008317400002852,3.708135000022594,2.3824473000131547,1.71637,-0.11496838072846456,0.09291965017780011,,,,None,,-0.167,-0.16666666666666666,0.3540278478516406,0.35,trial_list_0.8_red.csv,0.35013139998773113,0.3835743999807164,p12_high_01,001,2023-05-10_11h33.37.701,expectation_shapes_perceived_time,2022.2.4,119.94348267536306,
,-100,0.8,met,,red,green,,1079.8429186758058,,,,,0,41,41,415,trial,,,,,,red,1.0798429186758058,1.0833333333333333,2.3003201999817975,0.9981409999891184,1e-05,1e-05,0.03328,1.0832660000305623,1.1166234000120312,2.000036799989175,2.0333377000060864,2.3003201999817975,2.3003201999817975,2.7252680999808945,0.424947899999097,2.5001769000082277,5.825393799983431,3.525073600001633,3.100125700002536,0.76196,0.10052640699378626,-0.10838003254017581,,,,None,,-0.1,-0.1,0.9465129186758058,0.95,trial_list_0.8_red.csv,0.9499571999767795,0.9832631999743171,p12_high_01,001,2023-05-10_11h33.37.701,expectation_shapes_perceived_time,2022.2.4,119.94348267536306,
,33,0.8,met,,red,green,,493.7423553585536,,,,,0,42,42,183,trial,,,,,,red,0.4937423553585536,0.49166666666666664,2.299783500027843,0.9981729999999516,1e-05,1e-05,,0.4914716000203043,0.5248161000199616,1.9999926000018604,,2.299783500027843,2.299783500027843,2.399851599999238,0.10006809997139499,2.4998423000215553,3.3331095000030473,1.0333259999752045,0.9332579000038095,0.37954,0.13736452384226075,0.05461481068427234,,,,None,,0.033,0.03333333333333333,0.5600723553585536,0.5583333333333333,trial_list_0.8_red.csv,0.5580930000287481,0.5916955000138842,p12_high_01,001,2023-05-10_11h33.37.701,expectation_shapes_perceived_time,2022.2.4,119.94348267536306,
,167,0.8,met,,red,green,,1363.7178333111117,,,,,0,43,43,181,trial,,,,,,red,1.3637178333111117,1.3666666666666667,2.2999920999864116,0.9980157000245526,1e-05,1e-05,0.03336,1.3668648999882862,1.4001979000167921,2.000133499968797,2.0333738999906927,2.2999920999864116,2.2999920999864116,2.2999920999864116,0.0,2.5003311000182293,8.733673300012015,6.433681200025603,6.433681200025603,1.32219,-0.12535408533544046,-0.07834630333465029,,,,None,,0.167,0.16666666666666666,1.5640478333111116,1.5666666666666667,trial_list_0.8_red.csv,1.5672975999768823,1.6002367999753915,p12_high_01,001,2023-05-10_11h33.37.701,expectation_shapes_perceived_time,2022.2.4,119.94348267536306,
,-100,0.8,met,,red,green,,1516.7700466243132,,,,,0,44,44,207,trial,,,,,,red,1.5167700466243133,1.5166666666666666,2.299836900027003,0.9979968999978155,1e-05,1e-05,0.03326,1.5162768000154756,1.5496009000344202,1.999835400027223,2.0336624000337906,2.299836900027003,2.299836900027003,2.3497051000013016,0.04986819997429848,2.4996120000141673,3.724816100031603,1.4249792000046,1.3751110000303015,1.94809,-0.024002575598429318,0.14586180555968586,,,,None,,-0.1,-0.1,1.3834400466243133,1.3833333333333333,trial_list_0.8_red.csv,1.3831715999986045,1.4164416000130586,p12_high_01,001,2023-05-10_11h33.37.701,expectation_shapes_perceived_time,2022.2.4,119.94348267536306,
,-300,0.8,met,,red,green,,1235.6328521772482,,,,,0,45,45,451,trial,,,,,,red,1.2356328521772482,1.2333333333333334,2.3001931000035256,0.9980114999925718,1e-05,1e-05,0.03335,1.2336372999707237,1.2669598999782465,2.00002969999332,,2.3001931000035256,2.3001931000035256,2.3001931000035256,0.0,2.500266599992756,3.283540299977176,0.9833471999736503,0.9833471999736503,1.67584,-0.12583589896069822,0.07757007470180027,,,,None,,-0.3,-0.3,0.9023028521772481,0.9,trial_list_0.8_red.csv,0.8999852999695577,0.9334121999563649,p12_high_01,001,2023-05-10_11h33.37.701,expectation_shapes_perceived_time,2022.2.4,119.94348267536306,
,-33,0.8,met,,red,green,,538.3144360598895,,,,,0,46,46,103,trial,,,,,,red,0.5383144360598895,0.5416666666666666,2.3002516999840736,0.9968120999983512,2e-05,2e-05,0.03393,0.5419745999970473,0.575054100016132,1.9999937000102364,2.0333311000140384,2.3002516999840736,2.3002516999840736,2.3002516999840736,0.0,2.5002878999803215,3.225228799972683,0.9249770999886096,0.9249770999886096,0.32312,0.12558114097973408,0.07798183754386712,,,,None,,-0.033,-0.03333333333333333,0.47198443605988954,0.475,trial_list_0.8_red.csv,0.475162899994757,0.5085390000022016,p12_high_01,001,2023-05-10_11h33.37.701,expectation_shapes_perceived_time,2022.2.4,119.94348267536306,
,-100,0.1999999999999999,unmet,,green,red,,416.8815631013277,,,,,0,47,47,153,trial,,,,,,green,0.4168815631013277,0.4166666666666667,2.299873400013894,0.9985644999542274,1e-05,1e-05,,0.4163547000498511,0.4497659000335261,1.9998793000122532,,2.299873400013894,2.299873400013894,4.141571200045291,1.8416978000313975,2.5000321000115946,4.9081308000022545,2.6082573999883607,0.7665595999569632,0.23674,0.10008487250574624,0.10878790489755027,,,,None,,-0.1,-0.1,0.2835515631013277,0.2833333333333333,trial_list_0.8_red.csv,0.28303760004928336,0.31641000002855435,p12_high_01,001,2023-05-10_11h33.37.701,expectation_shapes_perceived_time,2022.2.4,119.94348267536306,
,-100,0.8,met,,red,green,,1042.7860712389872,,,,,0,48,48,414,trial,,,,,,red,1.0427860712389871,1.0416666666666667,2.3005173000274226,0.997087299998384,1e-05,1e-05,0.03335,1.0418105999706313,1.074993300018832,2.0000191999715753,,2.3005173000274226,2.3005173000274226,2.3005173000274226,0.0,2.5002485999721102,4.762073500023689,2.4615561999962665,2.4615561999962665,1.77801,-0.09493519395210584,0.11330974762025536,,,,None,,-0.1,-0.1,0.9094560712389872,0.9083333333333333,trial_list_0.8_red.csv,0.9082935000187717,0.9418100999901071,p12_high_01,001,2023-05-10_11h33.37.701,expectation_shapes_perceived_time,2022.2.4,119.94348267536306,
,100,0.8,met,,red,green,,782.0672623984409,,,,,0,49,49,370,trial,,,,,,red,0.7820672623984409,0.7833333333333333,2.299619299999904,0.9945312000345439,1e-05,1e-05,0.03309,0.7831676000496373,0.8163668000488542,2.000197100045625,2.033273800043389,2.299619299999904,2.299619299999904,3.2078821000177413,0.9082628000178374,2.499821300036274,8.108239700028207,5.808620400028303,4.900357600010466,1.6097,-0.13913069934066397,0.04994435360946912,,,,None,,0.1,0.1,0.915397262398441,0.9166666666666666,trial_list_0.8_red.csv,0.9165770999970846,0.9499827000545338,p12_high_01,001,2023-05-10_11h33.37.701,expectation_shapes_perceived_time,2022.2.4,119.94348267536306,
,100,0.8,met,,red,green,,1022.9212464111644,0,0,0,0,0,50,50,43,fam,0.5407087000203319,0.5407087000203319,270.0,2.5407009000191465,2.5407009000191465,,,,,,,,,,,,,,,,,,,,,,,,,,,,,,,,,,,,p12_high_01,001,2023-05-10_11h33.37.701,expectation_shapes_perceived_time,2022.2.4,119.94348267536306,
,100,0.8,met,,red,green,,1022.9212464111644,1,0,1,0,0,50,50,43,fam,0.49836049997247756,0.49836049997247756,270.0,2.498437299975194,2.498437299975194,,,,,,,,,,,,,,,,,,,,,,,,,,,,,,,,,,,,p12_high_01,001,2023-05-10_11h33.37.701,expectation_shapes_perceived_time,2022.2.4,119.94348267536306,
,100,0.8,met,,red,green,,1022.9212464111644,2,0,2,0,0,50,50,43,fam,0.498678200005088,0.498678200005088,270.0,2.498515200044494,2.498515200044494,,,,,,,,,,,,,,,,,,,,,,,,,,,,,,,,,,,,p12_high_01,001,2023-05-10_11h33.37.701,expectation_shapes_perceived_time,2022.2.4,119.94348267536306,
,100,0.8,met,,red,green,,1022.9212464111644,3,0,3,0,0,50,50,43,fam,0.49884939996991307,0.49884939996991307,270.0,2.4988296999945305,2.4988296999945305,,,,,,,,,,,,,,,,,,,,,,,,,,,,,,,,,,,,p12_high_01,001,2023-05-10_11h33.37.701,expectation_shapes_perceived_time,2022.2.4,119.94348267536306,
,100,0.8,met,,red,green,,1022.9212464111644,,,,,0,50,50,43,trial,,,,,,red,1.0229212464111643,1.025,2.299872699950356,0.9990400999668054,1e-05,1e-05,0.0333,1.0250630999798886,1.0583448999677785,2.00050199998077,2.0337736000074074,2.299872699950356,2.299872699950356,2.4000700999749824,0.1001974000246264,2.500658599950839,3.4001837999676354,1.1003111000172794,1.000113699992653,0.87381,0.05708028733266932,-0.13635846418359893,,,,None,,0.1,0.1,1.1562512464111643,1.1583333333333332,trial_list_0.8_red.csv,1.1584307999582961,1.1917541999719106,p12_high_01,001,2023-05-10_11h33.37.701,expectation_shapes_perceived_time,2022.2.4,119.94348267536306,
,-100,0.8,met,,red,green,,1301.2741153739055,,,,,0,51,51,67,trial,,,,,,red,1.3012741153739056,1.3,2.2993072000099346,0.9979984000092372,1e-05,1e-05,0.03299,1.2994258000398986,1.332986900000833,1.999358700006269,2.0327084999880753,2.2993072000099346,2.2993072000099346,2.2993072000099346,0.0,2.4993886000011116,3.2663786000339314,0.9670714000239968,0.9670714000239968,1.40608,-0.1414356727007115,-0.04298535150707898,,,,None,,-0.1,-0.1,1.1679441153739056,1.1666666666666667,trial_list_0.8_red.csv,1.16636810003547,1.1993825000245124,p12_high_01,001,2023-05-10_11h33.37.701,expectation_shapes_perceived_time,2022.2.4,119.94348267536306,
,33,0.8,met,,red,green,,1354.0826960064628,,,,,0,52,52,438,trial,,,,,,red,1.354082696006463,1.35,2.2998381999786943,0.9978326999698766,1e-05,1e-05,0.0331,1.349824799981434,1.3834948999574408,1.9997965999646112,,2.2998381999786943,2.2998381999786943,2.2998381999786943,0.0,2.49998979998054,3.566486799973063,1.2666485999943689,1.2666485999943689,1.60034,-0.14054022144435308,0.04582833307968035,,,,None,,0.033,0.03333333333333333,1.4204126960064627,1.4166666666666667,trial_list_0.8_red.csv,1.4165491999592632,1.4500018999679014,p12_high_01,001,2023-05-10_11h33.37.701,expectation_shapes_perceived_time,2022.2.4,119.94348267536306,
,300,0.1999999999999999,unmet,,green,red,,632.9922663763359,,,,,0,53,53,76,trial,,,,,,green,0.6329922663763359,0.6333333333333333,2.299711400002707,0.998675600043498,1e-05,1e-05,0.03312,0.6329977000132203,0.6664627999998629,1.9997831999789923,,2.299711400002707,2.299711400002707,2.433075899956748,0.1333644999540411,2.4997947000083514,5.908081199973822,3.608369799971115,3.4750053000170738,0.86448,0.06105183648442179,-0.1346271266066737,,,,None,,0.3,0.3,0.966322266376336,0.9666666666666667,trial_list_0.8_red.csv,0.9663305999711156,0.9996915999799967,p12_high_01,001,2023-05-10_11h33.37.701,expectation_shapes_perceived_time,2022.2.4,119.94348267536306,
,-33,0.8,met,,red,green,,1047.750298091763,,,,,0,54,54,375,trial,,,,,,red,1.047750298091763,1.05,2.300110800017137,0.9974591999780387,2e-05,2e-05,0.03332,1.0499395999941044,1.0832926000002772,2.0000874000252225,2.0333256000303663,2.300110800017137,2.300110800017137,2.300110800017137,0.0,2.5002362999948673,3.8583297000150196,1.5582188999978825,1.5582188999978825,0.55367,0.14572754504219118,-0.02480468851781978,,,,None,,-0.033,-0.03333333333333333,0.9814202980917629,0.9833333333333333,trial_list_0.8_red.csv,0.9833265999914147,1.016673800011631,p12_high_01,001,2023-05-10_11h33.37.701,expectation_shapes_perceived_time,2022.2.4,119.94348267536306,
,-33,0.1999999999999999,unmet,,green,red,,610.4789085792872,,,,,0,55,55,107,trial,,,,,,green,0.6104789085792872,0.6083333333333333,2.3002720999647863,0.9976105999667197,3e-05,3e-05,0.0333,0.6083308999659494,0.641774199961219,2.0000363999861293,2.0333883999846876,2.3002720999647863,2.3002720999647863,2.3002720999647863,0.0,2.5000762999989092,3.9083597999997437,1.6080877000349574,1.6080877000349574,0.72492,0.11242931390527008,-0.0959762435776696,,,,None,,-0.033,-0.03333333333333333,0.5441489085792872,0.5416666666666666,trial_list_0.8_red.csv,0.5416550999507308,0.575325799989514,p12_high_01,001,2023-05-10_11h33.37.701,expectation_shapes_perceived_time,2022.2.4,119.94348267536306,
,-167,0.8,met,,red,green,,620.1134444467874,,,,,0,56,56,422,trial,,,,,,red,0.6201134444467874,0.6166666666666667,2.300052299979143,0.9985083999927156,3e-05,3e-05,0.03332,0.6166483000270091,0.6499396999715827,2.0000298999948427,2.033362800022587,2.300052299979143,2.300052299979143,2.300052299979143,0.0,2.5000475000124425,3.3834636000101455,1.0834113000310026,1.0834113000310026,0.59366,0.14147070612623883,-0.042869910947345095,,,,None,,-0.167,-0.16666666666666666,0.41978344444678745,0.4166666666666667,trial_list_0.8_red.csv,0.41668149997713044,0.45002069999463856,p12_high_01,001,2023-05-10_11h33.37.701,expectation_shapes_perceived_time,2022.2.4,119.94348267536306,
,33,0.1999999999999999,unmet,,green,red,,420.4281651776018,,,,,0,57,57,95,trial,,,,,,green,0.4204281651776018,0.4166666666666667,2.300027000019327,0.9977269999799319,1e-05,1e-05,0.03333,0.41664510004920885,0.4500058999983594,1.9999808000284247,2.0333618000149727,2.300027000019327,2.300027000019327,2.300027000019327,0.0,2.499913900042884,3.2750005000270903,0.9749735000077635,0.9749735000077635,0.49694,0.14781667640170268,0.001421314196170218,,,,None,,0.033,0.03333333333333333,0.4867581651776018,0.48333333333333334,trial_list_0.8_red.csv,0.48350910004228354,0.5168535000411794,p12_high_01,001,2023-05-10_11h33.37.701,expectation_shapes_perceived_time,2022.2.4,119.94348267536306,
,-100,0.8,met,,red,green,,413.2826584942226,,,,,0,58,58,328,trial,,,,,,red,0.4132826584942226,0.4166666666666667,2.2999818999669515,0.9985049000242725,2e-05,2e-05,,0.4168639999697916,0.44997949997195974,1.9999814999755472,,2.2999818999669515,2.2999818999669515,2.38334559998475,0.08336370001779869,2.5000590999843553,3.775067600014154,1.4750857000472024,1.3917220000294037,0.13552,0.06105183648442179,0.1346271266066737,,,,None,,-0.1,-0.1,0.2799526584942226,0.2833333333333333,trial_list_0.8_red.csv,0.28333519998705015,0.3166886999970302,p12_high_01,001,2023-05-10_11h33.37.701,expectation_shapes_perceived_time,2022.2.4,119.94348267536306,
,100,0.1999999999999999,unmet,,green,red,,963.8797437054274,,,,,0,59,59,317,trial,,,,,,green,0.9638797437054274,0.9666666666666667,2.3001377999898978,0.9970304000307806,1e-05,1e-05,0.03382,0.9669026000192389,1.0000136999879032,2.0000618000049144,2.033424199966248,2.3001377999898978,2.3001377999898978,2.3169072999735363,0.016769499983638525,2.5000818999833427,4.533587699988857,2.233449899998959,2.2166804000153206,1.18132,-0.07972449515051253,-0.12448210646308096,,,,None,,0.1,0.1,1.0972097437054271,1.1,trial_list_0.8_red.csv,1.1002708000014536,1.133356400008779,p12_high_01,001,2023-05-10_11h33.37.701,expectation_shapes_perceived_time,2022.2.4,119.94348267536306,
,300,0.8,met,,red,green,,1036.634743843928,,,,,0,60,60,133,trial,,,,,,red,1.0366347438439278,1.0333333333333332,2.2999554999987595,0.9973088999977335,2e-05,2e-05,,1.033580899995286,1.0666630999767222,1.9999873000197113,,2.2999554999987595,2.2999554999987595,2.533336499996949,0.2333809999981895,2.500025600020308,3.408656899991911,1.1087013999931514,0.8753203999949619,1.10977,-0.04997503171077329,-0.13911968287053106,,,,None,,0.3,0.3,1.369964743843928,1.3666666666666667,trial_list_0.8_red.csv,1.366895699989982,1.3999923000228591,p12_high_01,001,2023-05-10_11h33.37.701,expectation_shapes_perceived_time,2022.2.4,119.94348267536306,
,100,0.1999999999999999,unmet,,green,red,,1277.138279423716,,,,,0,61,61,170,trial,,,,,,green,1.277138279423716,1.275,2.3002466000034474,0.9976832999964245,2e-05,2e-05,,1.2750018000369892,1.3082983000203967,2.0001029000268318,,2.3002466000034474,2.3002466000034474,2.3002466000034474,0.0,2.500018100021407,3.250102300022263,0.9498557000188157,0.9498557000188157,1.63244,-0.13521218389629117,0.05974491846580308,,,,None,,0.1,0.1,1.410468279423716,1.4083333333333332,trial_list_0.8_red.csv,1.4083294000010937,1.4419471000437625,p12_high_01,001,2023-05-10_11h33.37.701,expectation_shapes_perceived_time,2022.2.4,119.94348267536306,
,-33,0.8,met,,red,green,,1535.248353883842,,,,,0,62,62,384,trial,,,,,,red,1.535248353883842,1.5333333333333332,2.300122300046496,0.998088699998334,1e-05,1e-05,0.03318,1.5332775000133552,1.5670879000099376,2.000086600019131,,2.300122300046496,2.300122300046496,2.5165697000338696,0.2164473999873735,2.49985540000489,3.61648080003215,1.316358499985654,1.0999110999982804,1.84595,-0.06877912323912513,0.13084808811345758,,,,None,,-0.033,-0.03333333333333333,1.468918353883842,1.4666666666666666,trial_list_0.8_red.csv,1.466378600045573,1.4997044000192545,p12_high_01,001,2023-05-10_11h33.37.701,expectation_shapes_perceived_time,2022.2.4,119.94348267536306,
,-300,0.8,met,,red,green,,490.3571157144173,,,,,0,63,63,28,trial,,,,,,red,0.4903571157144173,0.49166666666666664,2.300087600015104,0.9979137000045739,2e-05,2e-05,0.03317,0.49139380000997335,0.5249420000473037,1.9998025000095367,2.03311840002425,2.300087600015104,2.300087600015104,2.300087600015104,0.0,2.5000641000224277,3.166392800048925,0.8663052000338212,0.8663052000338212,0.22292,0.09526812108687328,0.1130299741708666,,,,None,,-0.3,-0.3,0.15702711571441733,0.15833333333333333,trial_list_0.8_red.csv,0.15844200004357845,0.1914233000134118,p12_high_01,001,2023-05-10_11h33.37.701,expectation_shapes_perceived_time,2022.2.4,119.94348267536306,
,167,0.1999999999999999,unmet,,green,red,,562.6350616446884,,,,,0,64,64,251,trial,,,,,,green,0.5626350616446885,0.5583333333333333,2.2999393999925815,0.9974706000066362,1e-05,1e-05,0.03337,0.5581828000140376,0.5917076999903657,1.9997280000243336,,2.2999393999925815,2.2999393999925815,2.2999393999925815,0.0,2.4997076999861747,3.3500382999773137,1.0500988999847323,1.0500988999847323,0.77984,0.09428389961924596,-0.11385225614399512,,,,None,,0.167,0.16666666666666666,0.7629650616446885,0.7666666666666666,trial_list_0.8_red.csv,0.7664579999982379,0.8002152999979444,p12_high_01,001,2023-05-10_11h33.37.701,expectation_shapes_perceived_time,2022.2.4,119.94348267536306,
,300,0.8,met,,red,green,,1384.2986968813625,,,,,0,65,65,412,trial,,,,,,red,1.3842986968813624,1.3833333333333333,2.2999975999700837,0.9969342999975197,1e-05,1e-05,0.03359,1.383347800001502,1.4167558000190184,2.000179799972102,2.0333832000033,2.2999975999700837,2.2999975999700837,2.2999975999700837,0.0,2.499992299999576,3.0584442999679595,0.7584466999978758,0.7584466999978758,1.73301,-0.10995555173123046,0.09880064068603316,,,,None,,0.3,0.3,1.7176286968813623,1.7166666666666666,trial_list_0.8_red.csv,1.7167215999797918,1.750041399965994,p12_high_01,001,2023-05-10_11h33.37.701,expectation_shapes_perceived_time,2022.2.4,119.94348267536306,
,-33,0.8,met,,red,green,,260.48273184810387,,,,,0,66,66,99,trial,,,,,,red,0.2604827318481039,0.2583333333333333,2.3001579999690875,0.9974441000376828,1e-05,1e-05,,0.25835899997036904,0.29184079996775836,2.0000150999985635,,2.3001579999690875,2.3001579999690875,2.3001579999690875,0.0,2.500229400000535,3.2838097999920137,0.9836518000229262,0.9836518000229262,0.13523,0.06092810101902796,0.13468317067364075,,,,None,,-0.033,-0.03333333333333333,0.1941527318481039,0.19166666666666665,trial_list_0.8_red.csv,0.19161049998365343,0.22504499997012317,p12_high_01,001,2023-05-10_11h33.37.701,expectation_shapes_perceived_time,2022.2.4,119.94348267536306,
,33,0.8,met,,red,green,,341.9780433687534,,,,,0,67,67,0,trial,,,,,,red,0.34197804336875337,0.3416666666666667,2.300028400029987,0.9975106999627315,1e-05,1e-05,0.03325,0.34137370000826195,0.37477679998846725,1.9999774000025354,2.0332939000218175,2.300028400029987,2.300028400029987,2.7502994000096805,0.45027099997969344,2.499644400028046,3.599650999996811,1.299622599966824,0.8493515999871306,0.19809,0.08616748785577541,0.12011225579895968,,,,None,,0.033,0.03333333333333333,0.40830804336875337,0.4083333333333333,trial_list_0.8_red.csv,0.40790370001923293,0.4414795999764465,p12_high_01,001,2023-05-10_11h33.37.701,expectation_shapes_perceived_time,2022.2.4,119.94348267536306,
,33,0.8,met,,red,green,,1285.5671483402016,,,,,0,68,68,7,trial,,,,,,red,1.2855671483402016,1.2833333333333332,2.299914599978365,0.9982195000047795,1e-05,1e-05,0.03308,1.2830480000120588,1.3167483999859542,1.9998774999985471,2.033182199986186,2.299914599978365,2.299914599978365,3.3164486999739893,1.0165340999956243,2.499545999977272,6.541802799969446,4.241888199991081,3.2253540999954566,1.41208,-0.14222005303041058,-0.04031434574090379,,,,None,,0.033,0.03333333333333333,1.3518971483402016,1.35,trial_list_0.8_red.csv,1.3497468999703415,1.3828435000032187,p12_high_01,001,2023-05-10_11h33.37.701,expectation_shapes_perceived_time,2022.2.4,119.94348267536306,
,-300,0.8,met,,red,green,,1783.9497202480077,,,,,0,69,69,65,trial,,,,,,red,1.7839497202480077,1.7833333333333332,2.3001552000059746,0.9971462999819778,1e-05,1e-05,0.03366,1.7832947000279091,1.8168682000250556,2.00057159998687,2.033260299998801,2.3001552000059746,2.3001552000059746,2.8920900999801233,0.5919348999741487,2.5001600999967195,4.283717099984642,1.9835618999786675,1.3916270000045188,0.85085,0.06675919024938913,-0.13189010756586633,,,,None,,-0.3,-0.3,1.4506197202480078,1.45,trial_list_0.8_red.csv,1.4501588999992236,1.4834519000141881,p12_high_01,001,2023-05-10_11h33.37.701,expectation_shapes_perceived_time,2022.2.4,119.94348267536306,
,33,0.8,met,,red,green,,963.8609215056596,,,,,0,70,70,281,trial,,,,,,red,0.9638609215056596,0.9666666666666667,2.30006780003896,0.9962816000333987,1e-05,1e-05,0.03332,0.9668008000007831,1.000097900046967,2.0001158000086434,2.033445800014306,2.30006780003896,2.30006780003896,3.141906300035771,0.8418384999968112,2.5005738000036217,5.916885300015565,3.616817499976605,2.774978999979794,1.36843,-0.13537502696899037,-0.059375011828504555,,,,None,,0.033,0.03333333333333333,1.0301909215056597,1.0333333333333332,trial_list_0.8_red.csv,1.0332748000510037,1.066668400017079,p12_high_01,001,2023-05-10_11h33.37.701,expectation_shapes_perceived_time,2022.2.4,119.94348267536306,
,-233,0.8,met,,red,green,,1392.5501985989397,,,,,0,71,71,359,trial,,,,,,red,1.3925501985989397,1.3916666666666666,2.300005199969746,0.9978926000185311,2e-05,2e-05,0.03316,1.3916563999955542,1.4253051999839954,2.0000017000129446,2.033589500002563,2.300005199969746,2.300005199969746,3.1165143999969587,0.8165092000272125,2.500004399975296,4.641876199981198,2.3418710000114515,1.525361799984239,1.90723,-0.04247677288753861,0.14158924295846204,,,,None,,-0.233,-0.23333333333333334,1.1262201985989397,1.125,trial_list_0.8_red.csv,1.1255102999857627,1.158443399996031,p12_high_01,001,2023-05-10_11h33.37.701,expectation_shapes_perceived_time,2022.2.4,119.94348267536306,
,100,0.8,met,,red,green,,1467.8019524205424,,,,,0,72,72,157,trial,,,,,,red,1.4678019524205423,1.4666666666666666,2.299850100011099,0.9979596000048332,2e-05,2e-05,0.03325,1.466336500016041,1.4999685000511818,1.9995074000325985,2.0333283000509255,2.299850100011099,2.299850100011099,2.299850100011099,0.0,2.4996824000263587,3.4079049000283703,1.1080548000172712,1.1080548000172712,1.76753,-0.09861599054774364,0.1101211894449804,,,,None,,0.1,0.1,1.6011319524205423,1.6,trial_list_0.8_red.csv,1.6000359000172466,1.6328482000390068,p12_high_01,001,2023-05-10_11h33.37.701,expectation_shapes_perceived_time,2022.2.4,119.94348267536306,
,300,0.8,met,,red,green,,151.81594375972577,,,,,0,73,73,354,trial,,,,,,red,0.15181594375972576,0.15,2.299677699978929,0.9985955000156537,1e-05,1e-05,0.03344,0.1497271999833174,0.18309110001428053,2.000261200009845,2.033227599982638,2.299677699978929,2.299677699978929,2.299677699978929,0.0,2.499979300017003,3.2830804000259377,0.9834027000470087,0.9834027000470087,0.11497,0.05224091232200848,0.1382847679111989,,,,None,,0.3,0.3,0.48514594375972575,0.48333333333333334,trial_list_0.8_red.csv,0.48336259997449815,0.5164531000191346,p12_high_01,001,2023-05-10_11h33.37.701,expectation_shapes_perceived_time,2022.2.4,119.94348267536306,
,233,0.8,met,,red,green,,885.0614629109144,,,,,0,74,74,252,trial,,,,,,red,0.8850614629109145,0.8833333333333333,2.3000016000005417,0.9983076999778859,2e-05,2e-05,,0.8834725000197068,0.9164892000262626,2.0003933000261895,,2.3000016000005417,2.3000016000005417,2.3000016000005417,0.0,2.499956600018777,2.9832164000254124,0.6832148000248708,0.6832148000248708,0.9131,0.039857641852566836,-0.14234872090202438,,,,None,,0.233,0.23333333333333334,1.1513914629109145,1.15,trial_list_0.8_red.csv,1.150337999977637,1.1835495000123046,p12_high_01,001,2023-05-10_11h33.37.701,expectation_shapes_perceived_time,2022.2.4,119.94348267536306,
,33,0.8,met,,red,green,,494.9334294282805,0,0,0,0,0,75,75,433,fam,0.5408172000315972,0.5408172000315972,270.0,2.5404872000217438,2.5404872000217438,,,,,,,,,,,,,,,,,,,,,,,,,,,,,,,,,,,,p12_high_01,001,2023-05-10_11h33.37.701,expectation_shapes_perceived_time,2022.2.4,119.94348267536306,
,33,0.8,met,,red,green,,494.9334294282805,1,0,1,0,0,75,75,433,fam,0.4982200000085868,0.4982200000085868,270.0,2.498469899990596,2.498469899990596,,,,,,,,,,,,,,,,,,,,,,,,,,,,,,,,,,,,p12_high_01,001,2023-05-10_11h33.37.701,expectation_shapes_perceived_time,2022.2.4,119.94348267536306,
,33,0.8,met,,red,green,,494.9334294282805,2,0,2,0,0,75,75,433,fam,0.4979219999513589,0.4979219999513589,270.0,2.4980029999860562,2.4980029999860562,,,,,,,,,,,,,,,,,,,,,,,,,,,,,,,,,,,,p12_high_01,001,2023-05-10_11h33.37.701,expectation_shapes_perceived_time,2022.2.4,119.94348267536306,
,33,0.8,met,,red,green,,494.9334294282805,3,0,3,0,0,75,75,433,fam,0.4986016000038944,0.4986016000038944,270.0,2.4987440000404604,2.4987440000404604,,,,,,,,,,,,,,,,,,,,,,,,,,,,,,,,,,,,p12_high_01,001,2023-05-10_11h33.37.701,expectation_shapes_perceived_time,2022.2.4,119.94348267536306,
,33,0.8,met,,red,green,,494.9334294282805,,,,,0,75,75,433,trial,,,,,,red,0.4949334294282805,0.49166666666666664,2.3002439999836497,0.9909952000016347,1e-05,1e-05,0.03316,0.4916967999888584,0.5248329000314698,1.9998527999850921,2.033066600037273,2.3002439999836497,2.3002439999836497,2.3002439999836497,0.0,2.4996830000309274,3.2496565000037663,0.9494125000201166,0.9494125000201166,0.27147,0.11133578604790098,0.09724264857348314,,,,None,,0.033,0.03333333333333333,0.5612634294282806,0.5583333333333333,trial_list_0.8_red.csv,0.558214400021825,0.5921236000140198,p12_high_01,001,2023-05-10_11h33.37.701,expectation_shapes_perceived_time,2022.2.4,119.94348267536306,
,100,0.8,met,,red,green,,1610.146322310149,,,,,0,76,76,287,trial,,,,,,red,1.6101463223101489,1.6083333333333334,2.300130399991758,0.997891399951186,2e-05,2e-05,0.03331,1.6084735000040382,1.641903400013689,2.000034099968616,2.0337296000216156,2.300130399991758,2.300130399991758,2.383540400012862,0.08341000002110377,2.5003622000222094,3.3252797999884933,1.0251493999967352,0.9417393999756314,0.82219,0.07834630333465029,-0.12535408533544046,,,,None,,0.1,0.1,1.7434763223101488,1.7416666666666667,trial_list_0.8_red.csv,1.7419543999712914,1.7752179999952205,p12_high_01,001,2023-05-10_11h33.37.701,expectation_shapes_perceived_time,2022.2.4,119.94348267536306,
,167,0.8,met,,red,green,,1356.1407489737628,,,,,0,77,77,413,trial,,,,,,red,1.356140748973763,1.3583333333333334,2.2994138000067323,0.9971672000247054,6e-05,6e-05,0.03288,1.3580478000221774,1.3913132000016049,1.9993774000322446,2.032733100000769,2.2994138000067323,2.2994138000067323,2.2994138000067323,0.0,2.4994953999994323,4.241014000028372,1.9416002000216395,1.9416002000216395,0.75239,0.10373815640026665,-0.10530994664875552,,,,None,,0.167,0.16666666666666666,1.5564707489737628,1.5583333333333333,trial_list_0.8_red.csv,1.5577784000197425,1.5912850000313483,p12_high_01,001,2023-05-10_11h33.37.701,expectation_shapes_perceived_time,2022.2.4,119.94348267536306,
,233,0.8,met,,red,green,,536.0391362491139,,,,,0,78,78,156,trial,,,,,,red,0.5360391362491139,0.5333333333333333,2.3003909999970347,0.998777800006792,2e-05,2e-05,0.03343,0.53355819999706,0.566640000033658,1.9999136000405997,2.033769600035157,2.3003909999970347,2.3003909999970347,2.725118400005158,0.42472740000812337,2.5002814999897964,3.825118000037037,1.5247270000400022,1.0999996000318788,0.80216,0.08607422516358304,-0.12017910683217252,,,,None,,0.233,0.23333333333333334,0.8023691362491139,0.8,trial_list_0.8_red.csv,0.8000990000437014,0.833361099998001,p12_high_01,001,2023-05-10_11h33.37.701,expectation_shapes_perceived_time,2022.2.4,119.94348267536306,
,-233,0.8,met,,red,green,,929.0371478645862,,,,,0,79,79,485,trial,,,,,,red,0.9290371478645862,0.9249999999999999,2.2996897000120953,0.9981942999875173,6e-05,6e-05,,0.9248586000176147,0.9581756999832578,1.9998544999980368,,2.2996897000120953,2.2996897000120953,2.2996897000120953,0.0,2.499598199967295,5.366326299961656,3.066636599949561,3.066636599949561,1.21686,-0.09309953577441041,-0.11482276078843952,,,,None,,-0.233,-0.23333333333333334,0.6627071478645862,0.6583333333333333,trial_list_0.8_red.csv,0.6580961999716237,0.6915519000031054,p12_high_01,001,2023-05-10_11h33.37.701,expectation_shapes_perceived_time,2022.2.4,119.94348267536306,
,233,0.1999999999999999,unmet,,green,red,,738.4881272324988,,,,,0,80,80,48,trial,,,,,,green,0.7384881272324988,0.7416666666666667,2.300130399991758,0.9972417000099085,2e-05,2e-05,0.03351,0.7417872999794781,0.7750401999801397,2.00027640000917,2.0338024999946356,2.300130399991758,2.300130399991758,2.300130399991758,0.0,2.500436800008174,9.592239800025709,7.292109400033951,7.292109400033951,0.59358,0.14148161824668462,-0.04283388442330819,,,,None,,0.233,0.23333333333333334,1.0048181272324987,1.0083333333333333,trial_list_0.8_red.csv,1.008803499978967,1.0419712000293657,p12_high_01,001,2023-05-10_11h33.37.701,expectation_shapes_perceived_time,2022.2.4,119.94348267536306,
,-100,0.8,met,,red,green,,517.2393194569406,,,,,0,81,81,194,trial,,,,,,red,0.5172393194569406,0.5166666666666666,2.299788699951023,0.9981641999911517,2e-05,2e-05,0.03333,0.5162469999631867,0.5498511999612674,1.9996493999497034,2.033152899995912,2.299788699951023,2.299788699951023,2.4580717999488115,0.15828309999778867,2.499807199987117,3.4001368999597616,1.1003482000087388,0.9420651000109501,0.33075,0.12741414062990233,0.07494949448817782,,,,None,,-0.1,-0.1,0.3839093194569406,0.3833333333333333,trial_list_0.8_red.csv,0.38307409995468333,0.41657319996738806,p12_high_01,001,2023-05-10_11h33.37.701,expectation_shapes_perceived_time,2022.2.4,119.94348267536306,
,100,0.8,met,,red,green,,945.3452964185878,,,,,0,82,82,297,trial,,,,,,red,0.9453452964185879,0.9416666666666667,2.2997310000355355,0.9959427999565378,1e-05,1e-05,0.03302,0.9417529000202194,0.9748844000278041,1.9997192000155337,2.033355700026732,2.2997310000355355,2.2997310000355355,2.2997310000355355,0.0,2.499795100011397,4.1996930000022985,1.899961999966763,1.899961999966763,1.3121,-0.12280733371852329,-0.0822809135914106,,,,None,,0.1,0.1,1.0786752964185877,1.075,trial_list_0.8_red.csv,1.0749142999993637,1.1081018000259064,p12_high_01,001,2023-05-10_11h33.37.701,expectation_shapes_perceived_time,2022.2.4,119.94348267536306,
,-167,0.1999999999999999,unmet,,green,red,,1454.3579525000284,,,,,0,83,83,426,trial,,,,,,green,1.4543579525000285,1.45,2.2999536999850534,0.9981478999834508,1e-05,1e-05,0.03291,1.449880599975586,1.483293200028129,1.9997721000108868,2.033294000022579,2.2999536999850534,2.2999536999850534,2.333474799990654,0.0335211000056006,2.500135299982503,7.032931299996562,4.732977600011509,4.699456500005908,0.68717,0.12299659457712617,-0.08199772971808414,,,,None,,-0.167,-0.16666666666666666,1.2540279525000284,1.25,trial_list_0.8_red.csv,1.2498477000044659,1.2835365000064485,p12_high_01,001,2023-05-10_11h33.37.701,expectation_shapes_perceived_time,2022.2.4,119.94348267536306,
,-33,0.8,met,,red,green,,805.9654137375111,,,,,0,84,84,470,trial,,,,,,red,0.8059654137375111,0.8083333333333333,2.3001689999946393,0.9977491999743506,1e-05,1e-05,,0.8085001999861561,0.8416327000013553,2.000195699976757,,2.3001689999946393,2.3001689999946393,2.3001689999946393,0.0,2.4998737000278197,4.150370899995323,1.850201900000684,1.850201900000684,0.38024,0.1374835491588904,0.05431448855659867,,,,None,,-0.033,-0.03333333333333333,0.7396354137375111,0.7416666666666667,trial_list_0.8_red.csv,0.7416351999854669,0.7751193000003695,p12_high_01,001,2023-05-10_11h33.37.701,expectation_shapes_perceived_time,2022.2.4,119.94348267536306,
,33,0.8,met,,red,green,,602.1881318608087,,,,,0,85,85,235,trial,,,,,,red,0.6021881318608087,0.6,2.3000478000030853,0.9981246999814175,2e-05,2e-05,,0.6001445000292733,0.633448300010059,2.000226400035899,,2.3000478000030853,2.3000478000030853,2.3000478000030853,0.0,2.5003670000005513,4.058788500027731,1.7587407000246458,1.7587407000246458,0.48617,0.14768398750074158,0.006421042934814851,,,,None,,0.033,0.03333333333333333,0.6685181318608087,0.6666666666666666,trial_list_0.8_red.csv,0.6670838000136428,0.700527900015004,p12_high_01,001,2023-05-10_11h33.37.701,expectation_shapes_perceived_time,2022.2.4,119.94348267536306,
,-100,0.8,met,,red,green,,298.6260089670544,,,,,0,86,86,486,trial,,,,,,red,0.29862600896705443,0.3,2.300371000019368,0.9972308999858797,1e-05,1e-05,,0.3003544000093825,0.3336909000063315,2.00007980002556,,2.300371000019368,2.300371000019368,2.300371000019368,0.0,2.5004748000064865,3.64183989999583,1.3414688999764621,1.3414688999764621,0.10999,0.0500707005310019,0.13908527925278308,,,,None,,-0.1,-0.1,0.16529600896705443,0.16666666666666666,trial_list_0.8_red.csv,0.16666450002230704,0.20070680003846064,p12_high_01,001,2023-05-10_11h33.37.701,expectation_shapes_perceived_time,2022.2.4,119.94348267536306,
,33,0.8,met,,red,green,,1266.8998116126525,,,,,0,87,87,463,trial,,,,,,red,1.2668998116126524,1.2666666666666666,2.3000573000172153,0.9978550000232644,1e-05,1e-05,,1.2667628000490367,1.299934700015001,2.0000735000357963,,2.3000573000172153,2.3000573000172153,2.3164956000400707,0.0164383000228554,2.4998979000374675,2.933358100010082,0.6333007999928668,0.6168624999700114,1.71827,-0.1144090841598405,0.09360743249441497,,,,None,,0.033,0.03333333333333333,1.3332298116126524,1.3333333333333333,trial_list_0.8_red.csv,1.3334385000052862,1.3666286000516266,p12_high_01,001,2023-05-10_11h33.37.701,expectation_shapes_perceived_time,2022.2.4,119.94348267536306,
,33,0.8,met,,red,green,,560.2102752615535,,,,,0,88,88,492,trial,,,,,,red,0.5602102752615535,0.5583333333333333,2.3001661999733187,0.9978254000307061,1e-05,1e-05,0.03359,0.5583082999801263,0.592080199974589,2.0005377999623306,2.033933700004127,2.3001661999733187,2.3001661999733187,2.3667263999814168,0.06656020000809804,2.499961199995596,3.166547000000719,0.8663808000274003,0.7998206000193022,0.59663,0.14106430544151546,-0.044188818572040996,,,,None,,0.033,0.03333333333333333,0.6265402752615535,0.625,trial_list_0.8_red.csv,0.6255661000031978,0.6582176999654621,p12_high_01,001,2023-05-10_11h33.37.701,expectation_shapes_perceived_time,2022.2.4,119.94348267536306,
,33,0.8,met,,red,green,,882.8398949493399,,,,,0,89,89,5,trial,,,,,,red,0.8828398949493399,0.8833333333333333,2.299963299999945,0.9980574999935925,1e-05,1e-05,,0.8833314999938011,0.9169666999951005,2.0002197999856435,,2.299963299999945,2.299963299999945,2.299963299999945,0.0,2.500043799984269,3.2999990999815054,1.0000357999815606,1.0000357999815606,0.57241,0.1440154189188146,-0.033336902527503376,,,,None,,0.033,0.03333333333333333,0.9491698949493399,0.95,trial_list_0.8_red.csv,0.95040929998504,0.9834511000080965,p12_high_01,001,2023-05-10_11h33.37.701,expectation_shapes_perceived_time,2022.2.4,119.94348267536306,
,300,0.8,met,,red,green,,1169.7738290837715,,,,,0,90,90,59,trial,,,,,,red,1.1697738290837716,1.1666666666666667,2.2994428999954835,0.9988448999938555,0.00013,0.00013,,1.166651199979242,1.199660699989181,1.9994698999798857,,2.2994428999954835,2.2994428999954835,2.2994428999954835,0.0,2.4998848999966867,3.2084431999828666,0.9090002999873832,0.9090002999873832,1.21013,-0.09064845124512873,-0.11676749651914886,,,,None,,0.3,0.3,1.5031038290837715,1.5,trial_list_0.8_red.csv,1.499751799972728,1.5332979999948293,p12_high_01,001,2023-05-10_11h33.37.701,expectation_shapes_perceived_time,2022.2.4,119.94348267536306,
,300,0.1999999999999999,unmet,,green,red,,339.3011856171952,,,,,0,91,91,409,trial,,,,,,green,0.3393011856171952,0.3416666666666667,2.3004992000060156,0.9965216999989934,2e-05,2e-05,,0.3414382000337355,0.3747323999996297,1.9997093999991193,,2.3004992000060156,2.3004992000060156,2.3004992000060156,0.0,2.499983300047461,3.6750394999980927,1.374540299992077,1.374540299992077,0.26383,0.10896871203594123,0.09988798603294612,,,,None,,0.3,0.3,0.6726311856171953,0.675,trial_list_0.8_red.csv,0.6749691000441089,0.7081047000247054,p12_high_01,001,2023-05-10_11h33.37.701,expectation_shapes_perceived_time,2022.2.4,119.94348267536306,
,-167,0.1999999999999999,unmet,,green,red,,466.0289331282945,,,,,0,92,92,63,trial,,,,,,green,0.4660289331282945,0.4666666666666667,2.3002934000105597,0.9971621999866329,1e-05,1e-05,0.03319,0.4672446000040509,0.5002360999933444,2.0001190999755636,2.0333770000142977,2.3002934000105597,2.3002934000105597,3.108551000012085,0.8082576000015251,2.500059899990447,5.750102300022263,3.4498089000117034,2.6415513000101782,1.23326,-0.09888871435018512,-0.10987634927798347,,,,None,,-0.167,-0.16666666666666666,0.2656989331282945,0.26666666666666666,trial_list_0.8_red.csv,0.2665479999850504,0.30027240002527833,p12_high_01,001,2023-05-10_11h33.37.701,expectation_shapes_perceived_time,2022.2.4,119.94348267536306,
,-33,0.1999999999999999,unmet,,green,red,,269.6596666898914,,,,,0,93,93,310,trial,,,,,,green,0.26965966668989144,0.26666666666666666,2.299851000017952,0.997702999971807,2e-05,2e-05,0.03311,0.266795200004708,0.2997913000290282,1.9996442000265233,2.033530700020492,2.299851000017952,2.299851000017952,2.366421100043226,0.06657010002527386,2.499706500035245,3.1579880000208504,0.8581370000028983,0.7915668999776244,0.1626,0.07227021121613905,0.12895272981703246,,,,None,,-0.033,-0.03333333333333333,0.20332966668989144,0.2,trial_list_0.8_red.csv,0.19981250003911555,0.233283500012476,p12_high_01,001,2023-05-10_11h33.37.701,expectation_shapes_perceived_time,2022.2.4,119.94348267536306,
,-33,0.8,met,,red,green,,1542.9734386660396,,,,,0,94,94,226,trial,,,,,,red,1.5429734386660396,1.5416666666666667,2.300338900007773,0.9983787999954075,2e-05,2e-05,0.03335,1.5417248000157997,1.5756244999938644,2.000254699960351,2.033709999988787,2.300338900007773,2.300338900007773,2.42525490000844,0.12491600000066683,2.5002722999779508,5.216700099990703,2.91636119998293,2.791445199982263,0.25,0.1045270059757045,0.1045270059757045,,,,None,,-0.033,-0.03333333333333333,1.4766434386660396,1.475,trial_list_0.8_red.csv,1.4752964999643154,1.5090404999791645,p12_high_01,001,2023-05-10_11h33.37.701,expectation_shapes_perceived_time,2022.2.4,119.94348267536306,
,233,0.8,met,,red,green,,276.7335369001908,,,,,0,95,95,80,trial,,,,,,red,0.2767335369001908,0.275,2.300525199971162,0.9974084999994375,1e-05,1e-05,,0.27500540000619367,0.3083354000118561,1.9997840999858454,,2.300525199971162,2.300525199971162,2.300525199971162,0.0,2.500127599982079,5.625013299984857,3.3244881000136957,3.3244881000136957,1.36136,-0.1340228940435646,-0.062367089307401355,,,,None,,0.233,0.23333333333333334,0.5430635369001908,0.5416666666666666,trial_list_0.8_red.csv,0.5417800999712199,0.5748366999905556,p12_high_01,001,2023-05-10_11h33.37.701,expectation_shapes_perceived_time,2022.2.4,119.94348267536306,
,300,0.8,met,,red,green,,1222.592120873495,,,,,0,96,96,466,trial,,,,,,red,1.2225921208734951,1.225,2.3000347000197507,0.9984888000180945,1e-05,1e-05,0.03361,1.2251224999781698,1.2583768999902532,2.000058399979025,2.0334275999921374,2.3000347000197507,2.3000347000197507,2.3000347000197507,0.0,2.5002356999902986,3.6749366999720223,1.3749019999522716,1.3749019999522716,1.76726,-0.0987097775456693,0.1100371290673035,,,,None,,0.3,0.3,1.555922120873495,1.5583333333333333,trial_list_0.8_red.csv,1.5583147999714129,1.5918772000004537,p12_high_01,001,2023-05-10_11h33.37.701,expectation_shapes_perceived_time,2022.2.4,119.94348267536306,
,300,0.1999999999999999,unmet,,green,red,,1143.621251193435,,,,,0,97,97,12,trial,,,,,,green,1.143621251193435,1.1416666666666666,2.2999103000038303,0.9973110999562778,2e-05,2e-05,,1.141732000047341,1.1751854000031017,1.9999301000498235,,2.2999103000038303,2.2999103000038303,2.2999103000038303,0.0,2.50005960004637,3.0417781000141986,0.7418678000103682,0.7418678000103682,1.78374,-0.09288299630940403,0.11499799543069071,,,,None,,0.3,0.3,1.4769512511934348,1.475,trial_list_0.8_red.csv,1.4750971000175923,1.508402000006754,p12_high_01,001,2023-05-10_11h33.37.701,expectation_shapes_perceived_time,2022.2.4,119.94348267536306,
,300,0.8,met,,red,green,,1386.877953483229,,,,,0,98,98,25,trial,,,,,,red,1.386877953483229,1.3833333333333333,2.2995586000033654,0.9984154000412673,1e-05,1e-05,,1.3833436999702826,1.4161933999857865,1.9998170000035316,,2.2995586000033654,2.2995586000033654,2.824709000007715,0.5251504000043496,2.4996754999738187,3.7831135999877006,1.4835549999843352,0.9584045999799855,1.71166,-0.11632801911247517,0.0912117422586453,,,,None,,0.3,0.3,1.7202079534832289,1.7166666666666666,trial_list_0.8_red.csv,1.7161220000125468,1.7494414999964647,p12_high_01,001,2023-05-10_11h33.37.701,expectation_shapes_perceived_time,2022.2.4,119.94348267536306,
,-300,0.8,met,,red,green,,529.3001569512254,,,,,0,99,99,353,trial,,,,,,red,0.5293001569512255,0.525,2.3001200000289828,0.99785659997724,1e-05,1e-05,0.03359,0.5250089000328444,0.5582155000302009,1.9999675000435673,2.033283800003119,2.3001200000289828,2.3001200000289828,2.3001200000289828,0.0,2.5000176000175998,3.250478000030853,0.9503580000018701,0.9503580000018701,0.19336,0.08437338146069041,0.12137925052239673,,,,None,,-0.3,-0.3,0.1959701569512254,0.2,trial_list_0.8_red.csv,0.20014950004406273,0.23328460002085194,p12_high_01,001,2023-05-10_11h33.37.701,expectation_shapes_perceived_time,2022.2.4,119.94348267536306,
,33,0.8,met,,red,green,,552.7629116139294,0,0,0,0,0,100,100,243,fam,0.5401814000215381,0.5401814000215381,270.0,2.540060800034553,2.540060800034553,,,,,,,,,,,,,,,,,,,,,,,,,,,,,,,,,,,,p12_high_01,001,2023-05-10_11h33.37.701,expectation_shapes_perceived_time,2022.2.4,119.94348267536306,
,33,0.8,met,,red,green,,552.7629116139294,1,0,1,0,0,100,100,243,fam,0.49834339995868504,0.49834339995868504,270.0,2.498409599997103,2.498409599997103,,,,,,,,,,,,,,,,,,,,,,,,,,,,,,,,,,,,p12_high_01,001,2023-05-10_11h33.37.701,expectation_shapes_perceived_time,2022.2.4,119.94348267536306,
,33,0.8,met,,red,green,,552.7629116139294,2,0,2,0,0,100,100,243,fam,0.4984213000279851,0.4984213000279851,270.0,2.4984243999933824,2.4984243999933824,,,,,,,,,,,,,,,,,,,,,,,,,,,,,,,,,,,,p12_high_01,001,2023-05-10_11h33.37.701,expectation_shapes_perceived_time,2022.2.4,119.94348267536306,
,33,0.8,met,,red,green,,552.7629116139294,3,0,3,0,0,100,100,243,fam,0.49839830002747476,0.49839830002747476,270.0,2.4983097999938764,2.4983097999938764,,,,,,,,,,,,,,,,,,,,,,,,,,,,,,,,,,,,p12_high_01,001,2023-05-10_11h33.37.701,expectation_shapes_perceived_time,2022.2.4,119.94348267536306,
,33,0.8,met,,red,green,,552.7629116139294,,,,,0,100,100,243,trial,,,,,,red,0.5527629116139294,0.55,2.300062900001649,0.9986625000019558,2e-05,2e-05,0.03337,0.5497009999817237,0.5832773000001907,1.9999590999796055,2.0333523000008427,2.300062900001649,2.300062900001649,2.300062900001649,0.0,2.4996829999727197,4.266437600017525,1.9663747000158764,1.9663747000158764,0.15421,0.06884827223148224,0.13081171723981627,,,,None,,0.033,0.03333333333333333,0.6190929116139294,0.6166666666666667,trial_list_0.8_red.csv,0.6165948999696411,0.6500552999787033,p12_high_01,001,2023-05-10_11h33.37.701,expectation_shapes_perceived_time,2022.2.4,119.94348267536306,
,-33,0.8,met,,red,green,,1714.7591007931264,,,,,0,101,101,91,trial,,,,,,red,1.7147591007931264,1.7166666666666666,2.300390300049912,0.9989072000025772,1e-05,1e-05,,1.7167770000523888,1.7499792000162415,2.000027600035537,,2.300390300049912,2.300390300049912,2.300390300049912,0.0,2.5002150000073016,3.1835940000019036,0.8832036999519914,0.8832036999519914,1.89382,-0.04840212658839875,0.1396747081550935,,,,None,,-0.033,-0.03333333333333333,1.6484291007931264,1.65,trial_list_0.8_red.csv,1.6499472000286914,1.6837235999992117,p12_high_01,001,2023-05-10_11h33.37.701,expectation_shapes_perceived_time,2022.2.4,119.94348267536306,
,167,0.1999999999999999,unmet,,green,red,,209.47668803540213,,,,,0,102,102,42,trial,,,,,,green,0.20947668803540215,0.20833333333333334,2.300373500038404,0.9979637000360526,2e-05,2e-05,0.03352,0.20834810001542792,0.2417183000361547,2.0000762000563554,2.0333592000533827,2.300373500038404,2.300373500038404,2.3166276000556536,0.016254100017249584,2.500039500009734,5.95857470005285,3.658201200014446,3.6419470999971963,0.15389,0.0687133782763301,0.13088262528824782,,,,None,,0.167,0.16666666666666666,0.40980668803540216,0.4083333333333333,trial_list_0.8_red.csv,0.4084188000415452,0.44166200002655387,p12_high_01,001,2023-05-10_11h33.37.701,expectation_shapes_perceived_time,2022.2.4,119.94348267536306,
,100,0.8,met,,red,green,,1052.7597386548582,,,,,0,103,103,341,trial,,,,,,red,1.0527597386548582,1.05,2.299339900026098,0.998847900016699,1e-05,1e-05,0.03277,1.0496623999788426,1.0827830000198446,1.9998544999980368,2.032654399983585,2.299339900026098,2.299339900026098,2.299339900026098,0.0,2.499374800012447,3.34115589997964,1.041815999953542,1.041815999953542,1.21478,-0.0923446142874532,-0.11543076785931652,,,,None,,0.1,0.1,1.1860897386548581,1.1833333333333333,trial_list_0.8_red.csv,1.182635199977085,1.2159685000078753,p12_high_01,001,2023-05-10_11h33.37.701,expectation_shapes_perceived_time,2022.2.4,119.94348267536306,
,-167,0.8,met,,red,green,,1467.7098505297545,,,,,0,104,104,329,trial,,,,,,red,1.4677098505297546,1.4666666666666666,2.2998116999515332,0.9978257999755442,4e-05,4e-05,0.03341,1.4664297999697737,1.4998249999480322,2.000060599995777,2.033446199959144,2.2998116999515332,2.2998116999515332,2.2998116999515332,0.0,2.5000623999512754,3.083146199991461,0.7833345000399277,0.7833345000399277,1.62937,-0.1357821842407135,0.05843790207828177,,,,None,,-0.167,-0.16666666666666666,1.2673798505297547,1.2666666666666666,trial_list_0.8_red.csv,1.2667753999703564,1.3000378999859095,p12_high_01,001,2023-05-10_11h33.37.701,expectation_shapes_perceived_time,2022.2.4,119.94348267536306,
,-33,0.8,met,,red,green,,1075.977587889513,,,,,0,105,105,81,trial,,,,,,red,1.075977587889513,1.075,2.299753699975554,0.9986259000143036,2e-05,2e-05,0.03299,1.0746430000290275,1.107898699992802,1.999894900014624,2.032978000002913,2.299753699975554,2.299753699975554,2.299753699975554,0.0,2.499838899995666,6.183280400000513,3.8835267000249587,3.8835267000249587,1.2071,-0.08953453185489585,-0.11762379675054946,,,,None,,-0.033,-0.03333333333333333,1.0096475878895128,1.0083333333333333,trial_list_0.8_red.csv,1.0082200000179,1.041262699989602,p12_high_01,001,2023-05-10_11h33.37.701,expectation_shapes_perceived_time,2022.2.4,119.94348267536306,
,300,0.8,met,,red,green,,836.6505771927284,,,,,0,106,106,16,trial,,,,,,red,0.8366505771927284,0.8333333333333334,2.2994766000192612,0.9980960999964736,1e-05,1e-05,,0.8329628999927081,0.8665470000123605,1.9996255000005476,,2.2994766000192612,2.2994766000192612,2.2994766000192612,0.0,2.499565700010862,6.4496303999912925,4.150153799972031,4.150153799972031,0.65332,0.13100495532142498,-0.0684798630089267,,,,None,,0.3,0.3,1.1699805771927283,1.1666666666666667,trial_list_0.8_red.csv,1.1662499000085518,1.1998342999722809,p12_high_01,001,2023-05-10_11h33.37.701,expectation_shapes_perceived_time,2022.2.4,119.94348267536306,
,167,0.8,met,,red,green,,975.6441488778396,,,,,0,107,107,213,trial,,,,,,red,0.9756441488778396,0.975,2.3000110000139102,0.9988446999923326,8e-05,8e-05,,0.9744537000078708,1.0078734999988228,1.9996699000475928,,2.3000110000139102,2.3000110000139102,2.3000110000139102,0.0,2.4998267000191845,9.941247800015844,7.641236800001934,7.641236800001934,1.31389,-0.12326878301026359,-0.08158797148880755,,,,None,,0.167,0.16666666666666666,1.1759741488778395,1.175,trial_list_0.8_red.csv,1.1745523000136018,1.2077668000129052,p12_high_01,001,2023-05-10_11h33.37.701,expectation_shapes_perceived_time,2022.2.4,119.94348267536306,
,-300,0.8,met,,red,green,,911.1164406129736,,,,,0,108,108,89,trial,,,,,,red,0.9111164406129736,0.9083333333333333,2.3003490999690257,0.997468999994453,1e-05,1e-05,0.03327,0.9085716999834403,0.9416153999627568,2.00009190000128,2.033579599985387,2.3003490999690257,2.3003490999690257,2.3003490999690257,0.0,2.499956499959808,4.533595399989281,2.233246300020255,2.233246300020255,0.43257,0.14451940441771977,0.031079441810262322,,,,None,,-0.3,-0.3,0.5777864406129736,0.575,trial_list_0.8_red.csv,0.5752370999543928,0.6082987999543548,p12_high_01,001,2023-05-10_11h33.37.701,expectation_shapes_perceived_time,2022.2.4,119.94348267536306,
,-33,0.1999999999999999,unmet,,green,red,,960.8745039071256,,,,,0,109,109,75,trial,,,,,,green,0.9608745039071256,0.9583333333333334,2.299590900016483,0.9979348999913782,1e-05,1e-05,0.03281,0.9577416999964043,0.9912019000039436,1.9996477999957278,2.0330625000060536,2.299590900016483,2.299590900016483,3.2912510000169277,0.9916601000004448,2.4994395000394434,4.0831272000214085,1.7835363000049256,0.7918762000044808,0.39474,0.13981474755495135,0.047996107369610165,,,,None,,-0.033,-0.03333333333333333,0.8945445039071256,0.8916666666666666,trial_list_0.8_red.csv,0.8911915000062436,0.9246230000280775,p12_high_01,001,2023-05-10_11h33.37.701,expectation_shapes_perceived_time,2022.2.4,119.94348267536306,
,233,0.8,met,,red,green,,1233.4204516936247,,,,,0,110,110,270,trial,,,,,,red,1.2334204516936247,1.2333333333333334,2.2997202000115067,0.9977835000026971,1e-05,1e-05,,1.2329897999879904,1.266326899989508,1.9998296999838203,,2.2997202000115067,2.2997202000115067,2.2997202000115067,0.0,2.4998618999961764,3.0081273000105284,0.7084070999990217,0.7084070999990217,1.69549,-0.1208099655054504,0.08518651413845861,,,,None,,0.233,0.23333333333333334,1.4997504516936246,1.5,trial_list_0.8_red.csv,1.4999077999964356,1.5331277000368573,p12_high_01,001,2023-05-10_11h33.37.701,expectation_shapes_perceived_time,2022.2.4,119.94348267536306,
,33,0.8,met,,red,green,,838.9799289526009,,,,,0,111,111,278,trial,,,,,,red,0.8389799289526009,0.8416666666666667,2.300172399962321,0.9969847000320442,2e-05,2e-05,0.03324,0.8417477000039071,0.8752107999753207,2.0002241999609396,2.0333026999724098,2.300172399962321,2.300172399962321,2.300172399962321,0.0,2.499967599986121,3.4421620999928564,1.1419897000305355,1.1419897000305355,0.87381,0.05708028733266932,-0.13635846418359893,,,,None,,0.033,0.03333333333333333,0.9053099289526009,0.9083333333333333,trial_list_0.8_red.csv,0.9084798999829218,0.9416809999966063,p12_high_01,001,2023-05-10_11h33.37.701,expectation_shapes_perceived_time,2022.2.4,119.94348267536306,
,-233,0.1999999999999999,unmet,,green,red,,520.9198468686066,,,,,0,112,112,160,trial,,,,,,green,0.5209198468686066,0.5166666666666666,2.2995602999581024,0.9976911999983713,0.0001,0.0001,,0.5161840999498963,0.5496202999493107,1.9993009999743663,,2.2995602999581024,2.2995602999581024,2.457889399956912,0.1583290999988094,2.4993049999466166,3.2579095999826677,0.9583493000245653,0.8000202000257559,0.25243,0.10532185345680853,0.10372606779837204,,,,None,,-0.233,-0.23333333333333334,0.2545898468686066,0.2583333333333333,trial_list_0.8_red.csv,0.25788559997454286,0.2911206999560818,p12_high_01,001,2023-05-10_11h33.37.701,expectation_shapes_perceived_time,2022.2.4,119.94348267536306,
,233,0.8,met,,red,green,,286.9326932117177,,,,,0,113,113,204,trial,,,,,,red,0.2869326932117177,0.2833333333333333,2.2999863000004552,0.9974422000232153,1e-05,1e-05,0.03326,0.28320720000192523,0.3172822999767959,2.0000312000047415,2.03361089999089,2.2999863000004552,2.2999863000004552,2.6335596999851987,0.33357339998474345,2.5000491999671794,4.0333999999566,1.7334136999561451,1.3998402999714017,0.18932,0.08282689713141084,0.12243976097686818,,,,None,,0.233,0.23333333333333334,0.5532626932117177,0.55,trial_list_0.8_red.csv,0.5505116999847814,0.5833699000068009,p12_high_01,001,2023-05-10_11h33.37.701,expectation_shapes_perceived_time,2022.2.4,119.94348267536306,
,100,0.1999999999999999,unmet,,green,red,,1629.1381102011717,,,,,0,114,114,499,trial,,,,,,green,1.6291381102011717,1.625,2.299976400041487,0.9977611000067554,5e-05,5e-05,,1.6248691999935545,1.6584267999860458,2.00009190000128,,2.299976400041487,2.299976400041487,2.299976400041487,0.0,2.499963200010825,6.175267199985683,3.875290799944196,3.875290799944196,0.46241,0.14679395364517667,0.01741623178841079,,,,None,,0.1,0.1,1.7624681102011717,1.7583333333333333,trial_list_0.8_red.csv,1.7583059000317007,1.7917815000400878,p12_high_01,001,2023-05-10_11h33.37.701,expectation_shapes_perceived_time,2022.2.4,119.94348267536306,
,33,0.1999999999999999,unmet,,green,red,,1587.9471415521505,,,,,0,115,115,71,trial,,,,,,green,1.5879471415521504,1.5833333333333333,2.299752199964132,0.9976702000130899,1e-05,1e-05,0.03316,1.5831392999971285,1.6163164000026882,1.9999107999610715,2.033118299965281,2.299752199964132,2.299752199964132,3.007910999993328,0.7081588000291958,2.5000723999692127,9.441546899965033,7.141794700000901,6.433635899971705,0.64892,0.13193843415276638,-0.06666362988771354,,,,None,,0.033,0.03333333333333333,1.6542771415521504,1.65,trial_list_0.8_red.csv,1.649641599971801,1.683012499997858,p12_high_01,001,2023-05-10_11h33.37.701,expectation_shapes_perceived_time,2022.2.4,119.94348267536306,
,-33,0.8,met,,red,green,,1757.60449203438,,,,,0,116,116,36,trial,,,,,,red,1.75760449203438,1.7583333333333333,2.300260799995158,0.9982760999700986,1e-05,1e-05,0.03318,1.7584690999938175,1.7919374000048265,1.999854099994991,2.033562200027518,2.300260799995158,2.300260799995158,2.300260799995158,0.0,2.4998514000326395,3.4831662999931723,1.1829054999980144,1.1829054999980144,1.89316,-0.04868894807364348,0.139574984477778,,,,None,,-0.033,-0.03333333333333333,1.69127449203438,1.6916666666666667,trial_list_0.8_red.csv,1.6917174000409432,1.7252739000250585,p12_high_01,001,2023-05-10_11h33.37.701,expectation_shapes_perceived_time,2022.2.4,119.94348267536306,
,-100,0.8,met,,red,green,,1785.0694796726866,,,,,0,117,117,31,trial,,,,,,red,1.7850694796726867,1.7833333333333332,2.299920099962037,0.9984400999965146,1e-05,1e-05,,1.7831952999695204,1.8163284999900497,2.0000679999939166,,2.299920099962037,2.299920099962037,2.516411099990364,0.2164910000283271,2.4996762999799103,3.1912558999611065,0.8913357999990694,0.6748447999707423,1.84345,-0.06980542645203792,0.13030346271047077,,,,None,,-0.1,-0.1,1.6517394796726868,1.65,trial_list_0.8_red.csv,1.6500161999720149,1.6830876999883913,p12_high_01,001,2023-05-10_11h33.37.701,expectation_shapes_perceived_time,2022.2.4,119.94348267536306,
,167,0.8,met,,red,green,,274.20771707491366,,,,,0,118,118,272,trial,,,,,,red,0.27420771707491365,0.275,2.3000060000340454,0.9981132000102662,2e-05,2e-05,0.03354,0.2750374000170268,0.3088104000198655,1.9999939000117593,2.033934800012503,2.3000060000340454,2.3000060000340454,2.9754085000022314,0.675402499968186,2.5001956000342034,5.708707300014794,3.4087012999807484,2.7332988000125624,1.85562,-0.06477659404403033,0.13287506470570323,,,,None,,0.167,0.16666666666666666,0.47453771707491366,0.475,trial_list_0.8_red.csv,0.4751663000206463,0.5088437999947928,p12_high_01,001,2023-05-10_11h33.37.701,expectation_shapes_perceived_time,2022.2.4,119.94348267536306,
,100,0.1999999999999999,unmet,,green,red,,1280.076199523361,,,,,0,119,119,356,trial,,,,,,green,1.2800761995233612,1.2833333333333332,2.299765400006436,0.9979916000156663,1e-05,1e-05,,1.283485199965071,1.316530900017824,1.9998748999787495,,2.299765400006436,2.299765400006436,2.833275399985723,0.5335099999792874,2.4999016000074334,7.749983299989253,5.4502178999828175,4.91670790000353,1.31183,-0.1227373159612982,-0.08238532167265221,,,,None,,0.1,0.1,1.413406199523361,1.4166666666666667,trial_list_0.8_red.csv,1.4165772999986075,1.4502356000011787,p12_high_01,001,2023-05-10_11h33.37.701,expectation_shapes_perceived_time,2022.2.4,119.94348267536306,
,-167,0.8,met,,red,green,,327.03807839916107,,,,,0,120,120,388,trial,,,,,,red,0.32703807839916105,0.325,2.3002686999971047,0.997592200001236,1e-05,1e-05,,0.325040599971544,0.35831809998489916,2.0000158000038937,,2.3002686999971047,2.3002686999971047,2.983141999982763,0.6828732999856584,2.500116800016258,3.8833175000036135,1.5830488000065088,0.9001755000208504,1.30703,-0.12148099517771975,-0.08422682332321903,,,,None,,-0.167,-0.16666666666666666,0.12670807839916107,0.125,trial_list_0.8_red.csv,0.12495139997918159,0.15792540000984445,p12_high_01,001,2023-05-10_11h33.37.701,expectation_shapes_perceived_time,2022.2.4,119.94348267536306,
,-233,0.8,met,,red,green,,1220.7071344256733,,,,,0,121,121,37,trial,,,,,,red,1.2207071344256732,1.2166666666666666,2.3002209999831393,0.9976041000336409,1e-05,1e-05,0.03362,1.216794099949766,1.2502332999720238,2.000231799960602,2.0331236999481916,2.3002209999831393,2.3002209999831393,3.2168306999956258,0.9166097000124864,2.5002148000057787,4.366590299992822,2.0663693000096828,1.1497595999971963,1.29333,-0.11774614096646197,-0.08937357687815786,,,,None,,-0.233,-0.23333333333333334,0.9543771344256733,0.95,trial_list_0.8_red.csv,0.9498161999508739,0.9835442999610677,p12_high_01,001,2023-05-10_11h33.37.701,expectation_shapes_perceived_time,2022.2.4,119.94348267536306,
,-300,0.8,met,,red,green,,1713.39779397526,,,,,0,122,122,120,trial,,,,,,red,1.7133977939752598,1.7166666666666666,2.300034800020512,0.996928000007756,2e-05,2e-05,,1.716864500020165,1.7499792000162415,2.0003450000076555,,2.300034800020512,2.300034800020512,2.300034800020512,0.0,2.5002386000123806,3.3000438999733888,1.0000090999528766,1.0000090999528766,1.68625,-0.12323306754713317,0.08164190724997572,,,,None,,-0.3,-0.3,1.38006779397526,1.3833333333333333,trial_list_0.8_red.csv,1.383474899979774,1.4166556000127457,p12_high_01,001,2023-05-10_11h33.37.701,expectation_shapes_perceived_time,2022.2.4,119.94348267536306,
,167,0.8,met,,red,green,,333.1107302045301,,,,,0,123,123,491,trial,,,,,,red,0.33311073020453014,0.3333333333333333,2.3003498999751173,0.9980838999617845,2e-05,2e-05,,0.3335510999895632,0.3671529999701306,1.999941200017929,,2.3003498999751173,2.3003498999751173,2.591832500009332,0.29148260003421456,2.5000621000071988,3.650458800024353,1.3501089000492357,1.0586263000150211,1.75,-0.1045270059757045,0.1045270059757045,,,,None,,0.167,0.16666666666666666,0.5334407302045302,0.5333333333333333,trial_list_0.8_red.csv,0.5336595000117086,0.5668706999858841,p12_high_01,001,2023-05-10_11h33.37.701,expectation_shapes_perceived_time,2022.2.4,119.94348267536306,
,100,0.8,met,,red,green,,1568.239731125289,,,,,0,124,124,88,trial,,,,,,red,1.568239731125289,1.5666666666666667,2.300033000006806,0.9970438999589533,2e-05,2e-05,,1.566815999976825,1.6001814000192098,2.00023649999639,,2.300033000006806,2.300033000006806,2.300033000006806,0.0,2.4999778000055812,3.441593300027307,1.141560300020501,1.141560300020501,1.7341,-0.10961642127883997,0.09917676210942664,,,,None,,0.1,0.1,1.7015697311252889,1.7,trial_list_0.8_red.csv,1.7000000000116415,1.7334603000199422,p12_high_01,001,2023-05-10_11h33.37.701,expectation_shapes_perceived_time,2022.2.4,119.94348267536306,
