id,delay,expectation,congruency,trial_num,stim_color,distractor_color,block,targetTimeMs,famLoop.thisRepN,famLoop.thisTrialN,famLoop.thisN,famLoop.thisIndex,trialss.thisRepN,trialss.thisTrialN,trialss.thisN,trialss.thisIndex,isTrial,handMove.started,audioCue2Start.started,handOri,handMove.ended,audioCue2End.started,target_color,expected_target_onset,expected_target_onset_in_frames,fixationPoint.started,fixationPoint.stopped,audCueStart.started,placeholder.started,target.started,target.stopped,audCueEnd.started,responsePointer.started,cueForRep.started,space2pass.started,responseStarted,rtUntillMotionTreshold,responsePointer.stopped,rTAfterMotionTreshold,rtDurationBtwRespMotion,perceivedTime,resp_x_coord,resp_y_coord,feedbackPointer.stopped,actualTime_x_coord,actualTime_y_coord,space2pass.keys,space2pass.rt,audCueStart.stopped,audCueEnd.stopped,expected_delay,expected_delays_frame,expected_distractor,expected_distractor_frame,expBlockFiles,distractor.started,distractor.stopped,participant,session,date,expName,psychopyVersion,frameRate,
,,,,,,,,,0,0,0,0,,,,,fam,1.4064939999952912,1.4064939999952912,269.99999999999955,3.414790200011339,3.414790200011339,,,,,,,,,,,,,,,,,,,,,,,,,,,,,,,,,,,,p12_base_01,001,2023-05-10_10h05.39.330,expectation_shapes_perceived_time,2022.2.4,120.37533025088442,
,,,,,,,,,1,0,1,0,,,,,fam,0.49737050000112504,0.49737050000112504,269.99999999999955,2.505716099985875,2.505716099985875,,,,,,,,,,,,,,,,,,,,,,,,,,,,,,,,,,,,p12_base_01,001,2023-05-10_10h05.39.330,expectation_shapes_perceived_time,2022.2.4,120.37533025088442,
,,,,,,,,,2,0,2,0,,,,,fam,0.49780539999483153,0.49780539999483153,269.99999999999955,2.5059076999896206,2.5059076999896206,,,,,,,,,,,,,,,,,,,,,,,,,,,,,,,,,,,,p12_base_01,001,2023-05-10_10h05.39.330,expectation_shapes_perceived_time,2022.2.4,120.37533025088442,
,,,,,,,,,3,0,3,0,,,,,fam,0.4975397000089288,0.4975397000089288,269.99999999999955,2.5058802000130527,2.5058802000130527,,,,,,,,,,,,,,,,,,,,,,,,,,,,,,,,,,,,p12_base_01,001,2023-05-10_10h05.39.330,expectation_shapes_perceived_time,2022.2.4,120.37533025088442,
,,,,,,,,,4,0,4,0,,,,,fam,0.4973131999722682,0.4973131999722682,269.99999999999955,2.505594399990514,2.505594399990514,,,,,,,,,,,,,,,,,,,,,,,,,,,,,,,,,,,,p12_base_01,001,2023-05-10_10h05.39.330,expectation_shapes_perceived_time,2022.2.4,120.37533025088442,
,,,,,,,,,5,0,5,0,,,,,fam,0.4976934000151232,0.4976934000151232,269.99999999999955,2.505638300033752,2.505638300033752,,,,,,,,,,,,,,,,,,,,,,,,,,,,,,,,,,,,p12_base_01,001,2023-05-10_10h05.39.330,expectation_shapes_perceived_time,2022.2.4,120.37533025088442,
,,,,,,,,,6,0,6,0,,,,,fam,0.49715830001514405,0.49715830001514405,269.99999999999955,2.505179300031159,2.505179300031159,,,,,,,,,,,,,,,,,,,,,,,,,,,,,,,,,,,,p12_base_01,001,2023-05-10_10h05.39.330,expectation_shapes_perceived_time,2022.2.4,120.37533025088442,
,,,,,,,,,7,0,7,0,,,,,fam,0.4972950000083074,0.4972950000083074,269.99999999999955,2.5052434999961406,2.5052434999961406,,,,,,,,,,,,,,,,,,,,,,,,,,,,,,,,,,,,p12_base_01,001,2023-05-10_10h05.39.330,expectation_shapes_perceived_time,2022.2.4,120.37533025088442,
,,,,,,,,,8,0,8,0,,,,,fam,0.4977324999636039,0.4977324999636039,269.99999999999955,2.505830899986904,2.505830899986904,,,,,,,,,,,,,,,,,,,,,,,,,,,,,,,,,,,,p12_base_01,001,2023-05-10_10h05.39.330,expectation_shapes_perceived_time,2022.2.4,120.37533025088442,
,,,,,,,,,9,0,9,0,,,,,fam,0.4974718999583274,0.4974718999583274,269.99999999999955,2.5057907999726012,2.5057907999726012,,,,,,,,,,,,,,,,,,,,,,,,,,,,,,,,,,,,p12_base_01,001,2023-05-10_10h05.39.330,expectation_shapes_perceived_time,2022.2.4,120.37533025088442,
,,,,,,,,,10,0,10,0,,,,,fam,0.4974229999934323,0.4974229999934323,269.99999999999955,2.5060016000061296,2.5060016000061296,,,,,,,,,,,,,,,,,,,,,,,,,,,,,,,,,,,,p12_base_01,001,2023-05-10_10h05.39.330,expectation_shapes_perceived_time,2022.2.4,120.37533025088442,
,,,,,,,,,11,0,11,0,,,,,fam,0.4973098000045866,0.4973098000045866,269.99999999999955,2.5055772000341676,2.5055772000341676,,,,,,,,,,,,,,,,,,,,,,,,,,,,,,,,,,,,p12_base_01,001,2023-05-10_10h05.39.330,expectation_shapes_perceived_time,2022.2.4,120.37533025088442,
,,,,,,,,,12,0,12,0,,,,,fam,0.4962551000062376,0.4962551000062376,269.99999999999955,2.5047162999981083,2.5047162999981083,,,,,,,,,,,,,,,,,,,,,,,,,,,,,,,,,,,,p12_base_01,001,2023-05-10_10h05.39.330,expectation_shapes_perceived_time,2022.2.4,120.37533025088442,
,,,,,,,,,13,0,13,0,,,,,fam,0.49731840001186356,0.49731840001186356,269.99999999999955,2.505611200002022,2.505611200002022,,,,,,,,,,,,,,,,,,,,,,,,,,,,,,,,,,,,p12_base_01,001,2023-05-10_10h05.39.330,expectation_shapes_perceived_time,2022.2.4,120.37533025088442,
,,,,,,,,,14,0,14,0,,,,,fam,0.4979647999862209,0.4979647999862209,269.99999999999955,2.506209500017576,2.506209500017576,,,,,,,,,,,,,,,,,,,,,,,,,,,,,,,,,,,,p12_base_01,001,2023-05-10_10h05.39.330,expectation_shapes_perceived_time,2022.2.4,120.37533025088442,
,,,,,,,,,15,0,15,0,,,,,fam,0.49717560003045946,0.49717560003045946,269.99999999999955,2.505170900025405,2.505170900025405,,,,,,,,,,,,,,,,,,,,,,,,,,,,,,,,,,,,p12_base_01,001,2023-05-10_10h05.39.330,expectation_shapes_perceived_time,2022.2.4,120.37533025088442,
,,,,,,,,,16,0,16,0,,,,,fam,0.49756840005284175,0.49756840005284175,269.99999999999955,2.50590850005392,2.50590850005392,,,,,,,,,,,,,,,,,,,,,,,,,,,,,,,,,,,,p12_base_01,001,2023-05-10_10h05.39.330,expectation_shapes_perceived_time,2022.2.4,120.37533025088442,
,,,,,,,,,17,0,17,0,,,,,fam,0.4974804000230506,0.4974804000230506,269.99999999999955,2.505956700013485,2.505956700013485,,,,,,,,,,,,,,,,,,,,,,,,,,,,,,,,,,,,p12_base_01,001,2023-05-10_10h05.39.330,expectation_shapes_perceived_time,2022.2.4,120.37533025088442,
,,,,,,,,,18,0,18,0,,,,,fam,0.49890619999496266,0.49890619999496266,269.99999999999955,2.507511399977375,2.507511399977375,,,,,,,,,,,,,,,,,,,,,,,,,,,,,,,,,,,,p12_base_01,001,2023-05-10_10h05.39.330,expectation_shapes_perceived_time,2022.2.4,120.37533025088442,
,,,,,,,,,19,0,19,0,,,,,fam,0.497396300022956,0.497396300022956,269.99999999999955,2.5059298999840394,2.5059298999840394,,,,,,,,,,,,,,,,,,,,,,,,,,,,,,,,,,,,p12_base_01,001,2023-05-10_10h05.39.330,expectation_shapes_perceived_time,2022.2.4,120.37533025088442,
,,,,,,,,,,,,,0,0,0,0,test,,,,,,green,0.40592894165625737,0.4083333333333333,2.3087752999854274,0.9983635999960825,1.869996776804328e-05,2e-05,0.40858920000027865,0.4420747999683954,2.000323899963405,2.3087752999854274,2.3087752999854274,2.6087649000110105,4.1751958999666385,1.8664205999812111,36.22498339996673,33.916208099981304,32.04978750000009,0.47114,0.14721642885242012,0.013383311713856375,36.22498339996673,0.1414149254319183,0.04305355759487137,space,33.6087714000023,,,,,,,,,,p12_base_01,001,2023-05-10_10h05.39.330,expectation_shapes_perceived_time,2022.2.4,120.37533025088442,
,,,,,,,,,,,,,1,0,1,0,test,,,,,,green,1.4507438693727515,1.4583333333333333,2.308374299958814,0.9970890000113286,3.8700003642588854e-05,4e-05,1.4585006999550387,1.4916230999515392,2.000143399985973,2.308374299958814,2.308374299958814,2.6083500999957323,4.208408799953759,1.9000344999949448,11.45788859995082,9.149514299992006,7.2494797999970615,1.12541,-0.05674627726908964,-0.1364978020797021,11.45788859995082,-0.14605719894433025,-0.022783428035005236,space,8.847499599971343,0.033287699974607676,2.0333069000043906,,,,,,,,p12_base_01,001,2023-05-10_10h05.39.330,expectation_shapes_perceived_time,2022.2.4,120.37533025088442,
,,,,,,,,,,,,,2,0,2,0,test,,,,,,green,0.6256792445875855,0.625,2.308443400019314,0.9985856999992393,3.1400006264448166e-05,3e-05,0.6250585000379942,0.6582311000092886,1.9999079999979585,2.308443400019314,2.308443400019314,2.608376300020609,3.4081289999885485,1.0996855999692343,8.75855650001904,6.450113099999726,5.3504275000304915,0.74293,0.10682345542439946,-0.10217895736246904,8.75855650001904,0.13645008954462085,-0.056860909417233874,space,6.150222299969755,0.033376800012774765,2.033380599983502,,,,,,,,p12_base_01,001,2023-05-10_10h05.39.330,expectation_shapes_perceived_time,2022.2.4,120.37533025088442,
,,,,,,,,,,,,,3,0,3,0,test,,,,,,red,1.252240794312406,1.2583333333333333,2.3084050999605097,0.9975877000251785,3.1699950341135263e-05,3e-05,1.2581077999784611,1.291488999966532,1.9999166999477893,2.3084050999605097,2.3084050999605097,2.608104499988258,3.641476899967529,1.3330718000070192,9.458154999942053,7.149749899981543,5.816678099974524,1.15238,-0.06809417246552121,-0.13120584450673597,9.458154999942053,-0.1052602447852425,-0.10378858715793733,space,6.847762400051579,,,,,,,,,,p12_base_01,001,2023-05-10_10h05.39.330,expectation_shapes_perceived_time,2022.2.4,120.37533025088442,
,,,,,,,,,,,,,4,0,4,0,test,,,,,,red,0.6708512916430602,0.675,2.3087331999558955,0.9984905000310391,1.5700003132224083e-05,2e-05,0.6751942999544553,0.7086007999605499,2.000845299975481,2.3087331999558955,2.3087331999558955,2.608741999953054,2.775493099994492,0.46675990003859624,7.250206700002309,4.941473500046413,4.474713600007817,0.74021,0.10769225502215703,-0.10126286666262525,7.250206700002309,0.1270362075064272,-0.07558830556953831,space,4.636534699995536,,,,,,,,,,p12_base_01,001,2023-05-10_10h05.39.330,expectation_shapes_perceived_time,2022.2.4,120.37533025088442,
,,,,,,,,,,,,,5,0,5,0,test,,,,,,green,0.2068093584065579,0.20833333333333334,2.3081766999675892,0.9972075000405312,3.63999861292541e-05,4e-05,0.20823819999350235,0.2416535000083968,1.9993171999813057,2.3081766999675892,2.3081766999675892,2.608009100018535,2.5830499000148848,0.27487320004729554,7.1075860999990255,4.799409400031436,4.524536199984141,0.24271,0.10210648664051195,0.10689272820178594,7.1075860999990255,0.08942673703756157,0.11770577156327014,space,4.49903710000217,,,,,,,,,,p12_base_01,001,2023-05-10_10h05.39.330,expectation_shapes_perceived_time,2022.2.4,120.37533025088442,
,,,,,,,,,,,,,6,0,6,0,test,,,,,,red,0.9520513206038289,0.9583333333333334,2.3081891000038013,0.9989497999777086,4.050001734867692e-05,4e-05,0.9583159000030719,0.9917056999984197,1.9998414000147022,2.3081891000038013,2.3081891000038013,2.6084611999685876,2.749901500006672,0.4417124000028707,7.083130499988329,4.774941399984527,4.333228999981657,0.80216,0.08607422516358304,-0.12017910683217252,7.083130499988329,0.022183310624096227,-0.14614954904564292,space,4.4698985000140965,0.033253700006753206,2.033268600003794,,,,,,,,p12_base_01,001,2023-05-10_10h05.39.330,expectation_shapes_perceived_time,2022.2.4,120.37533025088442,
,,,,,,,,,,,,,7,0,7,0,test,,,,,,red,0.2763936741446546,0.275,2.3082102999906056,0.9970070000272244,3.920000744983554e-05,4e-05,0.2748938999720849,0.3082979000173509,1.999707299983129,2.3082102999906056,2.3082102999906056,2.6083226000191644,2.558535599964671,0.2503252999740653,6.041161899978761,3.732951599988155,3.48262630001409,0.23554,0.09967286372791628,0.10916551741628926,6.041161899978761,0.112825138091081,0.0955106181071949,space,3.426706899947021,,,,,,,,,,p12_base_01,001,2023-05-10_10h05.39.330,expectation_shapes_perceived_time,2022.2.4,120.37533025088442,
,,,,,,,,,,,,,8,0,8,0,test,,,,,,green,0.9836103456453126,0.9833333333333333,2.3086738000274636,0.9990092999651097,3.7999998312443495e-05,4e-05,0.9831463000155054,1.0165575999999419,2.00022040004842,2.3086738000274636,2.3086738000274636,2.6081887000473216,2.9164812000235543,0.6078073999960907,8.11648960004095,5.807815800013486,5.200008400017396,0.90078,0.045336549042163075,-0.14069963495843713,8.11648960004095,0.007608013249656563,-0.1476275993535185,space,5.505093399959151,0.0331552000134252,2.0336642000474967,,,,,,,,p12_base_01,001,2023-05-10_10h05.39.330,expectation_shapes_perceived_time,2022.2.4,120.37533025088442,
,,,,,,,,,,,,,9,0,9,0,test,,,,,,red,0.9229803096677744,0.9249999999999999,2.3082150000263937,0.9972402999992482,2.010003663599491e-05,2e-05,0.9250103000085801,0.958272100018803,2.000043900043238,2.3082150000263937,2.3082150000263937,2.6083231000229716,3.2165667000226676,0.908351699996274,9.533116700011306,7.224901699984912,6.316549999988638,1.2417,-0.1017655931707057,-0.10721732137627923,9.533116700011306,0.035420043362914315,-0.14351728287791404,space,6.924871600000188,,,,,,,,,,p12_base_01,001,2023-05-10_10h05.39.330,expectation_shapes_perceived_time,2022.2.4,120.37533025088442,
,,,,,,,,,,,,,10,0,10,0,test,,,,,,green,1.4307673708701154,1.4333333333333333,2.308019600051921,0.9967585999984294,3.920000744983554e-05,4e-05,1.433077800029423,1.466275900020264,1.999780100013595,2.308019600051921,2.308019600051921,2.608208600024227,2.9993395000346936,0.6913198999827728,8.899615700007416,6.5915960999554954,5.900276199972723,0.88698,0.05139194483215483,-0.13860251788066,8.899615700007416,-0.14434076069416196,-0.031898820647801286,space,6.28768070001388,0.0330754000460729,2.033214900002349,,,,,,,,p12_base_01,001,2023-05-10_10h05.39.330,expectation_shapes_perceived_time,2022.2.4,120.37533025088442,
,,,,,,,,,,,,,11,0,11,0,test,,,,,,red,1.545747056157157,1.55,2.3081845000269823,0.997205900028348,3.320001997053623e-05,3e-05,1.54987590003293,1.5830910000368021,1.99999049998587,2.3081845000269823,2.3081845000269823,2.6084209000109695,3.1747135000186972,0.866528999991715,8.158145699999295,5.849961199972313,4.983432199980598,1.42529,-0.14377002501547942,-0.034379788590658114,8.158145699999295,-0.1462994851442178,0.021171929600929486,space,5.546480600023642,0.0331927000079304,2.0332917000050656,,,,,,,,p12_base_01,001,2023-05-10_10h05.39.330,expectation_shapes_perceived_time,2022.2.4,120.37533025088442,
,,,,,,,,,,,,,12,0,12,0,test,,,,,,red,1.372753340003173,1.375,2.3084053000202402,0.9960688999854028,3.23000131174922e-05,3e-05,1.3751767000067048,1.4084420999861322,1.9999302999931388,2.3084053000202402,2.3084053000202402,2.6087365000275895,3.09202360000927,0.7836182999890298,7.741853500017896,5.433448199997656,4.649829900008626,1.23822,-0.100586669541462,-0.108324105660036,7.741853500017896,-0.13616844299418523,-0.057532122236445035,space,5.132753200014122,,,,,,,,,,p12_base_01,001,2023-05-10_10h05.39.330,expectation_shapes_perceived_time,2022.2.4,120.37533025088442,
,,,,,,,,,,,,,13,0,13,0,test,,,,,,red,1.0633771896535833,1.0666666666666667,2.308674899977632,0.9968843999668024,3.0800001695752144e-05,3e-05,1.0667396999779157,1.1001239999895915,2.00022629997693,2.308674899977632,2.308674899977632,2.608402699988801,4.333377900009509,2.0247030000318773,8.408222900005057,6.099548000027426,4.074844999995548,1.16646,-0.07382724462685201,-0.12806766925066168,8.408222900005057,-0.029238366567344715,-0.14490309823107134,space,5.79917369998293,0.03352140000788495,2.033655799983535,,,,,,,,p12_base_01,001,2023-05-10_10h05.39.330,expectation_shapes_perceived_time,2022.2.4,120.37533025088442,
,,,,,,,,,,,,,14,0,14,0,test,,,,,,green,0.7626390384075163,0.7666666666666666,2.3078696000156924,0.9970279000117444,3.950000973418355e-05,4e-05,0.7666918999748304,0.8000501000205986,1.9996340000070632,2.3078696000156924,2.3078696000156924,2.608421500015538,2.77518290001899,0.4673133000032976,6.533288399979938,4.225418799964245,3.758105499960948,0.85532,0.06489851239622182,-0.13281556025273306,6.533288399979938,0.10029528395641471,-0.10859394998153471,space,3.9181861999677494,,,,,,,,,,p12_base_01,001,2023-05-10_10h05.39.330,expectation_shapes_perceived_time,2022.2.4,120.37533025088442,
,,,,,,,,,,,,,15,0,15,0,test,,,,,,red,1.5330638036958175,1.5416666666666667,2.308156199986115,0.997114000027068,6.999995093792677e-05,7e-05,1.5417425999767147,1.5750636999728158,1.9998162999982014,2.308156199986115,2.308156199986115,2.6080135999945924,3.299696500005666,0.9915403000195511,7.675051899976097,5.366895699989982,4.375355399970431,1.13414,-0.0604680793186122,-0.13489033078767337,7.675051899976097,-0.14702674794529452,0.0153272745496633,space,5.066282899992075,0.03300709999166429,2.0330410999595188,,,,,,,,p12_base_01,001,2023-05-10_10h05.39.330,expectation_shapes_perceived_time,2022.2.4,120.37533025088442,
,,,,,,,,,,,,,16,0,16,0,test,,,,,,green,0.2879251396821079,0.2916666666666667,2.308440900000278,0.9964903999934904,3.290001768618822e-05,3e-05,0.29155800002627075,0.325029400002677,1.9998505000257865,2.308440900000278,2.308440900000278,2.6081461000139825,2.308440900000278,0.0,8.316549699986354,6.008108799986076,6.008108799986076,0.30362,0.1205724698046213,0.08552233323351047,8.316549699986354,0.11621043226311671,0.09136150934452367,space,5.703050100011751,,,,,,,,,,p12_base_01,001,2023-05-10_10h05.39.330,expectation_shapes_perceived_time,2022.2.4,120.37533025088442,
,,,,,,,,,,,,,17,0,17,0,test,,,,,,red,0.9649453123679202,0.9666666666666667,2.3083931999863125,0.9974059999804012,3.860000288113952e-05,4e-05,0.9665456000366248,1.0000756999943405,1.9999056000378914,2.3083931999863125,2.3083931999863125,2.608053900010418,2.350159900030121,0.04176670004380867,8.608420400007162,6.30002720002085,6.258260499977041,0.78422,0.0927088617083937,-0.11513842502494054,8.608420400007162,0.01624655436801013,-0.14692800763522665,space,5.99503290001303,0.03345620003528893,2.0334387000184506,,,,,,,,p12_base_01,001,2023-05-10_10h05.39.330,expectation_shapes_perceived_time,2022.2.4,120.37533025088442,
,,,,,,,,,,,,,18,0,18,0,test,,,,,,green,1.53165194825308,1.5333333333333332,2.3080325999762863,0.9969680999638513,5.2099989261478186e-05,5e-05,1.5329631000058725,1.5664807999855839,1.9992040999932215,2.3080325999762863,2.3080325999762863,2.6083315999712795,2.3080325999762863,0.0,10.058080799994059,7.750048200017773,7.750048200017773,1.12175,-0.05517194852966447,-0.13714170063088021,10.058080799994059,-0.14709328520240098,0.01467499249931834,space,7.448546100000385,0.03344159998232499,2.03251430002274,,,,,,,,p12_base_01,001,2023-05-10_10h05.39.330,expectation_shapes_perceived_time,2022.2.4,120.37533025088442,
,,,,,,,,,,,,,19,0,19,0,test,,,,,,green,0.2358735593702709,0.23333333333333334,2.3085287999711,0.9968602000153624,3.130000550299883e-05,3e-05,0.23350739997113124,0.26645459997234866,2.000803900009487,2.3085287999711,2.3085287999711,2.6088443999760784,2.6250391000066884,0.31651030003558844,6.024629899999127,3.716101100028027,3.3995907999924384,0.29447,0.11806444592748322,0.08895266473988463,6.024629899999127,0.09978675172162141,0.10906142369021879,space,3.4145475000259466,0.03342529997462407,2.0337931999820285,,,,,,,,p12_base_01,001,2023-05-10_10h05.39.330,expectation_shapes_perceived_time,2022.2.4,120.37533025088442,
,,,,,,,,,0,0,0,0,,,,,fam,0.5560101000010036,0.5560101000010036,269.99999999999955,2.5645646000048146,2.5645646000048146,,,,,,,,,,,,,,,,,,,,,,,,,,,,,,,,,,,,p12_base_01,001,2023-05-10_10h05.39.330,expectation_shapes_perceived_time,2022.2.4,120.37533025088442,
,,,,,,,,,1,0,1,0,,,,,fam,0.4976951999706216,0.4976951999706216,269.99999999999955,2.5057661999599077,2.5057661999599077,,,,,,,,,,,,,,,,,,,,,,,,,,,,,,,,,,,,p12_base_01,001,2023-05-10_10h05.39.330,expectation_shapes_perceived_time,2022.2.4,120.37533025088442,
,,,,,,,,,2,0,2,0,,,,,fam,0.4973640000098385,0.4973640000098385,269.99999999999955,2.5056716999970376,2.5056716999970376,,,,,,,,,,,,,,,,,,,,,,,,,,,,,,,,,,,,p12_base_01,001,2023-05-10_10h05.39.330,expectation_shapes_perceived_time,2022.2.4,120.37533025088442,
,,,,,,,,,3,0,3,0,,,,,fam,0.4977260999730788,0.4977260999730788,269.99999999999955,2.505755999998655,2.505755999998655,,,,,,,,,,,,,,,,,,,,,,,,,,,,,,,,,,,,p12_base_01,001,2023-05-10_10h05.39.330,expectation_shapes_perceived_time,2022.2.4,120.37533025088442,
,,,,,,,,,4,0,4,0,,,,,fam,0.4970154999755323,0.4970154999755323,269.99999999999955,2.5059547999990173,2.5059547999990173,,,,,,,,,,,,,,,,,,,,,,,,,,,,,,,,,,,,p12_base_01,001,2023-05-10_10h05.39.330,expectation_shapes_perceived_time,2022.2.4,120.37533025088442,
,,,,,,,,,,,,,0,0,0,0,testSingleStim,,,,,,red,0.5973057470188249,0.6,0.0742393999826163,0.9971362999640405,1.9400031305849552e-05,2e-05,0.6006183000281453,0.6338437999947928,2.000444700010121,2.3088814000366256,2.3088814000366256,2.6085915000294335,3.950319199997466,1.6414377999608405,8.083702100033406,5.774820699996781,4.13338290003594,0.69989,0.11962102681508695,-0.08684814275615901,,,,None,,0.033256900031119585,2.034007499984,,,,,,,,p12_base_01,001,2023-05-10_10h05.39.330,expectation_shapes_perceived_time,2022.2.4,120.37533025088442,
,,,,,,,,,,,,,1,0,1,0,testSingleStim,,,,,,green,1.1828924655944486,1.1833333333333333,0.004399599973112345,0.9968711999827065,3.1800009310245514e-05,3e-05,1.1829728999873623,1.2163426000042818,2.000164700031746,2.3086060999776237,2.3086060999776237,2.6086138000246137,2.7669505000230856,0.45834440004546195,5.4832350999931805,3.174629000015557,2.716284599970095,0.91809,0.03762009263995751,-0.1429563520318385,,,,None,,,,,,,,,,,p12_base_01,001,2023-05-10_10h05.39.330,expectation_shapes_perceived_time,2022.2.4,120.37533025088442,
,,,,,,,,,,,,,2,0,2,0,testSingleStim,,,,,,green,0.5523995184015326,0.55,0.0043598999618552625,0.9966316999634728,2.9999995604157448e-05,3e-05,0.5501599000417627,0.5833583000348881,1.9999713000142947,2.3083477999898605,2.3083477999898605,2.6082616000203416,2.3083477999898605,0.0,3.983274900005199,1.6749271000153385,1.6749271000153385,0.25964,0.10764507852687052,0.10131301508411346,,,,None,,,,,,,,,,,p12_base_01,001,2023-05-10_10h05.39.330,expectation_shapes_perceived_time,2022.2.4,120.37533025088442,
,,,,,,,,,,,,,3,0,3,0,testSingleStim,,,,,,green,0.6276387742740556,0.6333333333333333,0.004347000038251281,0.9973576000193134,3.1400006264448166e-05,3e-05,0.6336989999981597,0.6669370000017807,2.0000852000084706,2.308391099970322,2.308391099970322,2.609035799978301,2.308391099970322,0.0,4.033407000009902,1.7250159000395797,1.7250159000395797,0.67311,0.12649730499152448,-0.07648674255301478,,,,None,,0.0333348999847658,2.0334387999610044,,,,,,,,p12_base_01,001,2023-05-10_10h05.39.330,expectation_shapes_perceived_time,2022.2.4,120.37533025088442,
,,,,,,,,,,,,,4,0,4,0,testSingleStim,,,,,,red,0.6014459908625618,0.6,0.0047280999715439975,0.9969461999717169,3.349996404722333e-05,3e-05,0.5998411999898963,0.633382799976971,2.000158899987582,2.3082322999835014,2.3082322999835014,2.608513400016818,2.5918131999787875,0.283580899995286,5.241654200013727,2.9334219000302255,2.6498410000349395,0.82675,0.07654340929054673,-0.12646302404525114,,,,None,,0.033230000000912696,2.033165899978485,,,,,,,,p12_base_01,001,2023-05-10_10h05.39.330,expectation_shapes_perceived_time,2022.2.4,120.37533025088442,
,,,,,,,,,,,,,5,0,5,0,testSingleStim,,,,,,red,1.2829577234914817,1.2833333333333332,0.00443590001668781,0.9963736000354402,3.980001201853156e-05,4e-05,1.2831805999740027,1.3165877999854274,2.000004399975296,2.308191399963107,2.308191399963107,2.6079762000008486,2.3833167999982834,0.07512540003517643,3.8581550999660976,1.5499637000029907,1.4748382999678142,1.58213,-0.14293060429356252,0.03771779835524566,,,,None,,,,,,,,,,,p12_base_01,001,2023-05-10_10h05.39.330,expectation_shapes_perceived_time,2022.2.4,120.37533025088442,
,,,,,,,,,,,,,6,0,6,0,testSingleStim,,,,,,red,1.1262268239956768,1.1333333333333333,0.00453069998184219,0.9972079999861307,4.0000013541430235e-05,4e-05,1.1329251999850385,1.166382400027942,1.999769699992612,2.307847000018228,2.307847000018228,2.6082189999870025,3.607594800007064,1.299747799988836,6.266546400031075,3.958699400012847,2.658951600024011,1.17075,-0.07554895818657395,-0.12705961149560163,,,,None,,0.03319669998018071,,,,,,,,,p12_base_01,001,2023-05-10_10h05.39.330,expectation_shapes_perceived_time,2022.2.4,120.37533025088442,
,,,,,,,,,,,,,7,0,7,0,testSingleStim,,,,,,green,1.243777071816854,1.25,0.004445599974133074,0.9972329000011086,7.43999844416976e-05,7e-05,1.2494906999636441,1.2832043999806046,1.9997178000048734,2.3083922999794595,2.3083922999794595,2.60831539996434,4.1999269999796525,1.891534700000193,5.5416510999784805,3.233258799999021,1.341724099998828,1.41753,-0.14288922611097993,-0.037874252704115166,,,,None,,0.03335399995557964,2.0330716999596916,,,,,,,,p12_base_01,001,2023-05-10_10h05.39.330,expectation_shapes_perceived_time,2022.2.4,120.37533025088442,
,,,,,,,,,,,,,8,0,8,0,testSingleStim,,,,,,red,0.5572778886266728,0.5583333333333333,0.004740300006233156,0.9960290000308305,3.130000550299883e-05,3e-05,0.5584614999825135,0.591730699990876,2.0001358999870718,2.308481199957896,2.308481199957896,2.6085774999810383,2.650148899992928,0.3416677000350319,6.350025299994741,4.041544100036845,3.6998764000018127,0.28468,0.11527220272131984,0.09254247260725676,,,,None,,0.033477699966169894,2.0336606999626383,,,,,,,,p12_base_01,001,2023-05-10_10h05.39.330,expectation_shapes_perceived_time,2022.2.4,120.37533025088442,
,,,,,,,,,,,,,9,0,9,0,testSingleStim,,,,,,green,0.9941540191664868,1.0,0.004428300017025322,0.9963098000152968,3.920000744983554e-05,4e-05,0.9999658999731764,1.0335848999675363,1.9998939000070095,2.3078456000075676,2.3078456000075676,2.607659799978137,3.324826399970334,1.0169807999627665,6.0328340999549255,3.724988499947358,2.7080076999845915,1.1443,-0.06474217719636756,-0.13289183740307026,,,,None,,0.03322659997502342,2.0333556999685243,,,,,,,,p12_base_01,001,2023-05-10_10h05.39.330,expectation_shapes_perceived_time,2022.2.4,120.37533025088442,
,,,,,,,,,,,,,10,0,10,0,testSingleStim,,,,,,green,0.8463790259975591,0.85,0.004636300029233098,0.9977809000411071,3.120000474154949e-05,3e-05,0.8497522000106983,0.8831714999978431,1.9997318999958225,2.3081700000329874,2.3081700000329874,2.608095800038427,3.8246389999985695,1.516468999965582,7.691624300030526,5.383454299997538,3.8669853000319563,1.25461,-0.10603075535990689,-0.10300130520676669,,,,None,,,,,,,,,,,p12_base_01,001,2023-05-10_10h05.39.330,expectation_shapes_perceived_time,2022.2.4,120.37533025088442,
,,,,,,,,,,,,,11,0,11,0,testSingleStim,,,,,,green,1.6621221272964333,1.6666666666666667,0.004531499987933785,0.9958428000099957,3.2100011594593525e-05,3e-05,1.6663290000287816,1.6995725000160746,1.9999985999893397,2.308838299999479,2.308838299999479,2.608346100023482,2.3835121000302024,0.07467380003072321,4.3834236999973655,2.0745853999978863,1.999911599967163,1.87817,-0.055207183526642487,0.13712752037262813,,,,None,,,,,,,,,,,p12_base_01,001,2023-05-10_10h05.39.330,expectation_shapes_perceived_time,2022.2.4,120.37533025088442,
,,,,,,,,,,,,,12,0,12,0,testSingleStim,,,,,,red,1.0617216992431167,1.0666666666666667,0.004501299990806729,0.9973179000080563,3.0099996365606785e-05,3e-05,1.0669799000024796,1.1004720000200905,2.000189999991562,2.308503700012807,2.308503700012807,2.6084404999855906,2.9917784999706782,0.6832747999578714,4.941459299996495,2.6329555999836884,1.949680800025817,1.19468,-0.08487667341839998,-0.12102784913364442,,,,None,,0.0330429999739863,2.033500899968203,,,,,,,,p12_base_01,001,2023-05-10_10h05.39.330,expectation_shapes_perceived_time,2022.2.4,120.37533025088442,
,,,,,,,,,,,,,13,0,13,0,testSingleStim,,,,,,red,1.1702338747770107,1.175,0.004503600008320063,0.9973065999802202,2.2499996703118086e-05,2e-05,1.1751588999759406,1.2084788999636658,2.0002536000101827,2.3087280999752693,2.3087280999752693,2.608575699967332,3.133468299987726,0.8247402000124566,5.433022400015034,3.1242943000397645,2.299554100027308,1.43914,-0.14513014305600747,-0.028089705107614348,,,,None,,0.03332399995997548,2.0336186999920756,,,,,,,,p12_base_01,001,2023-05-10_10h05.39.330,expectation_shapes_perceived_time,2022.2.4,120.37533025088442,
,,,,,,,,,,,,,14,0,14,0,testSingleStim,,,,,,red,1.1383603930334725,1.1416666666666666,0.0026236000121571124,0.9985663999686949,3.960001049563289e-05,4e-05,1.1417708999942988,1.1749974000267684,2.000130200001877,2.308524699998088,2.308524699998088,2.608296299993526,3.400250100006815,1.0917254000087269,5.799910200003069,3.4913855000049807,2.399660099996254,1.1896,-0.08293660145109086,-0.12236547755078979,,,,None,,,,,,,,,,,p12_base_01,001,2023-05-10_10h05.39.330,expectation_shapes_perceived_time,2022.2.4,120.37533025088442,
,,,,,,,,,,,,,15,0,15,0,testSingleStim,,,,,,green,0.1760268678925509,0.175,0.004565999959595501,0.9965701999608427,3.9700011257082224e-05,4e-05,0.17473560001235455,0.20826660003513098,1.9995428000111133,2.307658200035803,2.307658200035803,2.6079938000184484,2.3159158999915235,0.008257699955720454,4.674533400044311,2.366875200008508,2.3586175000527874,0.14758,0.0661086831762514,0.1322173663525028,,,,None,,,,,,,,,,,p12_base_01,001,2023-05-10_10h05.39.330,expectation_shapes_perceived_time,2022.2.4,120.37533025088442,
,,,,,,,,,,,,,16,0,16,0,testSingleStim,,,,,,green,0.5323096644033198,0.5333333333333333,0.004612400021869689,0.997288100013975,3.1100003980100155e-05,3e-05,0.5332125999848358,0.5663168000173755,1.9999415000202134,2.308060600014869,2.308060600014869,2.607934799976647,2.308060600014869,0.0,4.333084299985785,2.025023699970916,2.025023699970916,0.58625,0.14243059885324028,-0.03956405523701119,,,,None,,0.03311080002458766,2.0330593999824487,,,,,,,,p12_base_01,001,2023-05-10_10h05.39.330,expectation_shapes_perceived_time,2022.2.4,120.37533025088442,
,,,,,,,,,,,,,17,0,17,0,testSingleStim,,,,,,green,1.5163372383491358,1.525,0.00445080001372844,0.9964739999850281,3.9499951526522636e-05,4e-05,1.5247205999912694,1.557954499963671,1.999379199987743,2.3078953999793157,2.3078953999793157,2.607782799983397,3.233048999973107,0.9251535999937914,6.5160512999864295,4.208155900007114,3.2830023000133224,1.16835,-0.07458701538609583,-0.12762667077176398,,,,None,,0.03310669999336824,2.0326901999651454,,,,,,,,p12_base_01,001,2023-05-10_10h05.39.330,expectation_shapes_perceived_time,2022.2.4,120.37533025088442,
,,,,,,,,,,,,,18,0,18,0,testSingleStim,,,,,,green,0.34064841919513134,0.3416666666666667,0.003076299966778606,0.9972076999838464,3.139994805678725e-05,3e-05,0.3414702999871224,0.3747305999859236,1.9996332999435253,2.3082597999600694,2.3082597999600694,2.6083531999611296,2.483265399991069,0.17500560003099963,4.124703699955717,1.8164438999956474,1.6414382999646477,0.33727,0.12892324511041717,0.0723227960375511,,,,None,,0.033022699994035065,2.0331677999929525,,,,,,,,p12_base_01,001,2023-05-10_10h05.39.330,expectation_shapes_perceived_time,2022.2.4,120.37533025088442,
,,,,,,,,,,,,,19,0,19,0,testSingleStim,,,,,,red,0.9987916918194736,1.0,0.00445670000044629,0.9969415999948978,3.940000897273421e-05,4e-05,0.9995984000270255,1.0329940000083297,1.9999460999970324,2.308283200021833,2.308283200021833,2.608202999981586,3.057900100015104,0.7496168999932706,6.4248352000140585,4.116551999992225,3.3669350999989547,0.76214,0.10046427447306035,-0.1084376295899699,,,,None,,,,,,,,,,,p12_base_01,001,2023-05-10_10h05.39.330,expectation_shapes_perceived_time,2022.2.4,120.37533025088442,
,,,,,,,,,,,,,20,0,20,0,testSingleStim,,,,,,red,0.24301142563030054,0.24166666666666667,0.0045106999459676445,0.9975482999579981,3.170000854879618e-05,3e-05,0.2416363999946043,0.2751278000068851,1.9999654000275768,2.3083246999885887,2.3083246999885887,2.6083220000145957,2.3083246999885887,0.0,3.67476500000339,1.3664403000148013,1.3664403000148013,0.17266,0.07630945921595378,0.12660433006283242,,,,None,,0.033286400022916496,2.033074699982535,,,,,,,,p12_base_01,001,2023-05-10_10h05.39.330,expectation_shapes_perceived_time,2022.2.4,120.37533025088442,
,,,,,,,,,,,,,21,0,21,0,testSingleStim,,,,,,green,0.7082742839015566,0.7083333333333334,0.004468199971597642,0.9965786999673583,3.130000550299883e-05,3e-05,0.708866200002376,0.7420019999844953,2.0003384000156075,2.3088903999887407,2.3088903999887407,2.60858920001192,3.6417356000165455,1.3328452000278048,6.8751600999967195,4.566269700007979,3.233424499980174,0.84134,0.07067042505670013,-0.12983636231347234,,,,None,,,,,,,,,,,p12_base_01,001,2023-05-10_10h05.39.330,expectation_shapes_perceived_time,2022.2.4,120.37533025088442,
,,,,,,,,,,,,,22,0,22,0,testSingleStim,,,,,,red,0.6523926718451731,0.6583333333333333,0.004627999966032803,0.9962737999740057,5.23999915458262e-05,5e-05,0.6583628000225872,0.6917505000019446,1.9999530999921262,2.3084788999985904,2.3084788999985904,2.608604100008961,2.3084788999985904,0.0,4.574626000015996,2.266147100017406,2.266147100017406,0.47484,0.14736196554421838,0.011672234894591554,,,,None,,0.03347409999696538,2.033456000033766,,,,,,,,p12_base_01,001,2023-05-10_10h05.39.330,expectation_shapes_perceived_time,2022.2.4,120.37533025088442,
,,,,,,,,,,,,,23,0,23,0,testSingleStim,,,,,,red,0.5864272178692653,0.5916666666666667,0.003063499985728413,0.9985569000127725,3.1699950341135263e-05,3e-05,0.5917304999893531,0.6252444999990985,1.999943999981042,2.3080133000039496,2.3080133000039496,2.6082905999501236,3.241223999997601,0.9332106999936514,4.608204899996053,2.300191599992104,1.3669808999984525,0.56855,0.14440878898756562,-0.031589422591029974,,,,None,,,,,,,,,,,p12_base_01,001,2023-05-10_10h05.39.330,expectation_shapes_perceived_time,2022.2.4,120.37533025088442,
,,,,,,,,,,,,,24,0,24,0,testSingleStim,,,,,,red,1.6637802261059855,1.6666666666666667,0.004512900020927191,0.9974179000128061,3.950000973418355e-05,4e-05,1.6667976999888197,1.7000962999882177,2.0000987999956124,2.3082093999837525,2.3082093999837525,2.60780389996944,2.4828797999653034,0.17467039998155087,4.224753799964674,1.9165443999809213,1.7418739999993704,1.79189,-0.08990849099076277,0.11733820010658871,,,,None,,,,,,,,,,,p12_base_01,001,2023-05-10_10h05.39.330,expectation_shapes_perceived_time,2022.2.4,120.37533025088442,
,,,,,,,,,,,,,25,0,25,0,testSingleStim,,,,,,green,0.8281443330298109,0.8333333333333334,0.004486999998334795,0.9972194000147283,3.130000550299883e-05,3e-05,0.8337860000319779,0.8668515000026673,2.00043860002188,2.307965000043623,2.307965000043623,2.608294600038789,2.9333264000015333,0.6253613999579102,5.825025100028142,3.517060099984519,2.891698700026609,1.22333,-0.09541414357688448,-0.11290673656597998,,,,None,,0.03367150004487485,2.033413400000427,,,,,,,,p12_base_01,001,2023-05-10_10h05.39.330,expectation_shapes_perceived_time,2022.2.4,120.37533025088442,
,,,,,,,,,,,,,26,0,26,0,testSingleStim,,,,,,green,1.5011922386823116,1.5083333333333333,0.004480800009332597,0.996761099959258,3.190001007169485e-05,3e-05,1.508536399982404,1.542208999977447,2.000198099995032,2.3086271000211127,2.3086271000211127,2.608256999985315,2.3086271000211127,0.0,4.216636099969037,1.9080089999479242,1.9080089999479242,1.72333,-0.11290673656597998,0.09541414357688448,,,,None,,,,,,,,,,,p12_base_01,001,2023-05-10_10h05.39.330,expectation_shapes_perceived_time,2022.2.4,120.37533025088442,
,,,,,,,,,,,,,27,0,27,0,testSingleStim,,,,,,green,0.5429238133982042,0.5416666666666666,0.004338699975050986,0.9972513999673538,3.15000070258975e-05,3e-05,0.5415691999951378,0.5753172999829985,2.000106699997559,2.308654199994635,2.308654199994635,2.608511800004635,2.4504979000194,0.14184370002476498,4.0334929000237025,1.7248387000290677,1.5829950000043027,0.80914,0.08341817061350176,-0.1220376940456785,,,,None,,0.03335809998679906,2.0334641000372358,,,,,,,,p12_base_01,001,2023-05-10_10h05.39.330,expectation_shapes_perceived_time,2022.2.4,120.37533025088442,
,,,,,,,,,,,,,28,0,28,0,testSingleStim,,,,,,red,0.1998936821140999,0.2,0.004411900008562952,0.9970331999938935,3.1800009310245514e-05,3e-05,0.19983569998294115,0.23307409998960793,2.000325500033796,2.3085951000102796,2.3085951000102796,2.608757300011348,2.9086430000024848,0.6000478999922052,5.125,2.8164048999897204,2.2163569999975152,0.81591,0.08080365645171819,-0.12378432477710022,,,,None,,0.03333370003383607,,,,,,,,,p12_base_01,001,2023-05-10_10h05.39.330,expectation_shapes_perceived_time,2022.2.4,120.37533025088442,
,,,,,,,,,,,,,29,0,29,0,testSingleStim,,,,,,green,1.0331350335391023,1.0333333333333332,0.005102299968712032,0.9969487999915145,2.670002868399024e-05,3e-05,1.0333204999915324,1.0667677000164986,1.9999881000258029,2.308371699997224,2.308371699997224,2.6083515000063926,3.358592399978079,1.050220699980855,7.5752541000256315,5.266882400028408,4.216661700047553,1.2006,-0.08711260569144913,-0.11942857231892219,,,,None,,0.0334100000327453,2.0333788000280038,,,,,,,,p12_base_01,001,2023-05-10_10h05.39.330,expectation_shapes_perceived_time,2022.2.4,120.37533025088442,
,,,,,,,,,,,,,30,0,30,0,testSingleStim,,,,,,red,0.8820228956375382,0.8833333333333333,0.004416600044351071,0.9970880000037141,3.1400006264448166e-05,3e-05,0.8833177000051364,0.9167166000115685,2.000083999999333,2.3083093999885023,2.3083093999885023,2.608349999994971,3.183447699993849,0.8751383000053465,8.091762600000948,5.7834532000124454,4.908314900007099,0.97381,0.01215037626268215,-0.14732331218502107,,,,None,,0.033292500011157244,,,,,,,,,p12_base_01,001,2023-05-10_10h05.39.330,expectation_shapes_perceived_time,2022.2.4,120.37533025088442,
,,,,,,,,,,,,,31,0,31,0,testSingleStim,,,,,,green,0.3490284577272738,0.35,0.004349199996795505,0.9967334999819286,3.15000070258975e-05,3e-05,0.3499258999945596,0.3833034999552183,1.9999856000067666,2.3083510999567807,2.3083510999567807,2.6081424999865703,2.3917046999558806,0.08335359999909997,3.591564600006677,1.2832135000498965,1.1998599000507966,0.13667,0.061535596436905746,0.1344066974806099,,,,None,,,,,,,,,,,p12_base_01,001,2023-05-10_10h05.39.330,expectation_shapes_perceived_time,2022.2.4,120.37533025088442,
,,,,,,,,,,,,,32,0,32,0,testSingleStim,,,,,,red,1.216201442101562,1.2166666666666666,0.004379900055937469,0.9973154000472277,2.5100016500800848e-05,3e-05,1.2167339000152424,1.2500988999963738,1.9995674000238068,2.3082950999960303,2.3082950999960303,2.60838240000885,2.3082950999960303,0.0,4.108492999977898,1.8001978999818675,1.8001978999818675,1.58727,-0.1423024403826753,0.04002256135762743,,,,None,,0.03337740001734346,,,,,,,,,p12_base_01,001,2023-05-10_10h05.39.330,expectation_shapes_perceived_time,2022.2.4,120.37533025088442,
,,,,,,,,,,,,,33,0,33,0,testSingleStim,,,,,,green,0.1562272818169203,0.15833333333333333,0.0046304999850690365,0.9963198000332341,3.130000550299883e-05,3e-05,0.15836950001539662,0.191787599993404,2.0000114000285976,2.308342900010757,2.308342900010757,2.6086609000340104,2.308342900010757,0.0,3.9333547999849543,1.6250118999741971,1.6250118999741971,0.10669,0.04862390319319672,0.13959765755466155,,,,None,,,,,,,,,,,p12_base_01,001,2023-05-10_10h05.39.330,expectation_shapes_perceived_time,2022.2.4,120.37533025088442,
,,,,,,,,,,,,,34,0,34,0,testSingleStim,,,,,,red,1.5853857288068387,1.5916666666666666,0.004484899982344359,0.9964659999823198,3.1400006264448166e-05,3e-05,1.5918358999770135,1.624912499974016,1.9994611999718472,2.3082195000024512,2.3082195000024512,2.6081973999971524,2.3082195000024512,0.0,4.0332111999741755,1.7249916999717243,1.7249916999717243,1.75624,-0.1024577628910476,0.10655607340668949,,,,None,,0.03345430002082139,2.0327870000037365,,,,,,,,p12_base_01,001,2023-05-10_10h05.39.330,expectation_shapes_perceived_time,2022.2.4,120.37533025088442,
,,,,,,,,,,,,,35,0,35,0,testSingleStim,,,,,,red,1.7143505593962065,1.7166666666666666,0.0044982999679632485,0.9965535000083037,3.120000474154949e-05,3e-05,1.7163485000492074,1.7495081000379287,1.9994708000449464,2.3083921000361443,2.3083921000361443,2.6081155000138097,3.2084589000442065,0.9000668000080623,5.174820300017018,2.8664281999808736,1.9663613999728113,1.87248,-0.05765018785364036,0.13611849909887305,,,,None,,0.03320090001216158,2.032820600026753,,,,,,,,p12_base_01,001,2023-05-10_10h05.39.330,expectation_shapes_perceived_time,2022.2.4,120.37533025088442,
,,,,,,,,,,,,,36,0,36,0,testSingleStim,,,,,,green,0.5817321706954894,0.5833333333333334,0.004463499994017184,0.9974969000322744,3.890000516548753e-05,4e-05,0.58284280000953,0.6161034000106156,2.000316899968311,2.3085472999955527,2.3085472999955527,2.6081851999624632,2.3916006999788806,0.08305339998332784,4.9665991999791,2.6580518999835476,2.57499850000022,0.54129,0.1465818527884104,-0.01911937210283614,,,,None,,,2.0332946999697015,,,,,,,,p12_base_01,001,2023-05-10_10h05.39.330,expectation_shapes_perceived_time,2022.2.4,120.37533025088442,
,,,,,,,,,,,,,37,0,37,0,testSingleStim,,,,,,red,0.9646856636331145,0.9666666666666667,0.004611100011970848,0.9970394999836572,3.130000550299883e-05,3e-05,0.9669637999613769,1.0002968999906443,2.000268000003416,2.3084290999686345,2.3084290999686345,2.6084445999586023,2.68345849995967,0.37502939999103546,7.650252299965359,5.341823199996725,4.966793800005689,1.22032,-0.09433940577794364,-0.11380626728767804,,,,None,,,,,,,,,,,p12_base_01,001,2023-05-10_10h05.39.330,expectation_shapes_perceived_time,2022.2.4,120.37533025088442,
,,,,,,,,,,,,,38,0,38,0,testSingleStim,,,,,,red,1.4272002959817909,1.4333333333333333,0.004645699984394014,0.9962082999991253,3.160000778734684e-05,3e-05,1.4330359000014141,1.4664519999641925,1.9999794000177644,2.308185299974866,2.308185299974866,2.6082355999969877,2.758071899996139,0.4498866000212729,4.941445200005546,2.63325990003068,2.183373300009407,1.65458,-0.13073285790094727,0.06899789722549995,,,,None,,,,,,,,,,,p12_base_01,001,2023-05-10_10h05.39.330,expectation_shapes_perceived_time,2022.2.4,120.37533025088442,
,,,,,,,,,,,,,39,0,39,0,testSingleStim,,,,,,red,0.7543621387297917,0.7583333333333333,0.004607499984558672,0.9971440000226721,3.1400006264448166e-05,3e-05,0.7585790000157431,0.7917628000141121,2.0001645000302233,2.3086747000343166,2.3086747000343166,2.6085476000444032,3.7168349000276066,1.40816019999329,4.775033900048584,2.466359200014267,1.058199000020977,1.34256,-0.13010735768115989,-0.07017026032242331,,,,None,,,,,,,,,,,p12_base_01,001,2023-05-10_10h05.39.330,expectation_shapes_perceived_time,2022.2.4,120.37533025088442,
,,,,,,,,,0,0,0,0,0,-1,-1,0,fam,0.5561740000266582,0.5561740000266582,269.99999999999955,2.564504800015129,2.564504800015129,,,,,,,,,,,,,,,,,,,,,,,,,,,,,,,,,,,,p12_base_01,001,2023-05-10_10h05.39.330,expectation_shapes_perceived_time,2022.2.4,120.37533025088442,
,,,,,,,,,1,0,1,0,0,-1,-1,0,fam,0.49736929999198765,0.49736929999198765,269.99999999999955,2.5055695999762975,2.5055695999762975,,,,,,,,,,,,,,,,,,,,,,,,,,,,,,,,,,,,p12_base_01,001,2023-05-10_10h05.39.330,expectation_shapes_perceived_time,2022.2.4,120.37533025088442,
,,,,,,,,,2,0,2,0,0,-1,-1,0,fam,0.49749530002009124,0.49749530002009124,269.99999999999955,2.5054791000438854,2.5054791000438854,,,,,,,,,,,,,,,,,,,,,,,,,,,,,,,,,,,,p12_base_01,001,2023-05-10_10h05.39.330,expectation_shapes_perceived_time,2022.2.4,120.37533025088442,
,,,,,,,,,3,0,3,0,0,-1,-1,0,fam,0.4970892000128515,0.4970892000128515,269.99999999999955,2.505326500046067,2.505326500046067,,,,,,,,,,,,,,,,,,,,,,,,,,,,,,,,,,,,p12_base_01,001,2023-05-10_10h05.39.330,expectation_shapes_perceived_time,2022.2.4,120.37533025088442,
1,500,0.5,none,98,red,green,no_Expectation,,,,,,0,0,0,5,train_doubleStim,,,,,,red,0.8612683204446355,0.8666666666666667,2.308284500031732,0.9984619000460953,5e-05,5e-05,0.8667428999906406,0.9000326999812387,1.9999653000268154,2.308284500031732,2.308284500031732,2.5084118000231683,3.1001037000096403,0.7918191999779083,5.3081764000235125,2.9998918999917805,2.2080727000138722,1.25697,-0.10679031785274984,-0.10221358994477485,,,,None,,0.03324,2.0335748000070453,0.5,0.5,1.3945983204446355,1.4,training_double_stim.csv,1.4002346000052057,1.4334759000339545,p12_base_01,001,2023-05-10_10h05.39.330,expectation_shapes_perceived_time,2022.2.4,120.37533025088442,
1,500,0.5,none,25,green,red,no_Expectation,,,,,,0,1,1,6,train_doubleStim,,,,,,green,0.32972486983335725,0.3333333333333333,2.3084111000061966,0.9961906999815255,4e-05,4e-05,0.33325730002252385,0.3666598999989219,1.9999456999939866,2.3084111000061966,2.3084111000061966,2.5085474000079557,3.6169076000223868,1.3084965000161901,6.150073800003156,3.8416626999969594,2.5331661999807693,0.30502,0.1209479680615085,0.08499046404322218,,,,None,,0.03329,2.033301700023003,0.5,0.5,0.8630548698333573,0.8666666666666667,training_double_stim.csv,0.8667297000065446,0.8999896000023,p12_base_01,001,2023-05-10_10h05.39.330,expectation_shapes_perceived_time,2022.2.4,120.37533025088442,
1,-500,0.5,none,68,red,green,no_Expectation,,,,,,0,2,2,3,train_doubleStim,,,,,,red,1.2055252643539158,1.2083333333333333,2.308229999965988,0.997471000009682,4e-05,4e-05,1.207893899991177,1.2409172999905422,1.9997769999899901,2.308229999965988,2.308229999965988,2.50807799998438,2.6164904999895953,0.30826050002360716,7.057961099955719,4.749731099989731,4.441470599966124,1.41186,-0.14219218842676318,-0.04041251671076427,,,,None,,0.03322,2.0332137999939732,-0.5,-0.5,0.6721952643539159,0.675,training_double_stim.csv,0.6746855999808758,0.7079895999631844,p12_base_01,001,2023-05-10_10h05.39.330,expectation_shapes_perceived_time,2022.2.4,120.37533025088442,
1,-500,0.5,none,23,green,red,no_Expectation,,,,,,0,3,3,2,train_doubleStim,,,,,,green,1.5428835951234505,1.55,2.3083466999814846,0.9975455999956466,6e-05,6e-05,1.5499681999790482,1.5833597999881022,2.0000742999836802,2.3083466999814846,2.3083466999814846,2.508287200005725,3.5581485999864526,1.249801900004968,8.224459799996112,5.916113100014627,4.666311200009659,0.91048,0.041026885501241686,-0.14201614211968275,,,,None,,0.0333,2.033285400015302,-0.5,-0.5,1.0095535951234504,1.0166666666666666,training_double_stim.csv,1.0165745000122115,1.0498878000071272,p12_base_01,001,2023-05-10_10h05.39.330,expectation_shapes_perceived_time,2022.2.4,120.37533025088442,
1,-500,0.5,none,59,green,red,no_Expectation,,,,,,0,4,4,0,train_doubleStim,,,,,,green,1.1745169869664087,1.175,2.3083508999552578,0.9990207999944687,4e-05,4e-05,1.1749346999567933,1.208286099950783,1.9998694999958389,2.3083508999552578,2.3083508999552578,2.5081854999880306,4.158035199972801,1.8496843000175431,5.683111799997278,3.37476090004202,1.5250766000244766,0.92964,0.03241050092107571,-0.14422672909878692,,,,None,,0.03331,2.033367399999406,-0.5,-0.5,0.6411869869664086,0.6416666666666666,training_double_stim.csv,0.6415870999917388,0.6749024000018835,p12_base_01,001,2023-05-10_10h05.39.330,expectation_shapes_perceived_time,2022.2.4,120.37533025088442,
1,-500,0.5,none,46,red,green,no_Expectation,,,,,,0,5,5,4,train_doubleStim,,,,,,red,0.6511714048770807,0.65,2.3077800000319257,0.9971682999748737,3e-05,3e-05,0.6500752000138164,0.6833677000249736,1.9995270000072196,2.3077800000319257,2.3077800000319257,2.5083392999949865,2.3077800000319257,0.0,4.591550300014205,2.2837702999822795,2.2837702999822795,0.25236,0.1052983912889153,0.10374988553466655,,,,None,,,,-0.5,-0.5,0.11784140487708071,0.11666666666666667,training_double_stim.csv,0.11659300001338124,0.14998490002471954,p12_base_01,001,2023-05-10_10h05.39.330,expectation_shapes_perceived_time,2022.2.4,120.37533025088442,
1,-500,0.5,none,77,green,red,no_Expectation,,,,,,0,6,6,1,train_doubleStim,,,,,,green,1.2444329983573839,1.25,2.3084413000033237,0.9972176000010222,4e-05,4e-05,1.2498823999776505,1.2832180999685079,1.9998562999535352,2.3084413000033237,2.3084413000033237,2.5084169000037946,3.300276699999813,0.9918353999964893,6.033236799994484,3.72479549999116,2.7329600999946706,0.32011,0.1248382218566999,0.07916570166522433,,,,None,,0.03311,,-0.5,-0.5,0.7111029983573839,0.7166666666666667,training_double_stim.csv,0.7166919999872334,0.7499519999837503,p12_base_01,001,2023-05-10_10h05.39.330,expectation_shapes_perceived_time,2022.2.4,120.37533025088442,
1,500,0.5,none,33,green,red,no_Expectation,,,,,,0,7,7,7,train_doubleStim,,,,,,green,0.5977160928295988,0.6,2.3084884000127204,0.9963526999927126,3e-05,3e-05,0.6005294999922626,0.633562000002712,2.0006710999878123,2.3084884000127204,2.3084884000127204,2.5084979999810457,3.0584285999648273,0.7499401999521069,6.808631399995647,4.500142999982927,3.75020280003082,0.61635,0.13805809072195036,-0.05283704706642543,,,,None,,0.03356,2.033988400013186,0.5,0.5,1.131046092829599,1.1333333333333333,training_double_stim.csv,1.1337704000179656,1.1672921999706887,p12_base_01,001,2023-05-10_10h05.39.330,expectation_shapes_perceived_time,2022.2.4,120.37533025088442,
1,500,0.5,none,88,red,green,no_Expectation,,,,,,0,8,8,9,train_doubleStim,,,,,,red,0.5893324885795728,0.5916666666666667,2.308071099978406,0.9962307999958284,4e-05,4e-05,0.5917459999909624,0.624887099955231,1.9998693999950774,2.308071099978406,2.308071099978406,2.5081414000014775,2.6919018999906257,0.3838308000122197,5.508246899989899,3.2001758000114933,2.8163449999992736,1.11984,-0.05434862732022664,-0.1374700573393968,,,,None,,0.03356,2.033336699998472,0.5,0.5,1.1226624885795726,1.125,training_double_stim.csv,1.1251020999625325,1.1582909999997355,p12_base_01,001,2023-05-10_10h05.39.330,expectation_shapes_perceived_time,2022.2.4,120.37533025088442,
1,500,0.5,none,60,red,green,no_Expectation,,,,,,0,9,9,8,train_doubleStim,,,,,,red,0.4092711276908546,0.4083333333333333,2.3085207999683917,0.9974040999659337,3e-05,3e-05,0.40800359996501356,0.4413627000176348,2.000120499986224,2.3085207999683917,2.3085207999683917,2.5084872000152245,2.6917878999956883,0.3832671000272967,4.991615400009323,2.6830946000409313,2.2998275000136346,0.74282,0.10685757737232068,-0.1021432724882477,,,,None,,0.03325,2.033565899997484,0.5,0.5,0.9426011276908547,0.9416666666666667,training_double_stim.csv,0.9417856999789365,0.9750686999759637,p12_base_01,001,2023-05-10_10h05.39.330,expectation_shapes_perceived_time,2022.2.4,120.37533025088442,
1,500,0.5,none,33,green,red,no_Expectation,,,,,,1,0,10,7,train_doubleStim,,,,,,green,0.6740091019673378,0.675,2.3082955999998376,0.9973070999840274,3e-05,3e-05,0.6750045000226237,0.7083867000183091,2.0002801999798976,2.3082955999998376,2.3082955999998376,2.508532700012438,2.8747239999938756,0.566428399994038,6.466772700019646,4.158477100019809,3.592048700025771,0.73727,0.10862122396657181,-0.10026574519991245,,,,None,,0.03342,2.033219499979168,0.5,0.5,1.2073391019673376,1.2083333333333333,training_double_stim.csv,1.2085461000096984,1.2415206999867223,p12_base_01,001,2023-05-10_10h05.39.330,expectation_shapes_perceived_time,2022.2.4,120.37533025088442,
1,-500,0.5,none,77,green,red,no_Expectation,,,,,,1,1,11,1,train_doubleStim,,,,,,green,1.3038735572432778,1.3083333333333333,2.307707500003744,0.9977078000083566,5e-05,5e-05,1.3077721999725327,1.3412627999787219,1.9990350999869406,2.307707500003744,2.307707500003744,2.507817999983672,2.5913094999850728,0.28360199998132885,4.899579899967648,2.591872399963904,2.3082703999825753,1.01273,-0.005908215695965052,-0.14770539239912628,,,,None,,,,-0.5,-0.5,0.7705435572432778,0.775,training_double_stim.csv,0.7745362999849021,0.8078572999802418,p12_base_01,001,2023-05-10_10h05.39.330,expectation_shapes_perceived_time,2022.2.4,120.37533025088442,
1,500,0.5,none,60,red,green,no_Expectation,,,,,,1,2,12,8,train_doubleStim,,,,,,red,0.3245809695603124,0.325,2.308204500004649,0.9961306999903172,3e-05,3e-05,0.32496660004835576,0.3581497000413947,1.9998744000331499,2.308204500004649,2.308204500004649,2.5082019999972545,2.308204500004649,0.0,5.832889900018927,3.5246854000142775,3.5246854000142775,0.41097,0.1420786674060951,0.04080982999962306,,,,None,,,,0.5,0.5,0.8579109695603124,0.8583333333333333,training_double_stim.csv,0.8578124000341631,0.8910955000319518,p12_base_01,001,2023-05-10_10h05.39.330,expectation_shapes_perceived_time,2022.2.4,120.37533025088442,
1,-500,0.5,none,46,red,green,no_Expectation,,,,,,1,3,13,4,train_doubleStim,,,,,,red,1.4319530785988632,1.4333333333333333,2.3083999000373296,0.9982939999899827,3e-05,3e-05,1.4335880000144243,1.4669504000339657,2.0000649000285193,2.3083999000373296,2.3083999000373296,2.5083610000438057,3.400022700021509,1.0916227999841794,7.841743400029372,5.533343499992043,4.441720700007863,1.1838,-0.08069396792347286,-0.12385585774300485,,,,None,,0.0331,2.0333540000137873,-0.5,-0.5,0.8986230785988631,0.9,training_double_stim.csv,0.9001682000234723,0.9334953000070527,p12_base_01,001,2023-05-10_10h05.39.330,expectation_shapes_perceived_time,2022.2.4,120.37533025088442,
1,500,0.5,none,25,green,red,no_Expectation,,,,,,1,4,14,6,train_doubleStim,,,,,,green,1.049127179817575,1.05,2.308248999994248,0.9971638999995776,4e-05,4e-05,1.049783899972681,1.0831304999883287,1.9999368999851868,2.308248999994248,2.308248999994248,2.5082195999566466,2.799959099967964,0.49171009997371584,4.866642999986652,2.558393999992404,2.0666839000186883,1.78011,-0.09418530313548798,0.11393383443809028,,,,None,,0.03311,2.0335391999688,0.5,0.5,1.5824571798175748,1.5833333333333333,training_double_stim.csv,1.5833305999985896,1.6167849999619648,p12_base_01,001,2023-05-10_10h05.39.330,expectation_shapes_perceived_time,2022.2.4,120.37533025088442,
1,-500,0.5,none,23,green,red,no_Expectation,,,,,,1,5,15,2,train_doubleStim,,,,,,green,0.8346360853828332,0.8333333333333334,2.3082270000013523,0.9971447000280023,4e-05,4e-05,0.8332773000001907,0.8667333000339568,1.9999634000123478,2.3082270000013523,2.3082270000013523,2.5080826000194065,2.583167000033427,0.27494000003207475,4.390937500051223,2.0827105000498705,1.8077705000177957,0.64146,0.13346401046808692,-0.063554290699089,,,,None,,0.03313,2.033206499996595,-0.5,-0.5,0.30130608538283316,0.3,training_double_stim.csv,0.30005880002863705,0.3332355000311509,p12_base_01,001,2023-05-10_10h05.39.330,expectation_shapes_perceived_time,2022.2.4,120.37533025088442,
1,-500,0.5,none,68,red,green,no_Expectation,,,,,,1,6,16,3,train_doubleStim,,,,,,red,1.3784375786285186,1.3833333333333333,2.3086727000190876,0.9987251000129618,4e-05,4e-05,1.3835981000447646,1.4170585999963805,1.9999673000420444,2.3086727000190876,2.3086727000190876,2.5086662000394426,3.475012800015975,1.1663400999968871,8.61679230001755,6.308119599998463,5.141779500001576,1.12112,-0.05490027316870664,-0.1372506829217666,,,,None,,0.03374,2.0335360000026412,-0.5,-0.5,0.8451075786285186,0.85,training_double_stim.csv,0.8504356000339612,0.8834353000274859,p12_base_01,001,2023-05-10_10h05.39.330,expectation_shapes_perceived_time,2022.2.4,120.37533025088442,
1,500,0.5,none,88,red,green,no_Expectation,,,,,,1,7,17,9,train_doubleStim,,,,,,red,1.2676936191998727,1.275,2.3084707999951206,0.9970127000124194,3e-05,3e-05,1.275046500028111,1.3081178999855183,1.9998675999813713,2.3084707999951206,2.3084707999951206,2.50821930001257,3.4499675999977626,1.141496800002642,5.533026400022209,3.224555600027088,2.083058800024446,1.79264,-0.08963169952608671,0.11754976987027763,,,,None,,,,0.5,0.5,1.8010236191998727,1.8083333333333333,training_double_stim.csv,1.8083379000308923,1.8415983999730088,p12_base_01,001,2023-05-10_10h05.39.330,expectation_shapes_perceived_time,2022.2.4,120.37533025088442,
1,500,0.5,none,98,red,green,no_Expectation,,,,,,1,8,18,5,train_doubleStim,,,,,,red,0.4564082765458682,0.4583333333333333,2.308268299966585,0.9966292000026442,4e-05,4e-05,0.4581664999714121,0.49164289998589084,1.9997863000025973,2.308268299966585,2.308268299966585,2.5082693999866024,2.308268299966585,0.0,4.9331392999738455,2.6248710000072606,2.6248710000072606,0.3094,0.12210542518779714,0.08331899601049689,,,,None,,0.03323,2.0333920000120997,0.5,0.5,0.9897382765458682,0.9916666666666667,training_double_stim.csv,0.9917580999899656,1.0249784999759868,p12_base_01,001,2023-05-10_10h05.39.330,expectation_shapes_perceived_time,2022.2.4,120.37533025088442,
1,-500,0.5,none,59,green,red,no_Expectation,,,,,,1,9,19,0,train_doubleStim,,,,,,green,1.2401814533184574,1.2416666666666667,2.3080923999659717,0.9969049000064842,4e-05,4e-05,1.2415294999955222,1.2748401999706402,1.9993608999648131,2.3080923999659717,2.3080923999659717,2.5081421000068076,3.108042399981059,0.7999500000150874,5.666254999989178,3.3581626000232063,2.558212600008119,0.53208,0.14707343703639744,-0.014872594756489629,,,,None,,0.03324,2.0328548999968916,-0.5,-0.5,0.7068514533184574,0.7083333333333334,training_double_stim.csv,0.708111799962353,0.7412956999614835,p12_base_01,001,2023-05-10_10h05.39.330,expectation_shapes_perceived_time,2022.2.4,120.37533025088442,
,,,,,,,,,0,0,0,0,0,-1,-1,0,fam,0.5638149000005797,0.5638149000005797,269.99999999999955,2.5723950000246987,2.5723950000246987,,,,,,,,,,,,,,,,,,,,,,,,,,,,,,,,,,,,p12_base_01,001,2023-05-10_10h05.39.330,expectation_shapes_perceived_time,2022.2.4,120.37533025088442,
,,,,,,,,,1,0,1,0,0,-1,-1,0,fam,0.4970687000313774,0.4970687000313774,269.99999999999955,2.5056176999933086,2.5056176999933086,,,,,,,,,,,,,,,,,,,,,,,,,,,,,,,,,,,,p12_base_01,001,2023-05-10_10h05.39.330,expectation_shapes_perceived_time,2022.2.4,120.37533025088442,
,,,,,,,,,2,0,2,0,0,-1,-1,0,fam,0.4973714000079781,0.4973714000079781,269.99999999999955,2.505602099990938,2.505602099990938,,,,,,,,,,,,,,,,,,,,,,,,,,,,,,,,,,,,p12_base_01,001,2023-05-10_10h05.39.330,expectation_shapes_perceived_time,2022.2.4,120.37533025088442,
,,,,,,,,,3,0,3,0,0,-1,-1,0,fam,0.4976011000107974,0.4976011000107974,269.99999999999955,2.5060834999894723,2.5060834999894723,,,,,,,,,,,,,,,,,,,,,,,,,,,,,,,,,,,,p12_base_01,001,2023-05-10_10h05.39.330,expectation_shapes_perceived_time,2022.2.4,120.37533025088442,
,-233,0.5,none,,red,green,,1311.0962474371745,,,,,0,0,0,92,trial,,,,,,red,1.3110962474371746,1.3166666666666667,2.3078870000317693,0.9980381000204943,4e-05,4e-05,1.3160349000245333,1.3493044000351802,1.999565000005532,2.3078870000317693,2.3078870000317693,2.507956799992826,2.7166079999879003,0.408720999956131,4.98289789998671,2.675010899954941,2.26628989999881,1.21929,-0.09397247712305637,-0.11410943650656843,,,,None,,,,-0.233,-0.23333333333333334,1.0447662474371746,1.05,trial_list_0.5_green.csv,1.0495368000119925,1.0826636999845505,p12_base_01,001,2023-05-10_10h05.39.330,expectation_shapes_perceived_time,2022.2.4,120.37533025088442,
,-100,0.5,none,,red,green,,277.7798776826188,,,,,0,1,1,250,trial,,,,,,red,0.2777798776826188,0.275,2.3089061999926344,0.9969253999879584,2e-05,2e-05,0.27487589995143935,0.30814229999668896,2.000322200008668,2.3089061999926344,2.3089061999926344,2.5086909999954514,2.3089061999926344,0.0,4.417099199956283,2.1081929999636486,2.1081929999636486,0.17202,0.07605456818248199,0.12675761363747,,,,None,,0.03346,2.0337036999990232,-0.1,-0.1,0.14444987768261883,0.14166666666666666,trial_list_0.5_green.csv,0.14145979995373636,0.17522390000522137,p12_base_01,001,2023-05-10_10h05.39.330,expectation_shapes_perceived_time,2022.2.4,120.37533025088442,
,-233,0.5,none,,green,red,,1289.1190254707467,,,,,0,2,2,489,trial,,,,,,green,1.2891190254707467,1.2916666666666667,2.308508799993433,0.9972563000046648,3e-05,3e-05,1.291825499967672,1.3252396999741904,2.0000119999749586,2.308508799993433,2.308508799993433,2.508348500006832,2.316919000004418,0.008410200010985136,4.716299899970181,2.4077910999767482,2.399380899965763,1.41792,-0.14293598494428983,-0.037697402622669844,,,,None,,,,-0.233,-0.23333333333333334,1.0227890254707466,1.025,trial_list_0.5_green.csv,1.025050199998077,1.0584031000034884,p12_base_01,001,2023-05-10_10h05.39.330,expectation_shapes_perceived_time,2022.2.4,120.37533025088442,
,100,0.5,none,,green,red,,970.958097079332,,,,,0,3,3,361,trial,,,,,,green,0.970958097079332,0.975,2.308484999986831,0.9988098999601789,3e-05,3e-05,0.9750971999601461,1.0082999999867752,1.9997448999783956,2.308484999986831,2.308484999986831,2.5081699999864213,3.033041399961803,0.724556399974972,8.449676699994598,6.1411917000077665,5.4166353000327945,1.24792,-0.10384160496915644,-0.10520794187664535,,,,None,,0.03332,2.033342899987474,0.1,0.1,1.1042880970793318,1.1083333333333334,trial_list_0.5_green.csv,1.1080574999796227,1.1417036999482661,p12_base_01,001,2023-05-10_10h05.39.330,expectation_shapes_perceived_time,2022.2.4,120.37533025088442,
,-300,0.5,none,,red,green,,1210.452332929311,,,,,0,4,4,318,trial,,,,,,red,1.210452332929311,1.2166666666666666,2.3086178000085056,0.997219100012444,3e-05,3e-05,1.2169420999707654,1.2505029999883845,2.000285000016447,2.3086178000085056,2.3086178000085056,2.5086808999767527,2.8999670000048354,0.5913491999963298,7.0251744000124745,4.716556600003969,4.125207400007639,1.46478,-0.1469193816796072,-0.016324375742178578,,,,None,,0.03323,2.0338255999959074,-0.3,-0.3,0.8771223329293111,0.8833333333333333,trial_list_0.5_green.csv,0.8832293999730609,0.916525200009346,p12_base_01,001,2023-05-10_10h05.39.330,expectation_shapes_perceived_time,2022.2.4,120.37533025088442,
,33,0.5,none,,green,red,,1171.5375932426257,,,,,0,5,5,11,trial,,,,,,green,1.1715375932426257,1.175,2.3083961000083946,0.9972474999958649,4e-05,4e-05,1.1749739000224508,1.2084268999751657,1.9999256000155583,2.3083961000083946,2.3083961000083946,2.5083907999796793,4.666672600025777,2.358276500017382,5.79133889998775,3.482942799979355,1.124666299961973,1.70036,-0.11949401488475504,0.08702281518781074,,,,None,,0.03328,2.0332569999736734,0.033,0.03333333333333333,1.2378675932426255,1.2416666666666667,trial_list_0.5_green.csv,1.2414318000082858,1.275048399984371,p12_base_01,001,2023-05-10_10h05.39.330,expectation_shapes_perceived_time,2022.2.4,120.37533025088442,
,300,0.5,none,,green,red,,1089.7005049869556,,,,,0,6,6,103,trial,,,,,,green,1.0897005049869557,1.0916666666666666,2.3088723000255413,0.9966328999726102,2e-05,2e-05,1.0925176999880932,1.1255026999861002,2.0004706000327133,2.3088723000255413,2.3088723000255413,2.509021300007589,2.883683899999596,0.5748115999740548,8.492033899994567,6.183161599969026,5.608349999994971,1.44743,-0.14581221155564078,-0.02430203525927347,,,,None,,0.03386,2.0341104000108317,0.3,0.3,1.4230305049869556,1.425,trial_list_0.5_green.csv,1.4257628000341356,1.459059700020589,p12_base_01,001,2023-05-10_10h05.39.330,expectation_shapes_perceived_time,2022.2.4,120.37533025088442,
,-233,0.5,none,,green,red,,871.0356970575361,,,,,0,7,7,459,trial,,,,,,green,0.8710356970575361,0.875,2.308346000034362,0.9960389999905601,3e-05,3e-05,0.8750565000227652,0.9084747000015341,2.0001251000212505,2.308346000034362,2.308346000034362,2.5082884000148624,3.274810300034005,0.9664642999996431,6.6246883000130765,4.316342299978714,3.3498779999790713,1.65319,-0.1310321141667858,0.06842788184265483,,,,None,,0.03323,2.0332787000224926,-0.233,-0.23333333333333334,0.6047056970575361,0.6083333333333333,trial_list_0.5_green.csv,0.6082190000452101,0.641597300011199,p12_base_01,001,2023-05-10_10h05.39.330,expectation_shapes_perceived_time,2022.2.4,120.37533025088442,
,-233,0.5,none,,green,red,,1207.4927138728103,,,,,0,8,8,433,trial,,,,,,green,1.2074927138728104,1.2083333333333333,2.3084204000188038,0.9966416000388563,4e-05,4e-05,1.2082349000265822,1.2417769000167027,1.9998369000386447,2.3084204000188038,2.3084204000188038,2.5079024999868125,2.4580834000371397,0.14966300001833588,5.024435700033791,2.7160153000149876,2.5663522999966517,0.69989,0.11962102681508695,-0.08684814275615901,,,,None,,,,-0.233,-0.23333333333333334,0.9411627138728103,0.9416666666666667,trial_list_0.5_green.csv,0.9417375000193715,0.975002899998799,p12_base_01,001,2023-05-10_10h05.39.330,expectation_shapes_perceived_time,2022.2.4,120.37533025088442,
,300,0.5,none,,green,red,,1326.4250509633994,,,,,0,9,9,337,trial,,,,,,green,1.3264250509633995,1.3333333333333333,2.308661699993536,0.9982693999772891,3e-05,3e-05,1.3334090000134893,1.3669611999648623,2.0002231000107713,2.308661699993536,2.308661699993536,2.5083145999815315,2.558477699989453,0.24981599999591708,6.308329199964646,3.9996674999711104,3.7498514999751933,1.31753,-0.12419249289100905,-0.08017490047394256,,,,None,,0.03336,2.033638199965935,0.3,0.3,1.6597550509633994,1.6666666666666667,trial_list_0.5_green.csv,1.6662705999915488,1.699614199984353,p12_base_01,001,2023-05-10_10h05.39.330,expectation_shapes_perceived_time,2022.2.4,120.37533025088442,
,233,0.5,none,,green,red,,529.171893026215,,,,,0,10,10,209,trial,,,,,,green,0.529171893026215,0.5333333333333333,2.3082617000327446,0.9973753999802284,4e-05,4e-05,0.5332973999902606,0.5666525000124238,1.9998365000355989,2.3082617000327446,2.3082617000327446,2.5086258000228554,2.3082617000327446,0.0,4.758130900037941,2.449869200005196,2.449869200005196,0.25497,0.10614728380273242,0.10288121353187911,,,,None,,0.03339,2.0332789000240155,0.233,0.23333333333333334,0.795501893026215,0.8,trial_list_0.5_green.csv,0.8000680999830365,0.8333681999938563,p12_base_01,001,2023-05-10_10h05.39.330,expectation_shapes_perceived_time,2022.2.4,120.37533025088442,
,233,0.5,none,,green,red,,638.122373508272,,,,,0,11,11,259,trial,,,,,,green,0.638122373508272,0.6416666666666666,2.3083357000141405,0.9970264000003226,3e-05,3e-05,0.6416360000148416,0.6748064000275917,1.99990809999872,2.3083357000141405,2.3083357000141405,2.5084328000084497,2.3083357000141405,0.0,4.424934500013478,2.1165987999993376,2.1165987999993376,0.7565,0.10237248527313218,-0.10663800549284601,,,,None,,0.03329,2.033294400025625,0.233,0.23333333333333334,0.904452373508272,0.9083333333333333,trial_list_0.5_green.csv,0.9082981999963522,0.9416708999779075,p12_base_01,001,2023-05-10_10h05.39.330,expectation_shapes_perceived_time,2022.2.4,120.37533025088442,
,-300,0.5,none,,red,green,,1678.3482816309345,,,,,0,12,12,408,trial,,,,,,red,1.6783482816309345,1.6833333333333333,2.308278499986045,0.9967596000060439,4e-05,4e-05,1.68354779999936,1.7165835999767296,2.0000859000138007,2.308278499986045,2.308278499986045,2.508514599991031,3.2745118999737315,0.9662333999876864,8.374426700000186,6.0661482000141405,5.099914800026454,1.21827,-0.09360743249441497,-0.11440908415984052,,,,None,,0.03322,2.0335537999635562,-0.3,-0.3,1.3450182816309346,1.35,trial_list_0.5_green.csv,1.3499967000097968,1.3833291999762878,p12_base_01,001,2023-05-10_10h05.39.330,expectation_shapes_perceived_time,2022.2.4,120.37533025088442,
,-100,0.5,none,,green,red,,1630.4063405571294,,,,,0,13,13,257,trial,,,,,,green,1.6304063405571294,1.6333333333333333,2.308530599984806,0.9988812999799848,3e-05,3e-05,1.6335483000148088,1.6668500999803655,2.0001846000086516,2.308530599984806,2.308530599984806,2.5087905999971554,2.941938999982085,0.633408399997279,7.491762499965262,5.183231899980456,4.549823499983177,1.6602,-0.12949457897477995,0.07129476819959794,,,,None,,0.03337,2.033498300006613,-0.1,-0.1,1.4970763405571295,1.5,trial_list_0.5_green.csv,1.5002748999977484,1.5337815000093542,p12_base_01,001,2023-05-10_10h05.39.330,expectation_shapes_perceived_time,2022.2.4,120.37533025088442,
,300,0.5,none,,green,red,,1133.500122543268,,,,,0,14,14,211,trial,,,,,,green,1.133500122543268,1.1333333333333333,2.3083820000174455,0.9969597000163049,4e-05,4e-05,1.133469199994579,1.166729899996426,2.0003129999968223,2.3083820000174455,2.3083820000174455,2.5086363999871537,2.916728999989573,0.6083469999721274,10.424443500000052,8.116061499982607,7.507714500010479,1.47178,-0.1472429534492788,-0.013088262528824782,,,,None,,0.03329,2.0333349999855272,0.3,0.3,1.4668301225432678,1.475,trial_list_0.5_green.csv,1.475431099999696,1.50842470000498,p12_base_01,001,2023-05-10_10h05.39.330,expectation_shapes_perceived_time,2022.2.4,120.37533025088442,
,-167,0.5,none,,red,green,,380.8984141088136,,,,,0,15,15,242,trial,,,,,,red,0.3808984141088136,0.3833333333333333,2.307797199988272,0.9987458999967203,4e-05,4e-05,0.38303539995104074,0.41630159999476746,1.9994838999700733,2.307797199988272,2.307797199988272,2.507961699971929,2.307797199988272,0.0,3.6411838000058196,1.3333866000175476,1.3333866000175476,0.11736,0.05327548626756219,0.1378894938689845,,,,None,,,,-0.167,-0.16666666666666666,0.1805684141088136,0.18333333333333332,trial_list_0.5_green.csv,0.1829940999741666,0.2165213999687694,p12_base_01,001,2023-05-10_10h05.39.330,expectation_shapes_perceived_time,2022.2.4,120.37533025088442,
,167,0.5,none,,red,green,,958.891402069088,,,,,0,16,16,78,trial,,,,,,red,0.9588914020690881,0.9583333333333334,2.3082715999917127,0.996870199975092,3e-05,3e-05,0.9580583000206389,0.9914770000032149,1.9997388000483625,2.3082715999917127,2.3082715999917127,2.508045900030993,2.3082715999917127,0.0,3.833066900027916,1.5247953000362031,1.5247953000362031,0.85885,0.06342468409797984,-0.13352565073258915,,,,None,,,,0.167,0.16666666666666666,1.159221402069088,1.1666666666666667,trial_list_0.5_green.csv,1.166560300043784,1.199853300000541,p12_base_01,001,2023-05-10_10h05.39.330,expectation_shapes_perceived_time,2022.2.4,120.37533025088442,
,100,0.5,none,,green,red,,452.26077636665656,,,,,0,17,17,391,trial,,,,,,green,0.45226077636665657,0.45,2.308618899958674,0.9972659000195563,3e-05,3e-05,0.45026579999830574,0.4835993999731727,2.0002624999615364,2.308618899958674,2.308618899958674,2.5087924999534152,2.308618899958674,0.0,3.983232099970337,1.6746132000116631,1.6746132000116631,0.25239,0.10530994664875552,0.10373815640026665,,,,None,,0.03362,2.033532799978275,0.1,0.1,0.5855907763666566,0.5833333333333334,trial_list_0.5_green.csv,0.5837181999813765,0.6172220999724232,p12_base_01,001,2023-05-10_10h05.39.330,expectation_shapes_perceived_time,2022.2.4,120.37533025088442,
,-233,0.5,none,,green,red,,1817.4736959631848,,,,,0,18,18,125,trial,,,,,,green,1.8174736959631848,1.825,2.308409199991729,0.9966173999710009,6e-05,6e-05,1.8252823000075296,1.8584698000340723,2.0001002000062726,2.308409199991729,2.308409199991729,2.508336800034158,2.5834564000251703,0.2750472000334412,4.274986600037664,1.966577400045935,1.6915302000124939,1.89037,-0.049909998828958295,0.139143027038308,,,,None,,0.03329,2.0336394000332803,-0.233,-0.23333333333333334,1.5511436959631848,1.5583333333333333,trial_list_0.5_green.csv,1.5584543000441045,1.5920771000091918,p12_base_01,001,2023-05-10_10h05.39.330,expectation_shapes_perceived_time,2022.2.4,120.37533025088442,
,167,0.5,none,,red,green,,611.03004324423,,,,,0,19,19,98,trial,,,,,,red,0.61103004324423,0.6166666666666667,2.3083325999905355,0.996674400055781,5e-05,5e-05,0.6167235000175424,0.6500840000226162,1.9999284000368789,2.3083325999905355,2.3083325999905355,2.508271099999547,2.3083325999905355,0.0,6.416519800026435,4.1081872000359,4.1081872000359,1.31834,-0.12439582815356325,-0.07985905017265789,,,,None,,0.03326,2.033328799996525,0.167,0.16666666666666666,0.8113600432442301,0.8166666666666667,trial_list_0.5_green.csv,0.8167756000184454,0.8502365000313148,p12_base_01,001,2023-05-10_10h05.39.330,expectation_shapes_perceived_time,2022.2.4,120.37533025088442,
,33,0.5,none,,green,red,,838.6764813673345,,,,,0,20,20,457,trial,,,,,,green,0.8386764813673345,0.8416666666666667,2.3078499999828637,0.9980451000155881,5e-05,5e-05,0.8414395999861881,0.8747080999892205,1.9990370000014082,2.3078499999828637,2.3078499999828637,2.5077951999846846,2.3078499999828637,0.0,5.0745436999714,2.7666936999885365,2.7666936999885365,0.88764,0.051103379389663826,-0.13870917262908752,,,,None,,,,0.033,0.03333333333333333,0.9050064813673345,0.9083333333333333,trial_list_0.5_green.csv,0.9078886999632232,0.9411278999759816,p12_base_01,001,2023-05-10_10h05.39.330,expectation_shapes_perceived_time,2022.2.4,120.37533025088442,
,233,0.5,none,,red,green,,372.3106889028686,,,,,0,21,21,252,trial,,,,,,red,0.3723106889028686,0.375,2.3082917000283487,0.9974112999625504,4e-05,4e-05,0.37490579998120666,0.40858879999723285,2.0000559000181966,2.3082917000283487,2.3082917000283487,2.50823139998829,2.3082917000283487,0.0,3.2416495999787003,0.9333578999503516,0.9333578999503516,0.33751,0.12897690132454576,0.07222706474174563,,,,None,,0.03351,2.033472199982498,0.233,0.23333333333333334,0.6386406889028686,0.6416666666666666,trial_list_0.5_green.csv,0.6411638000281528,0.67461159999948,p12_base_01,001,2023-05-10_10h05.39.330,expectation_shapes_perceived_time,2022.2.4,120.37533025088442,
,233,0.5,none,,red,green,,494.8447293686378,,,,,0,22,22,38,trial,,,,,,red,0.49484472936863777,0.5,2.3079658999922685,0.9977800999768078,9e-05,9e-05,0.49974209995707497,0.5330634000129066,1.9995467999833636,2.3079658999922685,2.3079658999922685,2.508130499976687,2.3079658999922685,0.0,4.1915194999892265,1.883553599996958,1.883553599996958,0.82051,0.07900583378400837,-0.1249394580770365,,,,None,,0.03319,2.03292440000223,0.233,0.23333333333333334,0.7611747293686378,0.7666666666666666,trial_list_0.5_green.csv,0.7664204000029713,0.799698399961926,p12_base_01,001,2023-05-10_10h05.39.330,expectation_shapes_perceived_time,2022.2.4,120.37533025088442,
,-167,0.5,none,,red,green,,816.4080945386564,,,,,0,23,23,108,trial,,,,,,red,0.8164080945386565,0.8166666666666667,2.3087175999535248,0.9970077999751084,3e-05,3e-05,0.817011300008744,0.8502541999914683,1.9998977999784984,2.3087175999535248,2.3087175999535248,2.5084073999896646,2.3165809999918565,0.007863400038331747,4.158310099970549,1.8495925000170246,1.8417290999786928,1.20686,-0.08944553213751907,-0.11769148965463036,,,,None,,0.03324,2.0332882999791764,-0.167,-0.16666666666666666,0.6160780945386564,0.6166666666666667,trial_list_0.5_green.csv,0.6169161999714561,0.6502742999582551,p12_base_01,001,2023-05-10_10h05.39.330,expectation_shapes_perceived_time,2022.2.4,120.37533025088442,
,-233,0.5,none,,green,red,,1497.1669915274972,,,,,0,24,24,167,trial,,,,,,green,1.4971669915274972,1.5,2.3118245999794453,0.9966041999869049,4e-05,4e-05,1.4994298999663442,1.5332950999727473,2.0001736999838613,2.3118245999794453,2.3118245999794453,2.5080525999655947,2.4496660999720916,0.13784149999264628,3.7334835999645293,1.421658999985084,1.2838174999924377,1.0457,-0.021152146513043955,-0.1463023467152207,,,,None,,0.03335,2.0332638999680057,-0.233,-0.23333333333333334,1.2308369915274973,1.2333333333333334,trial_list_0.5_green.csv,1.232846700004302,1.2660888999816962,p12_base_01,001,2023-05-10_10h05.39.330,expectation_shapes_perceived_time,2022.2.4,120.37533025088442,
,-167,0.5,none,,green,red,,1434.6473098489023,0,0,0,0,0,25,25,251,fam,0.5647840999881737,0.5647840999881737,269.99999999999955,3.092410999990534,3.092410999990534,,,,,,,,,,,,,,,,,,,,,,,,,,,,,,,,,,,,p12_base_01,001,2023-05-10_10h05.39.330,expectation_shapes_perceived_time,2022.2.4,120.37533025088442,
,-167,0.5,none,,green,red,,1434.6473098489023,1,0,1,0,0,25,25,251,fam,0.5048858000081964,0.5048858000081964,269.99999999999955,2.5144927999936044,2.5144927999936044,,,,,,,,,,,,,,,,,,,,,,,,,,,,,,,,,,,,p12_base_01,001,2023-05-10_10h05.39.330,expectation_shapes_perceived_time,2022.2.4,120.37533025088442,
,-167,0.5,none,,green,red,,1434.6473098489023,2,0,2,0,0,25,25,251,fam,0.49912120000226423,0.49912120000226423,269.99999999999955,2.5073801000253297,2.5073801000253297,,,,,,,,,,,,,,,,,,,,,,,,,,,,,,,,,,,,p12_base_01,001,2023-05-10_10h05.39.330,expectation_shapes_perceived_time,2022.2.4,120.37533025088442,
,-167,0.5,none,,green,red,,1434.6473098489023,3,0,3,0,0,25,25,251,fam,0.49765739997383207,0.49765739997383207,269.99999999999955,2.5057399999932386,2.5057399999932386,,,,,,,,,,,,,,,,,,,,,,,,,,,,,,,,,,,,p12_base_01,001,2023-05-10_10h05.39.330,expectation_shapes_perceived_time,2022.2.4,120.37533025088442,
,-167,0.5,none,,green,red,,1434.6473098489023,,,,,0,25,25,251,trial,,,,,,green,1.4346473098489023,1.4416666666666667,2.3083768999786116,0.9987829999881797,4e-05,4e-05,1.441659299947787,1.4749585999525152,1.9995094999903813,2.3083768999786116,2.3083768999786116,2.5084159999969415,2.3083768999786116,0.0,4.699738099996466,2.3913612000178546,2.3913612000178546,1.53871,-0.14673161377795857,0.017933863906194936,,,,None,,,,-0.167,-0.16666666666666666,1.2343173098489024,1.2416666666666667,trial_list_0.5_green.csv,1.2417626999667846,1.2750202000024728,p12_base_01,001,2023-05-10_10h05.39.330,expectation_shapes_perceived_time,2022.2.4,120.37533025088442,
,-100,0.5,none,,red,green,,1090.6581827144028,,,,,0,26,26,82,trial,,,,,,red,1.0906581827144028,1.0916666666666666,2.308496000012383,0.9976508000399917,4e-05,4e-05,1.0914046000107192,1.1245667000184767,1.9997225000406615,2.308496000012383,2.308496000012383,2.5084012000006624,3.1168756000115536,0.8083795999991708,4.08351510000648,1.775019099994097,0.9666394999949262,1.78575,-0.0921540090028518,0.11558299434255988,,,,None,,,,-0.1,-0.1,0.9573281827144027,0.9583333333333334,trial_list_0.5_green.csv,0.9581577000208199,0.9913134000380524,p12_base_01,001,2023-05-10_10h05.39.330,expectation_shapes_perceived_time,2022.2.4,120.37533025088442,
,-300,0.5,none,,red,green,,905.4150017792208,,,,,0,27,27,254,trial,,,,,,red,0.9054150017792209,0.9083333333333333,2.3085021000006236,0.9970907000242732,3e-05,3e-05,0.9079800000181422,0.9413515999913216,1.9998423000215553,2.3085021000006236,2.3085021000006236,2.508540900016669,2.316997200017795,0.008495100017171353,4.6498996000154875,2.341397500014864,2.3329023999976926,0.59502,0.14128660736146373,-0.043472802265065766,,,,None,,0.03338,2.033463900035713,-0.3,-0.3,0.5720850017792207,0.575,trial_list_0.5_green.csv,0.5747497000265867,0.6082689000177197,p12_base_01,001,2023-05-10_10h05.39.330,expectation_shapes_perceived_time,2022.2.4,120.37533025088442,
,100,0.5,none,,green,red,,1685.952709035815,,,,,0,28,28,17,trial,,,,,,green,1.6859527090358148,1.6916666666666667,2.308480400010012,0.9970978999626823,4e-05,4e-05,1.6915882999892347,1.7246969999978319,2.0000316000077873,2.308480400010012,2.308480400010012,2.5081527000293136,2.9414763000095263,0.6329958999995142,4.233224900031928,1.9247445000219159,1.2917486000224017,1.93652,-0.029286941275044276,0.14489328841337695,,,,None,,0.03312,2.0333785000257194,0.1,0.1,1.8192827090358148,1.825,trial_list_0.5_green.csv,1.8249089000164531,1.8582236000220291,p12_base_01,001,2023-05-10_10h05.39.330,expectation_shapes_perceived_time,2022.2.4,120.37533025088442,
,100,0.5,none,,green,red,,663.8907867643139,,,,,0,29,29,423,trial,,,,,,green,0.6638907867643139,0.6666666666666666,2.3088280000374652,0.9958536999765784,3e-05,3e-05,0.6667287000454962,0.7001917000161484,2.0003089000238106,2.3088280000374652,2.3088280000374652,2.5085734000313096,2.3088280000374652,0.0,4.050554400018882,1.7417263999814168,1.7417263999814168,1.12772,-0.05773244899114531,-0.1360836297648425,,,,None,,0.03314,2.0337556000449695,0.1,0.1,0.797220786764314,0.8,trial_list_0.5_green.csv,0.8002266000257805,0.8335206000483595,p12_base_01,001,2023-05-10_10h05.39.330,expectation_shapes_perceived_time,2022.2.4,120.37533025088442,
,33,0.5,none,,red,green,,269.9137079487409,,,,,0,30,30,430,trial,,,,,,red,0.2699137079487409,0.26666666666666666,2.3088553000125103,0.9960686999838799,2e-05,2e-05,0.2666343000018969,0.30005640001036227,2.0004437000025064,2.3088553000125103,2.3088553000125103,2.508821600000374,2.3088553000125103,0.0,3.2005062000243925,0.8916509000118822,0.8916509000118822,0.24021,0.10126286666262525,0.10769225502215703,,,,None,,0.03352,2.0338832000270486,0.033,0.03333333333333333,0.3362437079487409,0.3333333333333333,trial_list_0.5_green.csv,0.333318600023631,0.36666519998107105,p12_base_01,001,2023-05-10_10h05.39.330,expectation_shapes_perceived_time,2022.2.4,120.37533025088442,
,-300,0.5,none,,green,red,,660.5375159085012,,,,,0,31,31,113,trial,,,,,,green,0.6605375159085012,0.6666666666666666,2.308330100029707,0.9964090000139549,3e-05,3e-05,0.6666138000437059,0.7000139000010677,2.000075999996625,2.308330100029707,2.308330100029707,2.508323600050062,2.308330100029707,0.0,3.6414463000255637,1.3331161999958567,1.3331161999958567,0.56463,0.14478677752409258,-0.029809042431430822,,,,None,,0.03334,2.0333371000015177,-0.3,-0.3,0.32720751590850117,0.325,trial_list_0.5_green.csv,0.3248351000365801,0.35826880001695827,p12_base_01,001,2023-05-10_10h05.39.330,expectation_shapes_perceived_time,2022.2.4,120.37533025088442,
,-100,0.5,none,,green,red,,1550.65425214004,,,,,0,32,32,313,trial,,,,,,green,1.55065425214004,1.5583333333333333,2.308380300004501,0.9977291999966837,3e-05,3e-05,1.557866399991326,1.5916495000128634,2.0000621000071988,2.308380300004501,2.308380300004501,2.508376399986446,2.5165704999817535,0.20819019997725263,3.9417801999952644,1.6333998999907635,1.4252097000135109,1.7884,-0.09118961239517312,0.11634536753866916,,,,None,,,,-0.1,-0.1,1.41732425214004,1.425,trial_list_0.5_green.csv,1.424606800021138,1.457783100020606,p12_base_01,001,2023-05-10_10h05.39.330,expectation_shapes_perceived_time,2022.2.4,120.37533025088442,
,233,0.5,none,,red,green,,1280.2151308397483,,,,,0,33,33,134,trial,,,,,,red,1.2802151308397482,1.2833333333333332,2.308081499999389,0.9965117000392638,4e-05,4e-05,1.2828995999880135,1.316144999989774,1.9996722000068985,2.308081499999389,2.308081499999389,2.507822900020983,2.6245353000122122,0.3164538000128232,4.816142300027423,2.5080608000280336,2.1916070000152104,1.90166,-0.04494428551456848,0.14082542794564792,,,,None,,,,0.233,0.23333333333333334,1.5465451308397482,1.55,trial_list_0.5_green.csv,1.5495144000160508,1.5828274000086822,p12_base_01,001,2023-05-10_10h05.39.330,expectation_shapes_perceived_time,2022.2.4,120.37533025088442,
,100,0.5,none,,green,red,,676.7381874194159,,,,,0,34,34,357,trial,,,,,,green,0.6767381874194159,0.675,2.308364900003653,0.9982778999838047,3e-05,3e-05,0.6748270000098273,0.7081891000270844,2.000013599987142,2.308364900003653,2.308364900003653,2.508341400010977,2.3584499999997206,0.050085099996067584,3.7417065000045113,1.4333416000008583,1.3832565000047907,0.68065,0.12464880371011686,-0.07946361236519948,,,,None,,0.03331,2.0333597999997437,0.1,0.1,0.810068187419416,0.8166666666666667,trial_list_0.5_green.csv,0.8166533000185154,0.849925099988468,p12_base_01,001,2023-05-10_10h05.39.330,expectation_shapes_perceived_time,2022.2.4,120.37533025088442,
,33,0.5,none,,red,green,,189.1878748050181,,,,,0,35,35,24,trial,,,,,,red,0.1891878748050181,0.19166666666666665,2.3083033000002615,0.9976228000014089,3e-05,3e-05,0.19163640000624582,0.2250163999851793,2.0000387000036426,2.3083033000002615,2.3083033000002615,2.508356800011825,2.3083033000002615,0.0,3.8249694000114687,1.5166661000112072,1.5166661000112072,0.1756,0.07747392077380558,0.12589512125743405,,,,None,,0.03339,,0.033,0.03333333333333333,0.2555178748050181,0.2583333333333333,trial_list_0.5_green.csv,0.25836849998449907,0.29168660001596436,p12_base_01,001,2023-05-10_10h05.39.330,expectation_shapes_perceived_time,2022.2.4,120.37533025088442,
,167,0.5,none,,green,red,,688.9941127108316,,,,,0,36,36,189,trial,,,,,,green,0.6889941127108316,0.6916666666666667,2.3082914000260644,0.9976172000169754,3e-05,3e-05,0.6916467000264674,0.7250717999995686,2.000056700024288,2.3082914000260644,2.3082914000260644,2.50842280004872,2.6084401000407524,0.3001487000146881,4.4749491000548005,2.166657700028736,1.866509000014048,1.22646,-0.09651982641617947,-0.1119629986427682,,,,None,,0.03339,2.033425100031309,0.167,0.16666666666666666,0.8893241127108317,0.8916666666666666,trial_list_0.5_green.csv,0.8914583000005223,0.924878100049682,p12_base_01,001,2023-05-10_10h05.39.330,expectation_shapes_perceived_time,2022.2.4,120.37533025088442,
,-233,0.5,none,,green,red,,1020.7156997519464,,,,,0,37,37,221,trial,,,,,,green,1.0207156997519464,1.025,2.308384299976751,0.9964660000405274,3e-05,3e-05,1.0248439999995753,1.0583271000068635,1.999678699998185,2.308384299976751,2.308384299976751,2.5085425000288524,2.8583521000109613,0.5499678000342101,4.441743800009135,2.133359500032384,1.5833916999981739,0.73727,0.10862122396657181,-0.10026574519991245,,,,None,,0.03333,2.0330938000115566,-0.233,-0.23333333333333334,0.7543856997519464,0.7583333333333333,trial_list_0.5_green.csv,0.7579921000287868,0.791369799990207,p12_base_01,001,2023-05-10_10h05.39.330,expectation_shapes_perceived_time,2022.2.4,120.37533025088442,
,300,0.5,none,,red,green,,780.7094203020481,,,,,0,38,38,312,trial,,,,,,red,0.7807094203020482,0.7833333333333333,2.3088937000138685,0.9962717000162229,4e-05,4e-05,0.783846199978143,0.8171198999625631,2.000510999991093,2.3088937000138685,2.3088937000138685,2.509031999972649,2.5336449000169523,0.2247512000030838,4.383782399992924,2.0748886999790557,1.8501374999759719,1.22849,-0.09723138725021208,-0.11134562088330739,,,,None,,,,0.3,0.3,1.114039420302048,1.1166666666666667,trial_list_0.5_green.csv,1.1170852999784984,1.1503433999605477,p12_base_01,001,2023-05-10_10h05.39.330,expectation_shapes_perceived_time,2022.2.4,120.37533025088442,
,33,0.5,none,,green,red,,1722.8541489511117,,,,,0,39,39,309,trial,,,,,,green,1.7228541489511118,1.7249999999999999,2.3087022999534383,0.9972033000085503,1e-05,1e-05,1.7253055999753997,1.7587857999606058,2.0001615999499336,2.3087022999534383,2.3087022999534383,2.508706799999345,2.3422781999688596,0.03357590001542121,3.992333200003486,1.6836309000500478,1.6500550000346266,1.94689,-0.024550825811777387,0.14577052825742826,,,,None,,0.03351,2.0336734000011347,0.033,0.03333333333333333,1.7891841489511116,1.7916666666666667,trial_list_0.5_green.csv,1.7920911999535747,1.825381699949503,p12_base_01,001,2023-05-10_10h05.39.330,expectation_shapes_perceived_time,2022.2.4,120.37533025088442,
,167,0.5,none,,green,red,,829.3357401900881,,,,,0,40,40,205,trial,,,,,,green,0.8293357401900882,0.8333333333333334,2.308449500007555,0.9960231999866664,2e-05,2e-05,0.8337344999890774,0.8669270999962464,1.9999410000164062,2.308449500007555,2.308449500007555,2.508454700000584,2.308449500007555,0.0,5.27488490001997,2.966435400012415,2.966435400012415,0.60242,0.1402376945077212,-0.046745898169240394,,,,None,,0.03336,2.0333556999685243,0.167,0.16666666666666666,1.0296657401900882,1.0333333333333332,trial_list_0.5_green.csv,1.033410099975299,1.0666406999807805,p12_base_01,001,2023-05-10_10h05.39.330,expectation_shapes_perceived_time,2022.2.4,120.37533025088442,
,33,0.5,none,,green,red,,150.63364328900366,,,,,0,41,41,389,trial,,,,,,green,0.15063364328900367,0.15,2.3084786999970675,0.9974729000241496,4e-05,4e-05,0.14990290004061535,0.18320860003586859,2.0000581000349484,2.3084786999970675,2.3084786999970675,2.5080890000099316,2.3084786999970675,0.0,4.1498426999896765,1.841363999992609,1.841363999992609,0.052,0.02404208224783067,0.14585529897017274,,,,None,,,,0.033,0.03333333333333333,0.21696364328900364,0.21666666666666667,trial_list_0.5_green.csv,0.21656380000058562,0.24987960001453757,p12_base_01,001,2023-05-10_10h05.39.330,expectation_shapes_perceived_time,2022.2.4,120.37533025088442,
,100,0.5,none,,green,red,,903.1189225201158,,,,,0,42,42,179,trial,,,,,,green,0.9031189225201158,0.9083333333333333,2.3083126000128686,0.9961564999539405,4e-05,4e-05,0.9085002000210807,0.9417054000077769,2.00028520001797,2.3083126000128686,2.3083126000128686,2.5086349999764934,2.3083126000128686,0.0,4.274858999997377,1.9665463999845088,1.9665463999845088,0.70697,0.11765954872807934,-0.08948754410304625,,,,None,,,,0.1,0.1,1.0364489225201157,1.0416666666666667,trial_list_0.5_green.csv,1.0415972999762744,1.0752090999740176,p12_base_01,001,2023-05-10_10h05.39.330,expectation_shapes_perceived_time,2022.2.4,120.37533025088442,
,-100,0.5,none,,green,red,,928.9518023943116,,,,,0,43,43,363,trial,,,,,,green,0.9289518023943116,0.9333333333333333,2.3082236999762245,0.9970982999657281,4e-05,4e-05,0.9333775999839418,0.966670099995099,1.9998703000019304,2.3082236999762245,2.3082236999762245,2.5081759999739006,2.4917254999745637,0.18350179999833927,4.974673599994276,2.6664499000180513,2.482948100019712,1.19664,-0.08562043099900397,-0.12050282881341301,,,,None,,0.03311,2.0332236999529414,-0.1,-0.1,0.7956218023943116,0.8,trial_list_0.5_green.csv,0.7999242999940179,0.833431999955792,p12_base_01,001,2023-05-10_10h05.39.330,expectation_shapes_perceived_time,2022.2.4,120.37533025088442,
,-33,0.5,none,,green,red,,199.3764937912792,,,,,0,44,44,29,trial,,,,,,green,0.1993764937912792,0.2,2.30781259998912,0.9976051999838091,8e-05,8e-05,0.20013299997663125,0.23316459998022765,1.9994633999885991,2.30781259998912,2.30781259998912,2.5081005999818444,2.30781259998912,0.0,4.216409599990584,1.908597000001464,1.908597000001464,0.08542,0.03919636188289544,0.1425322250287107,,,,None,,,,-0.033,-0.03333333333333333,0.1330464937912792,0.13333333333333333,trial_list_0.5_green.csv,0.13342909998027608,0.16718769998988137,p12_base_01,001,2023-05-10_10h05.39.330,expectation_shapes_perceived_time,2022.2.4,120.37533025088442,
,33,0.5,none,,green,red,,1302.1282395452083,,,,,0,45,45,239,trial,,,,,,green,1.3021282395452083,1.3083333333333333,2.3081671000109054,0.9959578000125475,3e-05,3e-05,1.3083766999770887,1.3419748999876902,1.9995612999773584,2.3081671000109054,2.3081671000109054,2.5083660000236705,2.3081671000109054,0.0,4.599924599984661,2.2917574999737553,2.2917574999737553,1.76726,-0.0987097775456693,0.1100371290673035,,,,None,,0.03338,2.0328618999919854,0.033,0.03333333333333333,1.3684582395452083,1.375,trial_list_0.5_green.csv,1.3751065999967977,1.4083868999732658,p12_base_01,001,2023-05-10_10h05.39.330,expectation_shapes_perceived_time,2022.2.4,120.37533025088442,
,-100,0.5,none,,red,green,,1561.47604919352,,,,,0,46,46,292,trial,,,,,,red,1.56147604919352,1.5666666666666667,2.3081571999937296,0.9965800999780186,4e-05,4e-05,1.5660895999753848,1.5996785999741405,2.0000922000035644,2.3081571999937296,2.3081571999937296,2.508252099971287,2.316467800003011,0.008310600009281188,4.591691599984188,2.283534399990458,2.275223799981177,1.79912,-0.08721832289100627,0.11935138921927173,,,,None,,0.03318,2.033425099973101,-0.1,-0.1,1.4281460491935203,1.4333333333333333,trial_list_0.5_green.csv,1.4326612000004388,1.4660338999819942,p12_base_01,001,2023-05-10_10h05.39.330,expectation_shapes_perceived_time,2022.2.4,120.37533025088442,
,33,0.5,none,,green,red,,584.6701327426745,,,,,0,47,47,383,trial,,,,,,green,0.5846701327426744,0.5833333333333334,2.3083559999940917,0.9967328000348061,4e-05,4e-05,0.5828603000263683,0.6160833000321873,2.000040300015826,2.3083559999940917,2.3083559999940917,2.508367400034331,2.391606800025329,0.0832508000312373,3.283071200014092,0.9747152000200003,0.891464399988763,0.78035,0.09409927771236941,-0.11400489415152448,,,,None,,,,0.033,0.03333333333333333,0.6510001327426745,0.65,trial_list_0.5_green.csv,0.6496547000133432,0.6827849000110291,p12_base_01,001,2023-05-10_10h05.39.330,expectation_shapes_perceived_time,2022.2.4,120.37533025088442,
,-233,0.5,none,,green,red,,540.2354931134145,,,,,0,48,48,53,trial,,,,,,green,0.5402354931134145,0.5416666666666666,2.3081313999718986,0.9965444999979809,3e-05,3e-05,0.5416939999558963,0.57483699999284,1.9997893999679945,2.3081313999718986,2.3081313999718986,2.508188399951905,2.3081313999718986,0.0,4.149924699973781,1.841793300001882,1.841793300001882,0.03622,0.01678485559544864,0.1468674864601756,,,,None,,0.03323,2.0330318000051193,-0.233,-0.23333333333333334,0.2739054931134145,0.275,trial_list_0.5_green.csv,0.27484179998282343,0.3082981999614276,p12_base_01,001,2023-05-10_10h05.39.330,expectation_shapes_perceived_time,2022.2.4,120.37533025088442,
,-300,0.5,none,,green,red,,1070.762907457559,,,,,0,49,49,15,trial,,,,,,green,1.070762907457559,1.075,2.3083558999933302,0.996743299998343,4e-05,4e-05,1.0747511999798007,1.1081369000021368,2.000591100018937,2.3083558999933302,2.3083558999933302,2.508586700016167,2.316756099986378,0.008400199993047863,4.96652090002317,2.6581650000298396,2.6497648000367917,1.3047,-0.12086133498989579,-0.08511361619006745,,,,None,,0.03328,2.0335573999909684,-0.3,-0.3,0.7374329074575591,0.7416666666666667,trial_list_0.5_green.csv,0.7418428999953903,0.7750961999990977,p12_base_01,001,2023-05-10_10h05.39.330,expectation_shapes_perceived_time,2022.2.4,120.37533025088442,
,-300,0.5,none,,red,green,,1358.2655178870823,0,0,0,0,0,50,50,14,fam,0.5650946000241674,0.5650946000241674,269.99999999999955,2.5731744000222534,2.5731744000222534,,,,,,,,,,,,,,,,,,,,,,,,,,,,,,,,,,,,p12_base_01,001,2023-05-10_10h05.39.330,expectation_shapes_perceived_time,2022.2.4,120.37533025088442,
,-300,0.5,none,,red,green,,1358.2655178870823,1,0,1,0,0,50,50,14,fam,0.4973951000138186,0.4973951000138186,269.99999999999955,2.5055717999930494,2.5055717999930494,,,,,,,,,,,,,,,,,,,,,,,,,,,,,,,,,,,,p12_base_01,001,2023-05-10_10h05.39.330,expectation_shapes_perceived_time,2022.2.4,120.37533025088442,
,-300,0.5,none,,red,green,,1358.2655178870823,2,0,2,0,0,50,50,14,fam,0.4971197000122629,0.4971197000122629,269.99999999999955,2.505328200000804,2.505328200000804,,,,,,,,,,,,,,,,,,,,,,,,,,,,,,,,,,,,p12_base_01,001,2023-05-10_10h05.39.330,expectation_shapes_perceived_time,2022.2.4,120.37533025088442,
,-300,0.5,none,,red,green,,1358.2655178870823,3,0,3,0,0,50,50,14,fam,0.49769549997290596,0.49769549997290596,269.99999999999955,2.505959599977359,2.505959599977359,,,,,,,,,,,,,,,,,,,,,,,,,,,,,,,,,,,,p12_base_01,001,2023-05-10_10h05.39.330,expectation_shapes_perceived_time,2022.2.4,120.37533025088442,
,-300,0.5,none,,red,green,,1358.2655178870823,,,,,0,50,50,14,trial,,,,,,red,1.3582655178870824,1.3666666666666667,2.3082540000323206,0.9975272000301629,4e-05,4e-05,1.3669413000461645,1.4001038999995217,2.000240700028371,2.3082540000323206,2.3082540000323206,2.508556700020563,2.508556700020563,0.20030269998824224,4.5417821000446565,2.233528100012336,2.0332254000240937,1.79451,-0.08893926450234223,0.11807454080483366,,,,None,,0.03358,2.0333618000149727,-0.3,-0.3,1.0249355178870823,1.025,trial_list_0.5_green.csv,1.0250136000104249,1.0586240000557154,p12_base_01,001,2023-05-10_10h05.39.330,expectation_shapes_perceived_time,2022.2.4,120.37533025088442,
,-100,0.5,none,,green,red,,1748.4750143799515,,,,,0,51,51,393,trial,,,,,,green,1.7484750143799515,1.75,2.3084247999941,0.9955475999740884,3e-05,3e-05,1.7501010000123642,1.7836250999826007,2.000136399990879,2.3084247999941,2.3084247999941,2.508719799981918,2.7166180000058375,0.40819320001173764,4.266565199999604,1.9581404000055045,1.5499471999937668,1.93075,-0.031906528409165316,0.14433905708908124,,,,None,,0.03348,2.0335826000082307,-0.1,-0.1,1.6151450143799515,1.6166666666666667,trial_list_0.5_green.csv,1.6166647999780253,1.6502565999981016,p12_base_01,001,2023-05-10_10h05.39.330,expectation_shapes_perceived_time,2022.2.4,120.37533025088442,
,233,0.5,none,,green,red,,469.7824492103277,,,,,0,52,52,473,trial,,,,,,green,0.4697824492103277,0.475,2.308553499984555,0.9961939000058919,3e-05,3e-05,0.4750421000062488,0.5086372999940068,2.000298400002066,2.308553499984555,2.308553499984555,2.5087211999925785,2.308553499984555,0.0,4.925015399989206,2.6164619000046514,2.6164619000046514,0.40049,0.14065810131469741,0.04546524486939714,,,,None,,0.03355,2.033780099998694,0.233,0.23333333333333334,0.7361124492103278,0.7416666666666667,trial_list_0.5_green.csv,0.7418185999849811,0.7753875000053085,p12_base_01,001,2023-05-10_10h05.39.330,expectation_shapes_perceived_time,2022.2.4,120.37533025088442,
,33,0.5,none,,red,green,,1816.6014213071287,,,,,0,53,53,376,trial,,,,,,red,1.8166014213071286,1.825,2.308439099986572,0.9971753999707289,3e-05,3e-05,1.8245227999868803,1.8580325999646448,1.9994139999616891,2.308439099986572,2.308439099986572,2.508225300000049,2.541689299978316,0.233250199991744,4.791670999955386,2.483231899968814,2.24998169997707,1.97502,-0.011590772667292028,0.14736839534128438,,,,None,,,,0.033,0.03333333333333333,1.8829314213071286,1.8916666666666666,trial_list_0.5_green.csv,1.8911638999707066,1.924465499992948,p12_base_01,001,2023-05-10_10h05.39.330,expectation_shapes_perceived_time,2022.2.4,120.37533025088442,
,233,0.5,none,,red,green,,1309.689271290259,,,,,0,54,54,2,trial,,,,,,red,1.309689271290259,1.3166666666666667,2.308318399998825,0.9969238999765366,4e-05,4e-05,1.3160762999905273,1.3493681999971159,1.999905199976638,2.308318399998825,2.308318399998825,2.5080756999668665,2.308318399998825,0.0,3.5996165999677032,1.2912981999688782,1.2912981999688782,1.85403,-0.06543668597705356,0.13255123569710847,,,,None,,,,0.233,0.23333333333333334,1.576019271290259,1.5833333333333333,trial_list_0.5_green.csv,1.5831500999629498,1.6164684999966994,p12_base_01,001,2023-05-10_10h05.39.330,expectation_shapes_perceived_time,2022.2.4,120.37533025088442,
,33,0.5,none,,green,red,,892.5158367927974,,,,,0,55,55,75,trial,,,,,,green,0.8925158367927973,0.8916666666666666,2.308103099989239,0.9969007999752648,3e-05,3e-05,0.8917009999859147,0.9249333999468945,1.9999099999549799,2.308103099989239,2.308103099989239,2.508292699989397,2.491661399952136,0.18355829996289685,4.06654339999659,1.7584403000073507,1.574882000044454,0.70419,0.11843847084499601,-0.08845404784626285,,,,None,,,,0.033,0.03333333333333333,0.9588458367927974,0.9583333333333334,trial_list_0.5_green.csv,0.9584796999697573,0.9915207999874838,p12_base_01,001,2023-05-10_10h05.39.330,expectation_shapes_perceived_time,2022.2.4,120.37533025088442,
,-233,0.5,none,,green,red,,840.9590070116465,,,,,0,56,56,5,trial,,,,,,green,0.8409590070116465,0.8416666666666667,2.3085044999606907,0.996210900018923,3e-05,3e-05,0.84169849997852,0.875099600001704,2.0001018999610096,2.3085044999606907,2.3085044999606907,2.508434599963948,2.916841399972327,0.6083369000116363,4.149971099977847,1.8414666000171565,1.2331297000055201,0.67344,0.1264183447643579,-0.0766171786450654,,,,None,,0.0332,2.0335747999488376,-0.233,-0.23333333333333334,0.5746290070116464,0.575,trial_list_0.5_green.csv,0.5753603999619372,0.6084105999907479,p12_base_01,001,2023-05-10_10h05.39.330,expectation_shapes_perceived_time,2022.2.4,120.37533025088442,
,-100,0.5,none,,green,red,,963.3233824561,,,,,0,57,57,265,trial,,,,,,green,0.9633233824561,0.9666666666666667,2.3081244000350125,0.9978367000003345,4e-05,4e-05,0.9662258999887854,0.9998957000207156,2.000125000020489,2.3081244000350125,2.3081244000350125,2.508287000004202,2.358155700028874,0.05003129999386147,4.149907400016673,1.8417829999816604,1.791751699987799,0.9021,0.0447522092316575,-0.140886584618181,,,,None,,0.03307,2.033046900003683,-0.1,-0.1,0.8299933824561,0.8333333333333334,trial_list_0.5_green.csv,0.8330862000002526,0.8664882000302896,p12_base_01,001,2023-05-10_10h05.39.330,expectation_shapes_perceived_time,2022.2.4,120.37533025088442,
,100,0.5,none,,red,green,,1160.356541000856,,,,,0,58,58,264,trial,,,,,,red,1.1603565410008558,1.1666666666666667,2.3083559999940917,0.9963338000234216,3e-05,3e-05,1.1663702999940142,1.1995659000240266,1.9999831999884918,2.3083559999940917,2.3083559999940917,2.5082712000003085,2.6165034999721684,0.30814749997807667,5.3835741999791935,3.075218199985102,2.767070700007025,1.128,-0.05785288985003517,-0.13603247072846109,,,,None,,0.03304,2.0333486999734305,0.1,0.1,1.2936865410008558,1.3,trial_list_0.5_green.csv,1.2994192999904044,1.3327898000134155,p12_base_01,001,2023-05-10_10h05.39.330,expectation_shapes_perceived_time,2022.2.4,120.37533025088442,
,167,0.5,none,,red,green,,1138.1309364505123,,,,,0,59,59,22,trial,,,,,,red,1.1381309364505123,1.1416666666666666,2.308671000006143,0.9967946000397205,2e-05,2e-05,1.1421590999816544,1.175498399999924,2.0002508999896236,2.308671000006143,2.308671000006143,2.5086667999858037,4.516963700007182,2.2082927000010386,6.916816299955826,4.608145299949683,2.3998525999486446,0.98326,0.007769431166648373,-0.14761919216631908,,,,None,,,,0.167,0.16666666666666666,1.3384609364505122,1.3416666666666666,trial_list_0.5_green.csv,1.3421449000015855,1.3752983000013046,p12_base_01,001,2023-05-10_10h05.39.330,expectation_shapes_perceived_time,2022.2.4,120.37533025088442,
,-167,0.5,none,,red,green,,1269.958390987351,,,,,0,60,60,400,trial,,,,,,red,1.269958390987351,1.275,2.3082468999782577,0.9964955999748781,4e-05,4e-05,1.275106099958066,1.3080671000061557,1.9994702999829315,2.3082468999782577,2.3082468999782577,2.508184199978132,3.5164556999807246,1.2082088000024669,5.191474699997343,2.8832278000190854,1.6750190000166185,1.82524,-0.07714256887971609,0.12609842989953593,,,,None,,,2.032801699999254,-0.167,-0.16666666666666666,1.0696283909873512,1.075,trial_list_0.5_green.csv,1.075151700002607,1.1083284000051208,p12_base_01,001,2023-05-10_10h05.39.330,expectation_shapes_perceived_time,2022.2.4,120.37533025088442,
,233,0.5,none,,red,green,,1485.9520591690796,,,,,0,61,61,392,trial,,,,,,red,1.4859520591690796,1.4916666666666667,2.308774400036782,0.9973163999966346,5e-05,5e-05,1.4920177000458352,1.5252665000152774,2.000242200039793,2.308774400036782,2.308774400036782,2.5087179000256583,2.6749060000292957,0.36613159999251366,8.675094400008675,6.366319999971893,6.000188399979379,1.86973,-0.058821577521475564,0.13561641484117976,,,,None,,0.03321,,0.233,0.23333333333333334,1.7522820591690795,1.7583333333333333,trial_list_0.5_green.csv,1.7587537000072189,1.7919410000322387,p12_base_01,001,2023-05-10_10h05.39.330,expectation_shapes_perceived_time,2022.2.4,120.37533025088442,
,167,0.5,none,,red,green,,1571.706662699831,,,,,0,62,62,352,trial,,,,,,red,1.571706662699831,1.575,2.3086727999616414,0.9971859999932349,3e-05,3e-05,1.5752118999953382,1.608503199997358,2.000216000014916,2.3086727999616414,2.3086727999616414,2.508545699995011,2.3086727999616414,0.0,3.5919502999749966,1.2832775000133552,1.2832775000133552,1.96272,-0.017271883268029455,0.14681100777825037,,,,None,,0.03341,2.0336005999706686,0.167,0.16666666666666666,1.772036662699831,1.775,trial_list_0.5_green.csv,1.7753931999905035,1.808843299979344,p12_base_01,001,2023-05-10_10h05.39.330,expectation_shapes_perceived_time,2022.2.4,120.37533025088442,
