id,delay,expectation,congruency,trial_num,stim_color,distractor_color,block,targetTimeMs,famLoop.thisRepN,famLoop.thisTrialN,famLoop.thisN,famLoop.thisIndex,trialss.thisRepN,trialss.thisTrialN,trialss.thisN,trialss.thisIndex,isTrial,handMove.started,audioCue2Start.started,handOri,handMove.ended,audioCue2End.started,target_color,expected_target_onset,expected_target_onset_in_frames,fixationPoint.started,fixationPoint.stopped,audCueStart.started,placeholder.started,audCueStart.stopped,target.started,target.stopped,audCueEnd.started,audCueEnd.stopped,responsePointer.started,cueForRep.started,space2pass.started,responseStarted,rtUntillMotionTreshold,responsePointer.stopped,rTAfterMotionTreshold,rtDurationBtwRespMotion,perceivedTime,resp_x_coord,resp_y_coord,feedbackPointer.stopped,actualTime_x_coord,actualTime_y_coord,space2pass.keys,space2pass.rt,expected_delay,expected_delays_frame,expected_distractor,expected_distractor_frame,expBlockFiles,distractor.started,distractor.stopped,participant,session,date,expName,psychopyVersion,frameRate,
,,,,,,,,,0,0,0,0,,,,,fam,0.6905824999557808,0.6905824999557808,270.0,2.690656999940984,2.690656999940984,,,,,,,,,,,,,,,,,,,,,,,,,,,,,,,,,,,,p13_high_01,001,2023-05-10_13h49.32.564,expectation_shapes_perceived_time,2022.2.4,119.9171611527082,
,,,,,,,,,1,0,1,0,,,,,fam,0.498627100023441,0.498627100023441,270.0,2.4985750999767333,2.4985750999767333,,,,,,,,,,,,,,,,,,,,,,,,,,,,,,,,,,,,p13_high_01,001,2023-05-10_13h49.32.564,expectation_shapes_perceived_time,2022.2.4,119.9171611527082,
,,,,,,,,,2,0,2,0,,,,,fam,0.4988653000909835,0.4988653000909835,270.0,2.4989201000425965,2.4989201000425965,,,,,,,,,,,,,,,,,,,,,,,,,,,,,,,,,,,,p13_high_01,001,2023-05-10_13h49.32.564,expectation_shapes_perceived_time,2022.2.4,119.9171611527082,
,,,,,,,,,3,0,3,0,,,,,fam,0.4987579999724403,0.4987579999724403,270.0,2.498810400022194,2.498810400022194,,,,,,,,,,,,,,,,,,,,,,,,,,,,,,,,,,,,p13_high_01,001,2023-05-10_13h49.32.564,expectation_shapes_perceived_time,2022.2.4,119.9171611527082,
,,,,,,,,,4,0,4,0,,,,,fam,0.49866779998410493,0.49866779998410493,270.0,2.498634000075981,2.498634000075981,,,,,,,,,,,,,,,,,,,,,,,,,,,,,,,,,,,,p13_high_01,001,2023-05-10_13h49.32.564,expectation_shapes_perceived_time,2022.2.4,119.9171611527082,
,,,,,,,,,5,0,5,0,,,,,fam,0.4990434000501409,0.4990434000501409,270.0,2.4988968999823555,2.4988968999823555,,,,,,,,,,,,,,,,,,,,,,,,,,,,,,,,,,,,p13_high_01,001,2023-05-10_13h49.32.564,expectation_shapes_perceived_time,2022.2.4,119.9171611527082,
,,,,,,,,,6,0,6,0,,,,,fam,0.49872499995399266,0.49872499995399266,270.0,2.4988553000148386,2.4988553000148386,,,,,,,,,,,,,,,,,,,,,,,,,,,,,,,,,,,,p13_high_01,001,2023-05-10_13h49.32.564,expectation_shapes_perceived_time,2022.2.4,119.9171611527082,
,,,,,,,,,7,0,7,0,,,,,fam,0.49871439998969436,0.49871439998969436,270.0,2.4987160000018775,2.4987160000018775,,,,,,,,,,,,,,,,,,,,,,,,,,,,,,,,,,,,p13_high_01,001,2023-05-10_13h49.32.564,expectation_shapes_perceived_time,2022.2.4,119.9171611527082,
,,,,,,,,,8,0,8,0,,,,,fam,0.498582600033842,0.498582600033842,270.0,2.498602900072001,2.498602900072001,,,,,,,,,,,,,,,,,,,,,,,,,,,,,,,,,,,,p13_high_01,001,2023-05-10_13h49.32.564,expectation_shapes_perceived_time,2022.2.4,119.9171611527082,
,,,,,,,,,9,0,9,0,,,,,fam,0.4980459000216797,0.4980459000216797,270.0,2.498148599988781,2.498148599988781,,,,,,,,,,,,,,,,,,,,,,,,,,,,,,,,,,,,p13_high_01,001,2023-05-10_13h49.32.564,expectation_shapes_perceived_time,2022.2.4,119.9171611527082,
,,,,,,,,,10,0,10,0,,,,,fam,0.4985111999558285,0.4985111999558285,270.0,2.498502600006759,2.498502600006759,,,,,,,,,,,,,,,,,,,,,,,,,,,,,,,,,,,,p13_high_01,001,2023-05-10_13h49.32.564,expectation_shapes_perceived_time,2022.2.4,119.9171611527082,
,,,,,,,,,11,0,11,0,,,,,fam,0.4986899000359699,0.4986899000359699,270.0,2.498660400044173,2.498660400044173,,,,,,,,,,,,,,,,,,,,,,,,,,,,,,,,,,,,p13_high_01,001,2023-05-10_13h49.32.564,expectation_shapes_perceived_time,2022.2.4,119.9171611527082,
,,,,,,,,,12,0,12,0,,,,,fam,0.4986071999883279,0.4986071999883279,270.0,2.498891400056891,2.498891400056891,,,,,,,,,,,,,,,,,,,,,,,,,,,,,,,,,,,,p13_high_01,001,2023-05-10_13h49.32.564,expectation_shapes_perceived_time,2022.2.4,119.9171611527082,
,,,,,,,,,13,0,13,0,,,,,fam,0.49871800001710653,0.49871800001710653,270.0,2.4986764000495896,2.4986764000495896,,,,,,,,,,,,,,,,,,,,,,,,,,,,,,,,,,,,p13_high_01,001,2023-05-10_13h49.32.564,expectation_shapes_perceived_time,2022.2.4,119.9171611527082,
,,,,,,,,,14,0,14,0,,,,,fam,0.498581999912858,0.498581999912858,270.0,2.498581300023943,2.498581300023943,,,,,,,,,,,,,,,,,,,,,,,,,,,,,,,,,,,,p13_high_01,001,2023-05-10_13h49.32.564,expectation_shapes_perceived_time,2022.2.4,119.9171611527082,
,,,,,,,,,15,0,15,0,,,,,fam,0.49868940003216267,0.49868940003216267,270.0,2.4987180000171065,2.4987180000171065,,,,,,,,,,,,,,,,,,,,,,,,,,,,,,,,,,,,p13_high_01,001,2023-05-10_13h49.32.564,expectation_shapes_perceived_time,2022.2.4,119.9171611527082,
,,,,,,,,,16,0,16,0,,,,,fam,0.49883679999038577,0.49883679999038577,270.0,2.49883260007482,2.49883260007482,,,,,,,,,,,,,,,,,,,,,,,,,,,,,,,,,,,,p13_high_01,001,2023-05-10_13h49.32.564,expectation_shapes_perceived_time,2022.2.4,119.9171611527082,
,,,,,,,,,17,0,17,0,,,,,fam,0.4985205000266433,0.4985205000266433,270.0,2.498530900105834,2.498530900105834,,,,,,,,,,,,,,,,,,,,,,,,,,,,,,,,,,,,p13_high_01,001,2023-05-10_13h49.32.564,expectation_shapes_perceived_time,2022.2.4,119.9171611527082,
,,,,,,,,,18,0,18,0,,,,,fam,0.4987013000063598,0.4987013000063598,270.0,2.4988705000141636,2.4988705000141636,,,,,,,,,,,,,,,,,,,,,,,,,,,,,,,,,,,,p13_high_01,001,2023-05-10_13h49.32.564,expectation_shapes_perceived_time,2022.2.4,119.9171611527082,
,,,,,,,,,19,0,19,0,,,,,fam,0.49875140003859997,0.49875140003859997,270.0,2.4994813000084832,2.4994813000084832,,,,,,,,,,,,,,,,,,,,,,,,,,,,,,,,,,,,p13_high_01,001,2023-05-10_13h49.32.564,expectation_shapes_perceived_time,2022.2.4,119.9171611527082,
,,,,,,,,,,,,,0,0,0,0,test,,,,,,red,1.0430164882784287,1.0416666666666667,2.300404299981892,0.9987366999266669,1.3999990187585354e-05,1e-05,0.033361999900080264,1.0415778999449685,1.0747538999421522,1.9996917999815196,2.0339605999179184,2.300404299981892,2.300404299981892,2.6000935999909416,2.649690299993381,0.3492860000114888,10.825497799902223,8.525093499920331,8.175807499908842,0.9933,0.0031113844567983544,-0.14779076169792182,10.825497799902223,-0.019916160446951013,-0.14647571986353652,space,8.2183244000189,,,,,,,,p13_high_01,001,2023-05-10_13h49.32.564,expectation_shapes_perceived_time,2022.2.4,119.9171611527082,
,,,,,,,,,,,,,1,0,1,0,test,,,,,,red,0.7090399711245776,0.7083333333333334,2.300173900090158,0.9978256000904366,1.8600025214254856e-05,2e-05,0.03325920004863292,0.7088085000868887,0.7418520000064746,2.0003697000211105,2.033312800107524,2.300173900090158,2.300173900090158,2.6003661000868306,2.816490500001237,0.5163165999110788,8.799982200027443,6.4998082999372855,5.983491700026207,0.66925,0.12741414062990233,-0.07494949448817782,8.799982200027443,0.11707621293816975,-0.09024937850504157,space,6.199500899994746,,,,,,,,p13_high_01,001,2023-05-10_13h49.32.564,expectation_shapes_perceived_time,2022.2.4,119.9171611527082,
,,,,,,,,,,,,,2,0,2,0,test,,,,,,red,0.8510285608991994,0.85,2.300569900078699,0.9983230999205261,2.2700056433677673e-05,2e-05,0.033534100046381354,0.8501174000557512,0.8835035000229254,2.0000368000473827,2.0339251999976113,2.300569900078699,2.300569900078699,2.600167000084184,2.6334422000218183,0.3328722999431193,8.367172199999914,6.066602299921215,5.733729999978095,0.75718,0.1021432724882477,-0.10685757737232068,8.367172199999914,0.06668451671734918,-0.13192787873176579,space,5.7599115000339225,,,,,,,,p13_high_01,001,2023-05-10_13h49.32.564,expectation_shapes_perceived_time,2022.2.4,119.9171611527082,
,,,,,,,,,,,,,3,0,3,0,test,,,,,,red,1.4280150495819657,1.425,2.30057930003386,0.9978868999751285,1.379998866468668e-05,1e-05,,1.4251709000673145,1.458623200072907,2.0006584000075236,,2.30057930003386,2.30057930003386,2.600453600054607,2.691941500059329,0.39136220002546906,6.725592700066045,4.425013400032185,4.033651200006716,1.76956,-0.09790935952158156,0.11074993126211685,6.725592700066045,-0.14405954970020748,-0.03314567990950515,space,4.122187300003134,,,,,,,,p13_high_01,001,2023-05-10_13h49.32.564,expectation_shapes_perceived_time,2022.2.4,119.9171611527082,
,,,,,,,,,,,,,4,0,4,0,test,,,,,,red,0.1922210979833618,0.19166666666666665,2.2998239001026377,0.9982189999427646,2.4300068616867065e-05,2e-05,0.03354100009892136,0.1920731000136584,0.22540350002236664,1.9999323000665754,2.0336320000933483,2.2998239001026377,2.2998239001026377,2.599760500015691,2.3080652999924496,0.008241399889811873,5.916581300087273,3.6167573999846354,3.6085160000948235,0.14758,0.06610868317625139,0.13221736635250278,5.916581300087273,0.08394022547458818,0.12167920325086459,space,3.316817699931562,,,,,,,,p13_high_01,001,2023-05-10_13h49.32.564,expectation_shapes_perceived_time,2022.2.4,119.9171611527082,
,,,,,,,,,,,,,5,0,5,0,test,,,,,,green,0.21494355853673403,0.21666666666666667,2.2991828999947757,0.9990238999016583,1.279998105019331e-05,1e-05,,0.2162610999075696,0.2494357000105083,1.9994091999251395,,2.2991828999947757,2.2991828999947757,2.5995736999902874,2.766369199962355,0.46718629996757954,6.233198500005528,3.9340156000107527,3.466829300043173,0.32925,0.12705961149560163,0.07554895818657395,6.233198500005528,0.09240510604562742,0.11538234844717918,space,3.632179200067185,,,,,,,,p13_high_01,001,2023-05-10_13h49.32.564,expectation_shapes_perceived_time,2022.2.4,119.9171611527082,
,,,,,,,,,,,,,6,0,6,0,test,,,,,,green,0.7225706351469222,0.725,2.30053130001761,0.9978838000679389,1.3599987141788006e-05,1e-05,0.033695299993269145,0.7255768999457359,0.7583937000017613,2.000585600035265,2.0335694999666885,2.30053130001761,2.30053130001761,2.600707500008866,2.30053130001761,0.0,5.2919935999671,2.9914622999494895,2.9914622999494895,0.75697,0.10221358994477485,-0.10679031785274984,5.2919935999671,0.11313530496928248,-0.09514301196618367,space,2.685474600060843,,,,,,,,p13_high_01,001,2023-05-10_13h49.32.564,expectation_shapes_perceived_time,2022.2.4,119.9171611527082,
,,,,,,,,,,,,,7,0,7,0,test,,,,,,red,0.9581991173300263,0.9583333333333334,2.3003943000221625,0.9982996999751776,2.8399983420968056e-05,3e-05,0.033281899988651276,0.9585343999788165,0.9914931000676006,1.9996474999934435,2.032990299980156,2.3003943000221625,2.3003943000221625,2.5999279000097886,2.7164432000136003,0.4160488999914378,6.250080300029367,3.9496860000072047,3.533637100015767,0.58605,0.1424551605605196,-0.039475526420384946,6.250080300029367,0.019356634934067234,-0.14655071013311116,space,3.650294499937445,,,,,,,,p13_high_01,001,2023-05-10_13h49.32.564,expectation_shapes_perceived_time,2022.2.4,119.9171611527082,
,,,,,,,,,,,,,8,0,8,0,test,,,,,,red,1.3276105241041043,1.325,2.2999061999144033,0.9981588999507949,1.2299977242946625e-05,1e-05,0.03333599993493408,1.3249868999700993,1.3585544999223202,1.999898299924098,2.032829999923706,2.2999061999144033,2.2999061999144033,2.5996901999460533,2.6580386999994516,0.3581325000850484,7.041473499964923,4.741567300050519,4.383434799965471,1.59922,-0.14069963495843713,0.045336549042163075,7.041473499964923,-0.12666945665857132,-0.07620130383603846,space,4.4416476000333205,,,,,,,,p13_high_01,001,2023-05-10_13h49.32.564,expectation_shapes_perceived_time,2022.2.4,119.9171611527082,
,,,,,,,,,,,,,9,0,9,0,test,,,,,,green,0.9401022911400678,0.9416666666666667,2.299637799966149,0.9984289000276476,1.5099998563528061e-05,2e-05,0.03297259996179491,0.9415565000381321,0.9749219999648631,1.999817300005816,2.033425400033593,2.299637799966149,2.299637799966149,2.600132899940945,2.3831931999884546,0.08355540002230555,6.916354999993928,4.616717200027779,4.533161800005473,1.01728,-0.008022047814505225,-0.14760567978689615,6.916354999993928,0.027652699399881603,-0.1452140426143068,space,4.31049790000543,,,,,,,,p13_high_01,001,2023-05-10_13h49.32.564,expectation_shapes_perceived_time,2022.2.4,119.9171611527082,
,,,,,,,,,,,,,10,0,10,0,test,,,,,,red,1.0039640007908464,1.0,2.299343099934049,0.9994093000423163,1.3199984095990658e-05,1e-05,0.033047699951566756,0.9994964000070468,1.0329545999411494,1.9996512000216171,2.032936400035396,2.299343099934049,2.299343099934049,2.59949269995559,2.624470300041139,0.3251272001070902,6.783094699960202,4.483751600026153,4.158624399919063,0.94275,0.02644347327050056,-0.14543910298775306,6.783094699960202,-0.001840839346250904,-0.14781204709695087,space,4.179399799904786,,,,,,,,p13_high_01,001,2023-05-10_13h49.32.564,expectation_shapes_perceived_time,2022.2.4,119.9171611527082,
,,,,,,,,,,,,,11,0,11,0,test,,,,,,green,1.2439121007830667,1.2416666666666667,2.299957500072196,0.998307199915871,1.3400102034211159e-05,1e-05,0.03346850001253188,1.2413341000210494,1.2747342000948265,1.9998923001112416,2.033498300006613,2.299957500072196,2.299957500072196,2.59987340006046,2.6413757000118494,0.3414181999396533,6.258106900029816,3.9581493999576196,3.6167312000179663,0.99344,0.003047259747923039,-0.14779209777426738,6.258106900029816,-0.10250885874290012,-0.10650691919175051,space,3.6508232000051066,,,,,,,,p13_high_01,001,2023-05-10_13h49.32.564,expectation_shapes_perceived_time,2022.2.4,119.9171611527082,
,,,,,,,,,,,,,12,0,12,0,test,,,,,,green,0.8248441449318448,0.825,2.2999918999848887,0.9988457000581548,2.220005262643099e-05,2e-05,0.03343000006861985,0.8250083000166342,0.8584699000930414,2.000239200075157,2.033348700031638,2.2999918999848887,2.2999918999848887,2.6001997999846935,2.6001997999846935,0.3002078999998048,7.1838463000021875,4.883854400017299,4.583646500017494,0.30745,0.12159335166224054,0.08406453942080828,7.1838463000021875,0.07729927576488617,-0.1260024282413399,space,4.576305099995807,,,,,,,,p13_high_01,001,2023-05-10_13h49.32.564,expectation_shapes_perceived_time,2022.2.4,119.9171611527082,
,,,,,,,,,,,,,13,0,13,0,test,,,,,,red,0.5924057281784335,0.5916666666666667,2.300513199996203,0.9977050999877974,1.2299977242946625e-05,1e-05,,0.5917566000716761,0.6250406000763178,2.0000616000033915,,2.300513199996203,2.300513199996203,2.600308599998243,2.4420349000720307,0.14152170007582754,6.591785000055097,4.291271800058894,4.149750099983066,0.29303,0.11765954872807934,0.08948754410304625,6.591785000055097,0.1416382361608351,-0.04231311869547589,space,3.9856513999402523,,,,,,,,p13_high_01,001,2023-05-10_13h49.32.564,expectation_shapes_perceived_time,2022.2.4,119.9171611527082,
,,,,,,,,,,,,,14,0,14,0,test,,,,,,red,1.5382526576913729,1.5333333333333332,2.2999978000298142,0.998683899990283,1.3499986380338669e-05,1e-05,,1.5331365000456572,1.5664762000087649,1.9997593000298366,,2.2999978000298142,2.2999978000298142,2.6002271999605,2.6168513000011444,0.31685349997133017,6.975174200022593,4.675176399992779,4.358322900021449,1.80849,-0.08366906761937554,0.1218658158803948,6.975174200022593,-0.14675737066865774,0.017721854048380902,space,4.369314100011252,,,,,,,,p13_high_01,001,2023-05-10_13h49.32.564,expectation_shapes_perceived_time,2022.2.4,119.9171611527082,
,,,,,,,,,,,,,15,0,15,0,test,,,,,,green,0.21370465668474062,0.21666666666666667,2.3004587000468746,0.9980726999929175,3.4100026823580265e-05,3e-05,0.03313180000986904,0.21651040005963296,0.24983700003940612,2.000303699984215,2.0336573000531644,2.3004587000468746,2.3004587000468746,2.60012389998883,2.3004587000468746,0.0,5.133149100001901,2.832690399955027,2.832690399955027,0.191,0.08347355815259305,0.12199981576148215,5.133149100001901,0.09195532475669337,0.11574112581697563,space,2.5302838999778032,,,,,,,,p13_high_01,001,2023-05-10_13h49.32.564,expectation_shapes_perceived_time,2022.2.4,119.9171611527082,
,,,,,,,,,,,,,16,0,16,0,test,,,,,,green,0.344885575969695,0.3416666666666667,2.2999725999543443,0.9989705999614671,2.2499938495457172e-05,2e-05,,0.34174499998334795,0.3751005999511108,1.9999116999097168,,2.2999725999543443,2.2999725999543443,2.599838599911891,2.441744599957019,0.14177200000267476,5.275242500007153,2.9752699000528082,2.8334979000501335,0.4933,0.14779076169792182,0.0031113844567983544,5.275242500007153,0.130616463397083,0.0692179849903795,space,2.66957819997333,,,,,,,,p13_high_01,001,2023-05-10_13h49.32.564,expectation_shapes_perceived_time,2022.2.4,119.9171611527082,
,,,,,,,,,,,,,17,0,17,0,test,,,,,,green,1.060643924605741,1.0583333333333333,2.30014989990741,0.9983077000360936,1.279998105019331e-05,1e-05,0.03294079995248467,1.0582703999243677,1.0918975999811664,2.0003448999486864,2.0335278999991715,2.30014989990741,2.30014989990741,2.5998831000179052,2.30014989990741,0.0,7.216876999940723,4.916727100033313,4.916727100033313,0.99678,0.0014930905940994741,-0.14781596881584796,7.216876999940723,-0.02799304923925237,-0.14514881725587267,space,4.609952199971303,,,,,,,,p13_high_01,001,2023-05-10_13h49.32.564,expectation_shapes_perceived_time,2022.2.4,119.9171611527082,
,,,,,,,,,,,,,18,0,18,0,test,,,,,,green,0.5953347742006203,0.5916666666666667,2.3002261999063194,0.9983517000218853,1.859990879893303e-05,2e-05,,0.5914635999361053,0.6250220999354497,2.000010099960491,,2.3002261999063194,2.3002261999063194,2.6001145999180153,2.675013699918054,0.37478750001173466,5.966898799990304,3.6666726000839844,3.2918851000722498,0.35242,0.13221736635250278,0.06610868317625139,5.966898799990304,0.1412428853365699,-0.043614645456434606,space,3.361598299932666,,,,,,,,p13_high_01,001,2023-05-10_13h49.32.564,expectation_shapes_perceived_time,2022.2.4,119.9171611527082,
,,,,,,,,,,,,,19,0,19,0,test,,,,,,green,1.8429369307954044,1.8416666666666666,2.299881699960679,0.9951636999612674,2.9199989512562752e-05,3e-05,0.033289199927821755,1.8416853999951854,1.8749530999921262,2.000101999961771,2.0333446000004187,2.299881699960679,2.299881699960679,2.5996738999383524,3.0332108999136835,0.7333291999530047,12.408188299974427,10.108306600013748,9.374977400060743,1.89549,-0.04766748300656558,0.13992712753540218,12.408188299974427,-0.07001629727070258,0.13019027641490946,space,9.804229600005783,,,,,,,,p13_high_01,001,2023-05-10_13h49.32.564,expectation_shapes_perceived_time,2022.2.4,119.9171611527082,
,,,,,,,,,0,0,0,0,,,,,fam,0.5407275999896228,0.5407275999896228,270.0,2.5408489999826998,2.5408489999826998,,,,,,,,,,,,,,,,,,,,,,,,,,,,,,,,,,,,p13_high_01,001,2023-05-10_13h49.32.564,expectation_shapes_perceived_time,2022.2.4,119.9171611527082,
,,,,,,,,,1,0,1,0,,,,,fam,0.498465699958615,0.498465699958615,270.0,2.498774699983187,2.498774699983187,,,,,,,,,,,,,,,,,,,,,,,,,,,,,,,,,,,,p13_high_01,001,2023-05-10_13h49.32.564,expectation_shapes_perceived_time,2022.2.4,119.9171611527082,
,,,,,,,,,2,0,2,0,,,,,fam,0.49881110002752393,0.49881110002752393,270.0,2.4987383000552654,2.4987383000552654,,,,,,,,,,,,,,,,,,,,,,,,,,,,,,,,,,,,p13_high_01,001,2023-05-10_13h49.32.564,expectation_shapes_perceived_time,2022.2.4,119.9171611527082,
,,,,,,,,,3,0,3,0,,,,,fam,0.49918700009584427,0.49918700009584427,270.0,2.4984760000370443,2.4984760000370443,,,,,,,,,,,,,,,,,,,,,,,,,,,,,,,,,,,,p13_high_01,001,2023-05-10_13h49.32.564,expectation_shapes_perceived_time,2022.2.4,119.9171611527082,
,,,,,,,,,4,0,4,0,,,,,fam,0.4990867000306025,0.4990867000306025,270.0,2.4995857999892905,2.4995857999892905,,,,,,,,,,,,,,,,,,,,,,,,,,,,,,,,,,,,p13_high_01,001,2023-05-10_13h49.32.564,expectation_shapes_perceived_time,2022.2.4,119.9171611527082,
,,,,,,,,,,,,,0,0,0,0,testSingleStim,,,,,,red,1.5947364657082148,1.5916666666666666,0.02965699997730553,0.9983707999344915,1.3699987903237343e-05,1e-05,0.03331700002308935,1.5920805000932887,1.6250993000576273,2.0000760999973863,2.0335886999964714,2.3003111000871286,2.3003111000871286,2.5998250000411645,2.9419472999870777,0.6416361998999491,5.349770400091074,3.049459300003946,2.4078231001039967,1.72165,-0.11340862838752386,0.09481704996333962,,,,None,,,,,,,,,p13_high_01,001,2023-05-10_13h49.32.564,expectation_shapes_perceived_time,2022.2.4,119.9171611527082,
,,,,,,,,,,,,,1,0,1,0,testSingleStim,,,,,,red,0.5726956655917609,0.575,0.002377399941906333,0.9987596999853849,1.3399985618889332e-05,1e-05,0.033576800022274256,0.5746594000374898,0.608440599986352,1.9997411000076681,2.033047200064175,2.299807099974714,2.299807099974714,2.599509399966337,2.6662268000654876,0.3664197000907734,4.458202900015749,2.158395800041035,1.7919760999502614,0.37017,0.1356973379223227,0.05863465218865795,,,,None,,,,,,,,,p13_high_01,001,2023-05-10_13h49.32.564,expectation_shapes_perceived_time,2022.2.4,119.9171611527082,
,,,,,,,,,,,,,2,0,2,0,testSingleStim,,,,,,green,0.9138957909579969,0.9166666666666666,0.00219140003900975,0.9977150000631809,1.3299984857439995e-05,1e-05,0.03371690004132688,0.917045500013046,0.9499887999845669,2.000150499981828,2.0334832000080496,2.2997841000324115,2.2997841000324115,2.599745500017889,2.6248728999635205,0.32508879993110895,4.191538000013679,1.8917538999812678,1.5666651000501588,0.93114,0.03173135561229447,-0.14437766803593982,,,,None,,,,,,,,,p13_high_01,001,2023-05-10_13h49.32.564,expectation_shapes_perceived_time,2022.2.4,119.9171611527082,
,,,,,,,,,,,,,3,0,3,0,testSingleStim,,,,,,red,1.6577171722777573,1.6583333333333332,0.002110400004312396,0.9981942001031712,1.4399993233382702e-05,1e-05,0.033866999903693795,1.658449099981226,1.6919928999850526,2.0001311999512836,2.033475899952464,2.3000973999733105,2.3000973999733105,2.5998717999318615,2.7000844998983666,0.3999870999250561,4.366463499958627,2.0663660999853164,1.6663790000602603,1.85242,-0.06610868317625139,0.13221736635250278,,,,None,,,,,,,,,p13_high_01,001,2023-05-10_13h49.32.564,expectation_shapes_perceived_time,2022.2.4,119.9171611527082,
,,,,,,,,,,,,,4,0,4,0,testSingleStim,,,,,,red,0.7158178739308961,0.7166666666666667,0.003384399926289916,0.9972267999546602,1.2999982573091984e-05,1e-05,0.03301010001450777,0.7165757999755442,0.7499823999824002,2.0000632000155747,2.0334476999705657,2.2997583000687882,2.2997583000687882,2.5999041000613943,2.62506150000263,0.3253031999338418,5.424974099965766,3.125215799896978,2.799912599963136,0.42271,0.14348696953415283,0.035542643829560794,,,,None,,,,,,,,,p13_high_01,001,2023-05-10_13h49.32.564,expectation_shapes_perceived_time,2022.2.4,119.9171611527082,
,,,,,,,,,,,,,5,0,5,0,testSingleStim,,,,,,green,1.064809836331291,1.0666666666666667,0.002228700090199709,0.9974747000960633,1.309998333454132e-05,1e-05,,1.066575299948454,1.0998362000100315,1.9998371999245137,,2.300060199922882,2.300060199922882,2.6003487999551,2.6330187999410555,0.33295860001817346,3.5997331999242306,1.2996730000013486,0.9667143999831751,0.86973,0.058821577521475564,-0.13561641484117976,,,,None,,,,,,,,,p13_high_01,001,2023-05-10_13h49.32.564,expectation_shapes_perceived_time,2022.2.4,119.9171611527082,
,,,,,,,,,,,,,6,0,6,0,testSingleStim,,,,,,red,0.4957887611226308,0.49166666666666664,0.002299100044183433,0.9982364000752568,2.329994458705187e-05,2e-05,,0.49128570000175387,0.5250893000047654,1.9994501000037417,,2.299822499975562,2.299822499975562,2.599738199962303,2.8077003000071272,0.5078778000315651,4.133081799955107,1.8332592999795452,1.32538149994798,0.21735,0.0932739685822141,0.11468110891255831,,,,None,,,,,,,,,p13_high_01,001,2023-05-10_13h49.32.564,expectation_shapes_perceived_time,2022.2.4,119.9171611527082,
,,,,,,,,,,,,,7,0,7,0,testSingleStim,,,,,,green,0.39776658278273985,0.4,0.002218100009486079,0.9983169999904931,1.3899989426136017e-05,1e-05,0.03301899996586144,0.3999736999394372,0.43315549998078495,1.9998400999465957,2.032979700015858,2.2996666999533772,2.2996666999533772,2.5996974000008777,2.6578759000403807,0.3582092000870034,3.7331133999396116,1.4334466999862343,1.075237499899231,0.73274,0.1100371290673035,-0.0987097775456693,,,,None,,,,,,,,,p13_high_01,001,2023-05-10_13h49.32.564,expectation_shapes_perceived_time,2022.2.4,119.9171611527082,
,,,,,,,,,,,,,8,0,8,0,testSingleStim,,,,,,red,0.30669209854072155,0.30833333333333335,0.0024709999561309814,0.9979859999148175,1.279998105019331e-05,1e-05,0.03347229992505163,0.3081769999116659,0.3417133999755606,1.9993223999626935,2.0327459999825805,2.299839699990116,2.299839699990116,2.600109599996358,2.4163014999357983,0.11646179994568229,4.28303719998803,1.9831974999979138,1.8667357000522316,0.1953,0.08511361619006745,0.12086133498989579,,,,None,,,,,,,,,p13_high_01,001,2023-05-10_13h49.32.564,expectation_shapes_perceived_time,2022.2.4,119.9171611527082,
,,,,,,,,,,,,,9,0,9,0,testSingleStim,,,,,,red,1.6823806108267505,1.6833333333333333,0.002266300027258694,0.9977539000101388,2.859998494386673e-05,3e-05,,1.683500500046648,1.7163737000664696,2.000139100011438,,2.300074700033292,2.300074700033292,2.600162700051442,2.942064500064589,0.6419898000312969,4.908209200017154,2.608134499983862,1.9661446999525651,1.6756,-0.12589512125743405,0.07747392077380558,,,,None,,,,,,,,,p13_high_01,001,2023-05-10_13h49.32.564,expectation_shapes_perceived_time,2022.2.4,119.9171611527082,
,,,,,,,,,,,,,10,0,10,0,testSingleStim,,,,,,red,1.0930619440298874,1.0916666666666666,0.002229599980637431,0.9983166999882087,1.279998105019331e-05,1e-05,0.032833099947310984,1.0910485999193043,1.1243740998907015,1.9995627999305725,2.0328582999063656,2.2996412999927998,2.2996412999927998,2.6001642999472097,2.699493999942206,0.3998526999494061,4.024638399947435,1.724997099954635,1.3251444000052288,0.92644,0.03385739812143824,-0.14389394201611252,,,,None,,,,,,,,,p13_high_01,001,2023-05-10_13h49.32.564,expectation_shapes_perceived_time,2022.2.4,119.9171611527082,
,,,,,,,,,,,,,11,0,11,0,testSingleStim,,,,,,red,1.4382924337268805,1.4333333333333333,0.0022166999988257885,0.9977838000049815,1.3699987903237343e-05,1e-05,0.03365360002499074,1.4335648999549448,1.4667209999170154,2.0002657999284565,2.0333953999215737,2.300154299940914,2.300154299940914,2.600151399965398,2.675138899940066,0.3749845999991521,5.5921833999454975,3.2920291000045836,2.9170445000054315,1.52325,-0.14742937114914278,0.010787514962132398,,,,None,,,,,,,,,p13_high_01,001,2023-05-10_13h49.32.564,expectation_shapes_perceived_time,2022.2.4,119.9171611527082,
,,,,,,,,,,,,,12,0,12,0,testSingleStim,,,,,,green,1.5551101953521247,1.55,0.0023071999894455075,0.9972942000022158,2.7399975806474686e-05,3e-05,0.033321799943223596,1.5501340999035165,1.583315399941057,2.0002534999512136,2.0333659999305382,2.30005279998295,2.30005279998295,2.600006299908273,3.216870299889706,0.916817499906756,6.300616199965589,4.000563399982639,3.0837459000758827,1.3642,-0.13457356761610573,-0.06116980346186625,,,,None,,,,,,,,,p13_high_01,001,2023-05-10_13h49.32.564,expectation_shapes_perceived_time,2022.2.4,119.9171611527082,
,,,,,,,,,,,,,13,0,13,0,testSingleStim,,,,,,red,1.285915188025053,1.2833333333333332,0.0022291000932455063,0.9973578000208363,1.3199984095990658e-05,1e-05,0.03309460007585585,1.2831595999887213,1.3166439000051469,1.9995099999941885,2.0327820000238717,2.299714600085281,2.299714600085281,2.599588999990374,2.666627800092101,0.36691320000682026,4.333202000008896,2.033487399923615,1.666574199916795,1.04925,-0.022779654925099764,-0.14605778746093376,,,,None,,,,,,,,,p13_high_01,001,2023-05-10_13h49.32.564,expectation_shapes_perceived_time,2022.2.4,119.9171611527082,
,,,,,,,,,,,,,14,0,14,0,testSingleStim,,,,,,red,1.4571464997500754,1.4583333333333333,0.0031856000423431396,0.9974670000374317,1.3199984095990658e-05,1e-05,0.03296470001805574,1.45821920002345,1.4914644000818953,1.999635500018485,2.0329937000060454,2.299725200049579,2.299725200049579,2.5996944999787956,3.0329149999888614,0.7331897999392822,4.749846199993044,2.450120999943465,1.7169312000041828,1.30867,-0.1219143132534853,-0.08359838623096134,,,,None,,,,,,,,,p13_high_01,001,2023-05-10_13h49.32.564,expectation_shapes_perceived_time,2022.2.4,119.9171611527082,
,,,,,,,,,,,,,15,0,15,0,testSingleStim,,,,,,red,1.2090937930242578,1.2083333333333333,0.0022335000103339553,0.9977628000779077,1.4499993994832039e-05,1e-05,0.03338749997783452,1.2080906999763101,1.2416847000131384,1.9997640999499708,2.033498700009659,2.300057500018738,2.300057500018738,2.5999885000055656,2.691416100016795,0.3913585999980569,3.783536499948241,1.4834789999295026,1.0921203999314457,0.98554,0.006712319794504026,-0.14767103547908858,,,,None,,,,,,,,,p13_high_01,001,2023-05-10_13h49.32.564,expectation_shapes_perceived_time,2022.2.4,119.9171611527082,
,,,,,,,,,,,,,16,0,16,0,testSingleStim,,,,,,red,1.4156282867411638,1.4166666666666667,0.002261199988424778,0.9976643000263721,1.2499978765845299e-05,1e-05,,1.416449600015767,1.4496204999741167,2.000133999972604,,2.299864700064063,2.299864700064063,2.6000587000744417,2.9828506000339985,0.6829858999699354,4.641442900057882,2.341578199993819,1.6585923000238836,1.17781,-0.07834630333465029,-0.12535408533544046,,,,None,,,,,,,,,p13_high_01,001,2023-05-10_13h49.32.564,expectation_shapes_perceived_time,2022.2.4,119.9171611527082,
,,,,,,,,,,,,,17,0,17,0,testSingleStim,,,,,,green,1.4377272072982012,1.4333333333333333,0.002330200048163533,0.9974192000227049,1.6700010746717453e-05,2e-05,0.03370009991340339,1.4336032000137493,1.467274499940686,2.000484099960886,2.0332179999677464,2.300371399964206,2.300371399964206,2.6002225999254733,2.975453899940476,0.6750824999762699,5.133932399912737,2.8335609999485314,2.1584784999722615,0.94565,0.02511623668395126,-0.14567417276691727,,,,None,,,,,,,,,p13_high_01,001,2023-05-10_13h49.32.564,expectation_shapes_perceived_time,2022.2.4,119.9171611527082,
,,,,,,,,,,,,,18,0,18,0,testSingleStim,,,,,,green,1.6590434223221762,1.6583333333333332,0.0022731999633833766,0.9975534999975935,2.259993925690651e-05,2e-05,0.03344709996599704,1.6584801999852061,1.6915505999932066,2.00033579999581,2.0333704999648035,2.2999970000237226,2.2999970000237226,2.6001412000041455,3.1416038000024855,0.8416067999787629,4.382970599923283,2.08297359989956,1.2413667999207973,1.35492,-0.1327337924728949,-0.06506558454553672,,,,None,,,,,,,,,p13_high_01,001,2023-05-10_13h49.32.564,expectation_shapes_perceived_time,2022.2.4,119.9171611527082,
,,,,,,,,,,,,,19,0,19,0,testSingleStim,,,,,,green,1.2475075609762505,1.25,0.002685900079086423,0.9987088000634685,1.4299992471933365e-05,1e-05,,1.2503428000491112,1.2836225000210106,2.0000084000639617,,2.299893800052814,2.299893800052814,2.5999840000877157,2.775130100082606,0.4752363000297919,3.6498737999936566,1.3499799999408424,0.8747436999110505,1.05404,-0.024976824125675912,-0.1456981407331095,,,,None,,,,,,,,,p13_high_01,001,2023-05-10_13h49.32.564,expectation_shapes_perceived_time,2022.2.4,119.9171611527082,
,,,,,,,,,,,,,20,0,20,0,testSingleStim,,,,,,red,0.6548339551574869,0.6583333333333333,0.002882799948565662,0.997988099930808,2.2700056433677673e-05,2e-05,,0.6582094000186771,0.6914613000117242,1.999798999982886,,2.2998572000069544,2.2998572000069544,2.599783799960278,2.4414877999806777,0.1416305999737233,4.216279500047676,1.916422300040722,1.7747917000669986,0.71968,0.11399456423557777,-0.09411179140379096,,,,None,,,,,,,,,p13_high_01,001,2023-05-10_13h49.32.564,expectation_shapes_perceived_time,2022.2.4,119.9171611527082,
,,,,,,,,,,,,,21,0,21,0,testSingleStim,,,,,,green,1.1673510657256227,1.1666666666666667,0.0023598000407218933,0.997978400089778,1.279998105019331e-05,1e-05,0.03333639993797988,1.1666774000041187,1.2000063000014052,1.9999370999867097,2.0332895999308676,2.300028899917379,2.300028899917379,2.6000320999883115,2.6166028999723494,0.3165740000549704,3.6169060999527574,1.3168772000353783,1.000303199980408,1.00393,-0.0018248425364713685,-0.14781224545418087,,,,None,,,,,,,,,p13_high_01,001,2023-05-10_13h49.32.564,expectation_shapes_perceived_time,2022.2.4,119.9171611527082,
,,,,,,,,,,,,,22,0,22,0,testSingleStim,,,,,,green,0.602628930019731,0.6,0.002280800021253526,0.9978037000400946,1.279998105019331e-05,1e-05,0.03331820003222674,0.6000324999913573,0.63334489997942,2.000632300041616,2.0336615999694914,2.3002645999658853,2.3002645999658853,2.6002840000437573,2.6253550000255927,0.32509040005970746,3.9339400000171736,1.6336754000512883,1.3085849999915808,0.37149,0.13593941622022607,0.05807120692902862,,,,None,,,,,,,,,p13_high_01,001,2023-05-10_13h49.32.564,expectation_shapes_perceived_time,2022.2.4,119.9171611527082,
,,,,,,,,,,,,,23,0,23,0,testSingleStim,,,,,,red,1.1823073026870172,1.1833333333333333,0.002494900021702051,0.9977287000510842,2.289994154125452e-05,2e-05,0.033167599933221936,1.183248499990441,1.2165865999413654,2.000374299939722,2.0330706000095233,2.2998903999105096,2.2998903999105096,2.6001573000103235,2.6749524999177083,0.37506210000719875,4.783001699950546,2.4831113000400364,2.1080492000328377,1.35376,-0.13249512651637202,-0.0655502204870472,,,,None,,,,,,,,,p13_high_01,001,2023-05-10_13h49.32.564,expectation_shapes_perceived_time,2022.2.4,119.9171611527082,
,,,,,,,,,,,,,24,0,24,0,testSingleStim,,,,,,red,1.1316911803365415,1.1333333333333333,0.002389199915342033,0.9984494999516755,1.309998333454132e-05,1e-05,,1.1338886000448838,1.166783900000155,2.0002968000480905,,2.3001968000316992,2.3001968000316992,2.6000926999840885,2.6333957000169903,0.33319889998529106,4.774998500011861,2.474801699980162,2.141602799994871,0.77155,0.09721726169050846,-0.11135795430003696,,,,None,,,,,,,,,p13_high_01,001,2023-05-10_13h49.32.564,expectation_shapes_perceived_time,2022.2.4,119.9171611527082,
,,,,,,,,,,,,,25,0,25,0,testSingleStim,,,,,,red,1.5115084100639407,1.5083333333333333,0.003942299983464181,0.9974122000858188,1.3199984095990658e-05,1e-05,0.03303239995148033,1.5079424999421462,1.5415695999981835,1.9997974999714643,2.0331670999294147,2.300155199947767,2.300155199947767,2.59970069990959,2.974616299965419,0.6744611000176519,4.599402299965732,2.299247100017965,1.624786000000313,1.59366,-0.14147070612623883,0.042869910947345095,,,,None,,,,,,,,,p13_high_01,001,2023-05-10_13h49.32.564,expectation_shapes_perceived_time,2022.2.4,119.9171611527082,
,,,,,,,,,,,,,26,0,26,0,testSingleStim,,,,,,red,0.31086028514269115,0.30833333333333335,0.003343300078995526,0.9976507000392303,1.3599987141788006e-05,1e-05,0.032618600060231984,0.30832079995889217,0.34128030005376786,1.999997999984771,2.033353100065142,2.300019899965264,2.300019899965264,2.5993102999636903,2.5076301000081003,0.20761020004283637,4.833279400016181,2.5332595000509173,2.325649300008081,0.17812,0.0784700104954095,0.12527668342249584,,,,None,,,,,,,,,p13_high_01,001,2023-05-10_13h49.32.564,expectation_shapes_perceived_time,2022.2.4,119.9171611527082,
,,,,,,,,,,,,,27,0,27,0,testSingleStim,,,,,,green,0.2700302881242898,0.26666666666666666,0.002192000043578446,0.997530100052245,1.3299984857439995e-05,1e-05,0.033299700007773936,0.2667316000442952,0.30006419995334,1.9999644999625161,2.0333850999595597,2.2999003999866545,2.2999003999866545,2.600085800047964,2.8171695000492036,0.5172691000625491,6.025488200015388,3.725587800028734,3.208318699966185,0.16006,0.07123892087798933,0.12952531068725334,,,,None,,,,,,,,,p13_high_01,001,2023-05-10_13h49.32.564,expectation_shapes_perceived_time,2022.2.4,119.9171611527082,
,,,,,,,,,,,,,28,0,28,0,testSingleStim,,,,,,red,1.0222969126644756,1.025,0.0022873999550938606,0.9982547999825329,5.119992420077324e-05,5e-05,0.03329289995599538,1.0250647999346256,1.0582519000163302,1.9999035999644548,2.0333293000003323,2.299976299982518,2.299976299982518,2.600316899945028,2.9579682999756187,0.6579919999931008,4.79125320003368,2.4912769000511616,1.8332849000580609,0.70764,0.11747105719870585,-0.08973483536012253,,,,None,,,,,,,,,p13_high_01,001,2023-05-10_13h49.32.564,expectation_shapes_perceived_time,2022.2.4,119.9171611527082,
,,,,,,,,,,,,,29,0,29,0,testSingleStim,,,,,,green,1.2867100959411337,1.2833333333333332,0.002245799987576902,0.9981571999378502,1.610000617802143e-05,2e-05,0.03365950006991625,1.2834881000453606,1.316926500061527,1.9999849000014365,2.03324620006606,2.2999688000418246,2.2999688000418246,2.59996530006174,2.716420799959451,0.4164519999176264,4.749651000020094,2.4496821999782696,2.0332302000606433,1.63401,-0.13491623698765925,0.06041025536760862,,,,None,,,,,,,,,p13_high_01,001,2023-05-10_13h49.32.564,expectation_shapes_perceived_time,2022.2.4,119.9171611527082,
,,,,,,,,,,,,,30,0,30,0,testSingleStim,,,,,,red,0.858570550785162,0.8583333333333333,0.0034651000751182437,0.9973732000216842,1.2599979527294636e-05,1e-05,0.03389500000048429,0.8590110000222921,0.8918374000350013,2.0003840000135824,2.033985299989581,2.3003893999848515,2.3003893999848515,2.6001734000165015,2.425180200021714,0.12479080003686249,6.6585793000413105,4.358189900056459,4.2333991000195965,0.83371,0.07375867534851402,-0.1281071729737349,,,,None,,,,,,,,,p13_high_01,001,2023-05-10_13h49.32.564,expectation_shapes_perceived_time,2022.2.4,119.9171611527082,
,,,,,,,,,,,,,31,0,31,0,testSingleStim,,,,,,green,0.21721027573569648,0.21666666666666667,0.0023487000726163387,0.9978799000382423,1.3599987141788006e-05,1e-05,0.03375409997534007,0.21717870002612472,0.25046010001096874,2.0002964000450447,2.0334595000604168,2.3004082000115886,2.3004082000115886,2.600390200037509,2.6086369999684393,0.3082287999568507,4.0500629000598565,1.7496547000482678,1.4414259000914171,0.18496,0.08114459914109375,0.12356109414666547,,,,None,,,,,,,,,p13_high_01,001,2023-05-10_13h49.32.564,expectation_shapes_perceived_time,2022.2.4,119.9171611527082,
,,,,,,,,,,,,,32,0,32,0,testSingleStim,,,,,,green,0.5340281613433222,0.5333333333333333,0.002287900075316429,0.9979392000241205,1.4199991710484028e-05,1e-05,0.03323179995641112,0.5329021000070497,0.566261800006032,2.000234500039369,2.0334876000415534,2.300180000020191,2.300180000020191,2.599739299970679,2.674867899972014,0.37468789995182306,5.308192600030452,3.008012600010261,2.633324700058438,0.51168,0.14772407383305589,-0.005421066929653428,,,,None,,,,,,,,,p13_high_01,001,2023-05-10_13h49.32.564,expectation_shapes_perceived_time,2022.2.4,119.9171611527082,
,,,,,,,,,,,,,33,0,33,0,testSingleStim,,,,,,green,0.7608870548105343,0.7583333333333333,0.0023626000620424747,0.9979648999869823,1.3399985618889332e-05,1e-05,,0.7583541999338195,0.7916913999943063,1.9999180999584496,,2.2999873999506235,2.2999873999506235,2.5997422999935225,2.658149299910292,0.3581618999596685,5.391527600004338,3.091540200053714,2.7333783000940457,0.67449,0.1261627056294863,-0.0770374043224297,,,,None,,,,,,,,,p13_high_01,001,2023-05-10_13h49.32.564,expectation_shapes_perceived_time,2022.2.4,119.9171611527082,
,,,,,,,,,,,,,34,0,34,0,testSingleStim,,,,,,red,0.5577891659062753,0.5583333333333333,0.0022495000157505274,0.9978283999953419,1.479999627918005e-05,1e-05,0.033373699989169836,0.5587964999722317,0.5920968999853358,1.9999449000461027,2.0337698999792337,2.300052599981427,2.300052599981427,2.599960200022906,2.883112999959849,0.5830603999784216,4.8584234999725595,2.5583708999911323,1.9753105000127107,0.18069,0.0794796664204849,0.12463856779576041,,,,None,,,,,,,,,p13_high_01,001,2023-05-10_13h49.32.564,expectation_shapes_perceived_time,2022.2.4,119.9171611527082,
,,,,,,,,,,,,,35,0,35,0,testSingleStim,,,,,,green,1.1042342575304485,1.1,0.002938500023446977,0.9981243999209255,1.650000922381878e-05,2e-05,,1.0999534000875428,1.1333543000509962,1.9997242001118138,,2.300046300049871,2.300046300049871,2.6001888000173494,2.633445500046946,0.3333991999970749,4.550038600107655,2.2499923000577837,1.9165931000607088,1.09548,-0.04367737138892861,-0.14122350082420249,,,,None,,,,,,,,,p13_high_01,001,2023-05-10_13h49.32.564,expectation_shapes_perceived_time,2022.2.4,119.9171611527082,
,,,,,,,,,,,,,36,0,36,0,testSingleStim,,,,,,green,0.3538681110333995,0.35,0.0024274999741464853,0.9985284999711439,1.4599994756281376e-05,1e-05,,0.3499996999744326,0.38337649998720735,1.9999837999930605,,2.3003428999800235,2.3003428999800235,2.6003184999572113,2.6003184999572113,0.2999755999771878,4.17500409996137,1.8746611999813467,1.574685600004159,0.1853,0.08127494417279243,0.12347539595481927,,,,None,,,,,,,,,p13_high_01,001,2023-05-10_13h49.32.564,expectation_shapes_perceived_time,2022.2.4,119.9171611527082,
,,,,,,,,,,,,,37,0,37,0,testSingleStim,,,,,,red,1.3039222363566771,1.3,0.0022856000578030944,0.9975633000722155,1.4599994756281376e-05,1e-05,0.03351819992531091,1.2997179999947548,1.3330545999342576,2.0001481999643147,2.0335064999526367,2.300191199989058,2.300191199989058,2.600212399964221,2.6918305999133736,0.3916393999243155,5.791750799980946,3.491559599991888,3.0999202000675723,1.30463,-0.12084312220783477,-0.08513947246461087,,,,None,,,,,,,,,p13_high_01,001,2023-05-10_13h49.32.564,expectation_shapes_perceived_time,2022.2.4,119.9171611527082,
,,,,,,,,,,,,,38,0,38,0,testSingleStim,,,,,,red,0.5806028092758211,0.5833333333333334,0.002417100011371076,0.9975992999970913,3.879994619637728e-05,4e-05,0.03332719998434186,0.5831531999865547,0.616860399954021,2.000304999994114,2.0333448000019416,2.3001089999452233,2.3001089999452233,2.6001663999632,2.6251476999605075,0.3250387000152841,3.992086499929428,1.6919774999842048,1.3669387999689206,0.17493,0.07721000457777874,0.12605715033106735,,,,None,,,,,,,,,p13_high_01,001,2023-05-10_13h49.32.564,expectation_shapes_perceived_time,2022.2.4,119.9171611527082,
,,,,,,,,,,,,,39,0,39,0,testSingleStim,,,,,,red,1.4002663587320519,1.4,0.0022619999945163727,0.9974947000155225,1.8600025214254856e-05,2e-05,,1.4001672000158578,1.4331269999966025,1.9997745000291616,,2.299890900030732,2.299890900030732,2.6004321000073105,3.041563899954781,0.7416729999240488,5.975354900001548,3.675463999970816,2.9337910000467673,1.17112,-0.0756951777281251,-0.12697255618911307,,,,None,,,,,,,,,p13_high_01,001,2023-05-10_13h49.32.564,expectation_shapes_perceived_time,2022.2.4,119.9171611527082,
,,,,,,,,,0,0,0,0,0,-1,-1,0,fam,0.5406129999319091,0.5406129999319091,270.0,2.5403761999914423,2.5403761999914423,,,,,,,,,,,,,,,,,,,,,,,,,,,,,,,,,,,,p13_high_01,001,2023-05-10_13h49.32.564,expectation_shapes_perceived_time,2022.2.4,119.9171611527082,
,,,,,,,,,1,0,1,0,0,-1,-1,0,fam,0.4988136999309063,0.4988136999309063,270.0,2.4985247999429703,2.4985247999429703,,,,,,,,,,,,,,,,,,,,,,,,,,,,,,,,,,,,p13_high_01,001,2023-05-10_13h49.32.564,expectation_shapes_perceived_time,2022.2.4,119.9171611527082,
,,,,,,,,,2,0,2,0,0,-1,-1,0,fam,0.4986860000062734,0.4986860000062734,270.0,2.498402699944563,2.498402699944563,,,,,,,,,,,,,,,,,,,,,,,,,,,,,,,,,,,,p13_high_01,001,2023-05-10_13h49.32.564,expectation_shapes_perceived_time,2022.2.4,119.9171611527082,
,,,,,,,,,3,0,3,0,0,-1,-1,0,fam,0.4988668999867514,0.4988668999867514,270.0,2.4989166000159457,2.4989166000159457,,,,,,,,,,,,,,,,,,,,,,,,,,,,,,,,,,,,p13_high_01,001,2023-05-10_13h49.32.564,expectation_shapes_perceived_time,2022.2.4,119.9171611527082,
1,-500,0.5,none,59,green,red,no_Expectation,,,,,,0,0,0,0,train_doubleStim,,,,,,green,1.4747878900572886,1.475,2.299882899969816,0.999017900088802,1e-05,1e-05,0.0333,1.4746983000077307,1.5078979999525473,1.9996906999731436,2.0332410999108106,2.299882899969816,2.299882899969816,2.4995220999699086,3.0916513999691233,0.7917684999993071,5.457899499917403,3.1580165999475867,2.3662480999482796,1.51123,-0.14773152540695395,0.005214053837892493,,,,None,,-0.5,-0.5,0.9414578900572886,0.9416666666666667,training_double_stim.csv,0.9414796999190003,0.9746558999177068,p13_high_01,001,2023-05-10_13h49.32.564,expectation_shapes_perceived_time,2022.2.4,119.9171611527082,
1,500,0.5,none,33,green,red,no_Expectation,,,,,,0,1,1,7,train_doubleStim,,,,,,green,0.9811697666504833,0.9833333333333333,2.300167200039141,0.9980689999647439,1e-05,1e-05,0.03384,0.9833588000619784,1.0168139000888914,2.000148600083776,2.0334270000457764,2.300167200039141,2.300167200039141,2.5001691000070423,2.8501622000476345,0.5499950000084937,5.691897200071253,3.391730000032112,2.8417350000236183,0.82328,0.07791704215195985,-0.12562135367356791,,,,None,,0.5,0.5,1.5144997666504834,1.5166666666666666,training_double_stim.csv,1.5166546000400558,1.5499641000060365,p13_high_01,001,2023-05-10_13h49.32.564,expectation_shapes_perceived_time,2022.2.4,119.9171611527082,
1,500,0.5,none,98,red,green,no_Expectation,,,,,,0,2,2,5,train_doubleStim,,,,,,red,1.106711246079016,1.1083333333333334,2.2996450000209734,0.9978886999888346,1e-05,1e-05,0.03343,1.1085855000419542,1.1419228999875486,2.000320199993439,2.033177600009367,2.2996450000209734,2.2996450000209734,2.499641500064172,2.9835887000663206,0.6839437000453472,5.016391700017266,2.7167466999962926,2.0328029999509454,1.86574,-0.060517722010523675,0.13486806619488134,,,,None,,0.5,0.5,1.640041246079016,1.6416666666666666,training_double_stim.csv,1.6415025000460446,1.6749654000159353,p13_high_01,001,2023-05-10_13h49.32.564,expectation_shapes_perceived_time,2022.2.4,119.9171611527082,
1,500,0.5,none,25,green,red,no_Expectation,,,,,,0,3,3,6,train_doubleStim,,,,,,green,0.8352121616018306,0.8333333333333334,2.2997796999989077,0.9981204000068828,1e-05,1e-05,0.03294,0.8330736999632791,0.8663827000418678,1.9996156999841332,2.032858500024304,2.2997796999989077,2.2997796999989077,2.499625699943863,2.61632999998983,0.3165502999909222,4.607825899962336,2.308046199963428,1.9914958999725059,0.87969,0.054551745476032344,-0.13738958119889627,,,,None,,0.5,0.5,1.3685421616018307,1.3666666666666667,training_double_stim.csv,1.3659589999588206,1.3993053999729455,p13_high_01,001,2023-05-10_13h49.32.564,expectation_shapes_perceived_time,2022.2.4,119.9171611527082,
1,500,0.5,none,60,red,green,no_Expectation,,,,,,0,4,4,8,train_doubleStim,,,,,,red,0.6254387834703972,0.625,2.3002119000302628,0.9974989000475034,2e-05,2e-05,,0.624983899993822,0.6580640999600291,2.000144699937664,,2.3002119000302628,2.3002119000302628,2.5000316000077873,2.641412999946624,0.3412010999163613,4.792244000011124,2.492032099980861,2.1508310000644997,0.88813,0.05088893039515817,-0.13878799198679498,,,,None,,0.5,0.5,1.158768783470397,1.1583333333333332,training_double_stim.csv,1.15836749994196,1.191724400036037,p13_high_01,001,2023-05-10_13h49.32.564,expectation_shapes_perceived_time,2022.2.4,119.9171611527082,
1,500,0.5,none,88,red,green,no_Expectation,,,,,,0,5,5,9,train_doubleStim,,,,,,red,0.38585720822678615,0.3833333333333333,2.3006934999721125,0.9967470000265166,1e-05,1e-05,0.03328,0.3835683000506833,0.41703120002057403,2.000319299986586,2.0334400000283495,2.3006934999721125,2.3006934999721125,2.500777199980803,2.667484699981287,0.36679120000917464,4.633314799983054,2.332621300010942,1.9658301000017673,0.28594,0.11563939636759264,0.0920832230334534,,,,None,,0.5,0.5,0.9191872082267862,0.9166666666666666,training_double_stim.csv,0.917004800052382,0.9504099000478163,p13_high_01,001,2023-05-10_13h49.32.564,expectation_shapes_perceived_time,2022.2.4,119.9171611527082,
1,-500,0.5,none,77,green,red,no_Expectation,,,,,,0,6,6,1,train_doubleStim,,,,,,green,0.9127376471103628,0.9083333333333333,2.3002917000558227,0.9981304999673739,3e-05,3e-05,0.03346,0.9087513000704348,0.9416439000051469,2.0000987000530586,2.033564700046554,2.3002917000558227,2.3002917000558227,2.5001537000061944,2.7500014000106603,0.44970969995483756,5.299839699990116,2.9995479999342933,2.5498382999794558,0.85503,0.06502274999135889,-0.1327547812323577,,,,None,,-0.5,-0.5,0.3794076471103628,0.375,training_double_stim.csv,0.3751319000730291,0.4087511000689119,p13_high_01,001,2023-05-10_13h49.32.564,expectation_shapes_perceived_time,2022.2.4,119.9171611527082,
1,-500,0.5,none,68,red,green,no_Expectation,,,,,,0,7,7,3,train_doubleStim,,,,,,red,1.7420826531877696,1.7416666666666667,2.3003756999969482,0.9986094000050798,1e-05,1e-05,0.03377,1.7415461000055075,1.7751119000604376,1.9996497000101954,2.033015700057149,2.3003756999969482,2.3003756999969482,2.5003155999584123,2.749684300040826,0.44930860004387796,4.225032999995165,1.9246572999982163,1.4753486999543384,1.86873,-0.05925044671251693,0.13542959248575298,,,,None,,-0.5,-0.5,1.2087526531877697,1.2083333333333333,training_double_stim.csv,1.2085559000261128,1.2416535000083968,p13_high_01,001,2023-05-10_13h49.32.564,expectation_shapes_perceived_time,2022.2.4,119.9171611527082,
1,-500,0.5,none,46,red,green,no_Expectation,,,,,,0,8,8,4,train_doubleStim,,,,,,red,1.5239647348391,1.525,2.3001270999666303,0.9974974000360817,1e-05,1e-05,,1.5245867000194266,1.5581940000411123,1.9998265999602154,,2.3001270999666303,2.3001270999666303,2.500054399948567,3.083055099938065,0.7829279999714345,4.724575100000948,2.4244480000343174,1.641520000062883,1.28007,-0.11391948872104965,-0.09420265413471411,,,,None,,-0.5,-0.5,0.9906347348391001,0.9916666666666667,training_double_stim.csv,0.991286400007084,1.0249018999747932,p13_high_01,001,2023-05-10_13h49.32.564,expectation_shapes_perceived_time,2022.2.4,119.9171611527082,
1,-500,0.5,none,23,green,red,no_Expectation,,,,,,0,9,9,2,train_doubleStim,,,,,,green,1.0325860971773755,1.0333333333333332,2.299694800050929,0.9979905999498442,1e-05,1e-05,0.03338,1.0333638000302017,1.0665548000251874,1.9999418000224978,2.0331498000305146,2.299694800050929,2.299694800050929,2.50016549997963,3.333351799985394,1.0336569999344647,7.566677700029686,5.266982899978757,4.233325900044292,0.982,0.008353996115815181,-0.14758726471273484,,,,None,,-0.5,-0.5,0.49925609717737546,0.5,training_double_stim.csv,0.5002023000270128,0.5330774000613019,p13_high_01,001,2023-05-10_13h49.32.564,expectation_shapes_perceived_time,2022.2.4,119.9171611527082,
1,-500,0.5,none,23,green,red,no_Expectation,,,,,,1,0,10,2,train_doubleStim,,,,,,green,0.7055424894892037,0.7083333333333334,2.299472099984996,0.9969589000102133,1e-05,1e-05,0.03337,0.7080709000583738,0.7416207999922335,1.9999315000604838,2.0331086000660434,2.299472099984996,2.299472099984996,2.499546500039287,3.224788299994543,0.9253162000095472,5.799582100007683,3.500110000022687,2.57479380001314,0.33891,0.1292944081416841,0.07165714186165627,,,,None,,-0.5,-0.5,0.17221248948920373,0.175,training_double_stim.csv,0.17503440007567406,0.20830930001102388,p13_high_01,001,2023-05-10_13h49.32.564,expectation_shapes_perceived_time,2022.2.4,119.9171611527082,
1,-500,0.5,none,68,red,green,no_Expectation,,,,,,1,1,11,3,train_doubleStim,,,,,,red,1.789883815803401,1.7916666666666667,2.2999097999418154,0.9980173000367358,1e-05,1e-05,0.03331,1.7912075999192894,1.8245516999159008,1.9997963999630883,2.0332106999121606,2.2999097999418154,2.2999097999418154,2.499879499897361,2.96633679990191,0.6664269999600947,4.975097599904984,2.675187799963169,2.008760800003074,1.8496,-0.06727611406350674,0.13162717968946974,,,,None,,-0.5,-0.5,1.256553815803401,1.2583333333333333,training_double_stim.csv,1.2584265999030322,1.2916825999272987,p13_high_01,001,2023-05-10_13h49.32.564,expectation_shapes_perceived_time,2022.2.4,119.9171611527082,
1,500,0.5,none,88,red,green,no_Expectation,,,,,,1,2,12,9,train_doubleStim,,,,,,red,0.20067141686076267,0.2,2.3003370000515133,0.9974991999333724,1e-05,1e-05,0.03301,0.19970640004612505,0.23308310005813837,2.0002527000615373,2.0333776000188664,2.3003370000515133,2.3003370000515133,2.5000788000179455,3.766768000088632,1.4664310000371188,8.000122600002214,5.699785599950701,4.233354599913582,0.61074,0.13896809544158312,-0.05039502362167299,,,,None,,0.5,0.5,0.7340014168607627,0.7333333333333333,training_double_stim.csv,0.733033400028944,0.766561400028877,p13_high_01,001,2023-05-10_13h49.32.564,expectation_shapes_perceived_time,2022.2.4,119.9171611527082,
1,500,0.5,none,60,red,green,no_Expectation,,,,,,1,3,13,8,train_doubleStim,,,,,,red,0.49426095072006365,0.49166666666666664,2.299989000079222,0.997987899929285,1e-05,1e-05,0.03341,0.49169689998961985,0.5249348999932408,1.9995703999884427,2.032914400100708,2.299989000079222,2.299989000079222,2.4998739000875503,2.6912856000708416,0.3912965999916196,4.2583479000022635,1.9583588999230415,1.5670622999314219,0.45686,0.14646799274401454,0.019972908101456528,,,,None,,0.5,0.5,1.0275909507200636,1.025,training_double_stim.csv,1.0249518000055104,1.0586421000771224,p13_high_01,001,2023-05-10_13h49.32.564,expectation_shapes_perceived_time,2022.2.4,119.9171611527082,
1,-500,0.5,none,77,green,red,no_Expectation,,,,,,1,4,14,1,train_doubleStim,,,,,,green,1.1354301982306272,1.1333333333333333,2.299807299976237,0.9979544000234455,1e-05,1e-05,0.03322,1.133401400060393,1.1667645999696106,1.9999806999694556,2.033282699994743,2.299807299976237,2.299807299976237,2.500042699975893,2.750125000020489,0.450317700044252,4.391819400014356,2.0920121000381187,1.6416943999938667,1.18114,-0.07965297139041806,-0.1245278848498085,,,,None,,-0.5,-0.5,0.6021001982306271,0.6,training_double_stim.csv,0.6000161999836564,0.6332918000407517,p13_high_01,001,2023-05-10_13h49.32.564,expectation_shapes_perceived_time,2022.2.4,119.9171611527082,
1,-500,0.5,none,46,red,green,no_Expectation,,,,,,1,5,15,4,train_doubleStim,,,,,,red,1.7142886710603842,1.7166666666666666,2.3000750000355765,0.997559699928388,1e-05,1e-05,0.03326,1.716722600045614,1.7499800000805408,2.0003185000969097,2.033761200029403,2.3000750000355765,2.3000750000355765,2.4998489000136033,2.800124100060202,0.5000491000246257,3.9917212000582367,1.6916462000226602,1.1915970999980345,1.86211,-0.06205298419310097,0.13416861447156964,,,,None,,-0.5,-0.5,1.180958671060384,1.1833333333333333,training_double_stim.csv,1.1828858000226319,1.2162261001067236,p13_high_01,001,2023-05-10_13h49.32.564,expectation_shapes_perceived_time,2022.2.4,119.9171611527082,
1,500,0.5,none,25,green,red,no_Expectation,,,,,,1,6,16,6,train_doubleStim,,,,,,green,0.30787637268244256,0.30833333333333335,2.3004495000932366,0.9973324999446049,1e-05,1e-05,,0.30902960000094026,0.3423765000188723,2.000279500032775,,2.3004495000932366,2.3004495000932366,2.5000879000872374,2.7006982000311837,0.4002486999379471,4.009084600023925,1.7086350999306887,1.3083863999927416,1.64937,-0.1318438886656715,0.06685042242203063,,,,None,,0.5,0.5,0.8412063726824425,0.8416666666666667,training_double_stim.csv,0.8420333000831306,0.875366699998267,p13_high_01,001,2023-05-10_13h49.32.564,expectation_shapes_perceived_time,2022.2.4,119.9171611527082,
1,500,0.5,none,33,green,red,no_Expectation,,,,,,1,7,17,7,train_doubleStim,,,,,,green,0.4055144175523662,0.4083333333333333,2.3000886000227183,0.9971127000171691,1e-05,1e-05,0.03335,0.40866910002660006,0.44170039996970445,2.000023699947633,2.0334641999797896,2.3000886000227183,2.3000886000227183,2.500017700018361,2.542035699938424,0.24194709991570562,4.150523099931888,1.85043449990917,1.6084873999934644,0.79059,0.09038631547491094,-0.1169705259087083,,,,None,,0.5,0.5,0.9388444175523663,0.9416666666666667,training_double_stim.csv,0.9418418999994174,0.9754454999929294,p13_high_01,001,2023-05-10_13h49.32.564,expectation_shapes_perceived_time,2022.2.4,119.9171611527082,
1,500,0.5,none,98,red,green,no_Expectation,,,,,,1,8,18,5,train_doubleStim,,,,,,red,1.2126688714680534,1.2083333333333333,2.3001138999825343,0.9978347999276593,1e-05,1e-05,0.03339,1.207700000028126,1.2411051000235602,1.9995938999345526,2.0329462999943644,2.3001138999825343,2.3001138999825343,2.4999956999672577,2.6079764999449253,0.30786259996239096,4.383151900023222,2.0830380000406876,1.7751754000782967,1.65516,-0.1306063353951681,0.06923709346249876,,,,None,,0.5,0.5,1.7459988714680532,1.7416666666666667,training_double_stim.csv,1.741393500007689,1.7747956999810413,p13_high_01,001,2023-05-10_13h49.32.564,expectation_shapes_perceived_time,2022.2.4,119.9171611527082,
1,-500,0.5,none,59,green,red,no_Expectation,,,,,,1,9,19,0,train_doubleStim,,,,,,green,1.6533742869522212,1.65,2.3000081999925897,0.9983766000950709,1e-05,1e-05,,1.6501841999124736,1.6834031000034884,1.999989299918525,,2.3000081999925897,2.3000081999925897,2.500321300001815,2.9169974999967963,0.6169893000042066,5.6997503999155015,3.399742199922912,2.7827528999187052,1.79276,-0.08958743497978619,0.11758350841096939,,,,None,,-0.5,-0.5,1.1200442869522211,1.1166666666666667,training_double_stim.csv,1.1166522999992594,1.1500674999551848,p13_high_01,001,2023-05-10_13h49.32.564,expectation_shapes_perceived_time,2022.2.4,119.9171611527082,
,,,,,,,,,0,0,0,0,0,-1,-1,0,fam,0.5408909999532625,0.5408909999532625,270.0,2.5405167000135407,2.5405167000135407,,,,,,,,,,,,,,,,,,,,,,,,,,,,,,,,,,,,p13_high_01,001,2023-05-10_13h49.32.564,expectation_shapes_perceived_time,2022.2.4,119.9171611527082,
,,,,,,,,,1,0,1,0,0,-1,-1,0,fam,0.49874160008039325,0.49874160008039325,270.0,2.4986817000899464,2.4986817000899464,,,,,,,,,,,,,,,,,,,,,,,,,,,,,,,,,,,,p13_high_01,001,2023-05-10_13h49.32.564,expectation_shapes_perceived_time,2022.2.4,119.9171611527082,
,,,,,,,,,2,0,2,0,0,-1,-1,0,fam,0.49812120001297444,0.49812120001297444,270.0,2.4987225000513718,2.4987225000513718,,,,,,,,,,,,,,,,,,,,,,,,,,,,,,,,,,,,p13_high_01,001,2023-05-10_13h49.32.564,expectation_shapes_perceived_time,2022.2.4,119.9171611527082,
,,,,,,,,,3,0,3,0,0,-1,-1,0,fam,0.4988616000628099,0.4988616000628099,270.0,2.4989107000874355,2.4989107000874355,,,,,,,,,,,,,,,,,,,,,,,,,,,,,,,,,,,,p13_high_01,001,2023-05-10_13h49.32.564,expectation_shapes_perceived_time,2022.2.4,119.9171611527082,
,100,0.8,met,,green,red,,694.4462546804713,,,,,0,0,0,354,trial,,,,,,green,0.6944462546804713,0.6916666666666667,2.3002312999451533,0.998099600081332,3e-05,3e-05,0.03359,0.6920735999010503,0.7251620999304578,2.0002272999845445,2.0334813999943435,2.3002312999451533,2.3002312999451533,2.500382400001399,2.8172419999027625,0.5170106999576092,3.8249699999578297,1.5247387000126764,1.0077280000550672,1.09277,-0.04247677288753861,-0.14158924295846204,,,,None,,0.1,0.1,0.8277762546804713,0.825,trial_list_0.8_green.csv,0.8251862999750301,0.8583970998879522,p13_high_01,001,2023-05-10_13h49.32.564,expectation_shapes_perceived_time,2022.2.4,119.9171611527082,
,33,0.8,met,,green,red,,535.679438799277,,,,,0,1,1,67,trial,,,,,,green,0.535679438799277,0.5333333333333333,2.300154200056568,0.997578899958171,1e-05,1e-05,0.03325,0.5335931000299752,0.5667901000706479,1.999900700058788,2.0334198999917135,2.300154200056568,2.300154200056568,2.499925100011751,2.7331956999842077,0.43304149992763996,4.166472200071439,1.8663180000148714,1.4332765000872314,0.30481,0.12089101498047831,0.08507145498626252,,,,None,,0.033,0.03333333333333333,0.602009438799277,0.6,trial_list_0.8_green.csv,0.5997669000644237,0.6329183999914676,p13_high_01,001,2023-05-10_13h49.32.564,expectation_shapes_perceived_time,2022.2.4,119.9171611527082,
,100,0.8,met,,green,red,,702.4768684119671,,,,,0,2,2,251,trial,,,,,,green,0.7024768684119671,0.7,2.3001036000205204,0.9975525999907404,2e-05,2e-05,,0.6999777000164613,0.7333338999887928,2.000411399989389,,2.3001036000205204,2.3001036000205204,2.499977400060743,2.8000669999746606,0.4999633999541402,5.683362700045109,3.3832591000245884,2.883295700070448,0.80011,0.08684814275615901,-0.11962102681508695,,,,None,,0.1,0.1,0.8358068684119672,0.8333333333333334,trial_list_0.8_green.csv,0.8338487000437453,0.8671695999801159,p13_high_01,001,2023-05-10_13h49.32.564,expectation_shapes_perceived_time,2022.2.4,119.9171611527082,
,-300,0.8,met,,green,red,,1738.5213737689642,,,,,0,3,3,339,trial,,,,,,green,1.7385213737689642,1.7333333333333334,2.300287500023842,0.9977969999890774,1e-05,1e-05,0.0335,1.7331066000042483,1.7664597999537364,1.9999693999998271,2.0333715999731794,2.300287500023842,2.300287500023842,2.5000456999987364,2.749959799926728,0.44967229990288615,3.608774699969217,1.3084871999453753,0.8588149000424892,1.84785,-0.06799953518410289,0.13125491675071024,,,,None,,-0.3,-0.3,1.4051913737689643,1.4083333333333332,trial_list_0.8_green.csv,1.408298800000921,1.4418129000114277,p13_high_01,001,2023-05-10_13h49.32.564,expectation_shapes_perceived_time,2022.2.4,119.9171611527082,
,-233,0.8,met,,green,red,,1052.319940456317,,,,,0,4,4,108,trial,,,,,,green,1.052319940456317,1.05,2.2994936000322923,0.9987931000068784,1e-05,1e-05,0.03279,1.049223699956201,1.0826523000141606,2.007315200055018,,2.2994936000322923,2.2994936000322923,2.4992275000549853,2.6827768000075594,0.38328319997526705,4.307746600010432,2.00825299997814,1.624969800002873,1.13345,-0.06017295502300881,-0.1350222405394344,,,,None,,-0.233,-0.23333333333333334,0.785989940456317,0.7833333333333333,trial_list_0.8_green.csv,0.7827851000474766,0.8160181000130251,p13_high_01,001,2023-05-10_13h49.32.564,expectation_shapes_perceived_time,2022.2.4,119.9171611527082,
,-33,0.8,met,,green,red,,1154.773660822436,,,,,0,5,5,325,trial,,,,,,green,1.1547736608224362,1.15,2.2997975000180304,0.9980871999869123,1e-05,1e-05,,1.1496550999581814,1.1828468999592587,1.9999142000451684,,2.2997975000180304,2.2997975000180304,2.499699500040151,2.7830374999903142,0.48323999997228384,4.725179600063711,2.425382100045681,1.9421421000733972,0.85638,0.064457829973449,-0.13302998951967132,,,,None,,-0.033,-0.03333333333333333,1.0884436608224362,1.0916666666666666,trial_list_0.8_green.csv,1.0912748000118881,1.1246068000327796,p13_high_01,001,2023-05-10_13h49.32.564,expectation_shapes_perceived_time,2022.2.4,119.9171611527082,
,100,0.8,met,,green,red,,1189.0737961831212,,,,,0,6,6,245,trial,,,,,,green,1.1890737961831213,1.1916666666666667,2.2996455000247806,0.9980309999082237,1e-05,1e-05,0.03298,1.1911311000585556,1.2248918000841513,1.999492400093004,2.0333043000428006,2.2996455000247806,2.2996455000247806,2.4996738000772893,2.8164045000448823,0.5167590000201017,3.5494840000756085,1.2498385000508279,0.7330795000307262,1.72509,-0.11238008054169006,0.09603388700835334,,,,None,,0.1,0.1,1.3224037961831212,1.325,trial_list_0.8_green.csv,1.324677300057374,1.3579110000282526,p13_high_01,001,2023-05-10_13h49.32.564,expectation_shapes_perceived_time,2022.2.4,119.9171611527082,
,300,0.1999999999999999,unmet,,red,green,,1542.4966474335135,,,,,0,7,7,184,trial,,,,,,red,1.5424966474335136,1.5416666666666667,2.2996420999988914,0.9978870999766514,1e-05,1e-05,0.03346,1.541260699974373,1.5746232999954373,1.999955500010401,2.033230199944228,2.2996420999988914,2.2996420999988914,2.5002523999428377,3.116985799977556,0.8173436999786645,4.9835569999413565,2.683914899942465,1.8665711999638006,1.69788,-0.12016763226083112,0.0860902440077596,,,,None,,0.3,0.3,1.8758266474335135,1.875,trial_list_0.8_green.csv,1.8750119999749586,1.9083291999995708,p13_high_01,001,2023-05-10_13h49.32.564,expectation_shapes_perceived_time,2022.2.4,119.9171611527082,
,33,0.8,met,,green,red,,916.5134281061185,,,,,0,8,8,158,trial,,,,,,green,0.9165134281061185,0.9166666666666666,2.3001067000441253,0.997737199999392,1e-05,1e-05,0.03305,0.9164279999677092,0.9497077000560239,2.000151599990204,2.0333222000626847,2.3001067000441253,2.3001067000441253,2.5001311000669375,2.6077390999998897,0.3076323999557644,4.208471699967049,1.9083649999229237,1.6007325999671593,0.92487,0.03456681375089339,-0.14372517296424092,,,,None,,0.033,0.03333333333333333,0.9828434281061185,0.9833333333333333,trial_list_0.8_green.csv,0.9832914000144228,1.016667200019583,p13_high_01,001,2023-05-10_13h49.32.564,expectation_shapes_perceived_time,2022.2.4,119.9171611527082,
,33,0.8,met,,green,red,,1291.4816746022473,,,,,0,9,9,92,trial,,,,,,green,1.2914816746022473,1.2916666666666667,2.300023899995722,0.9975941999582574,1e-05,1e-05,0.0332,1.2912686000345275,1.3253018000395969,1.9998398000607267,2.033554600086063,2.300023899995722,2.300023899995722,2.500186900026165,2.933161700027995,0.6331378000322729,4.8416125000221655,2.5415886000264436,1.9084507999941707,1.22114,-0.094634304676012,-0.11356116561121439,,,,None,,0.033,0.03333333333333333,1.3578116746022473,1.3583333333333334,trial_list_0.8_green.csv,1.3585427000652999,1.3919498000759631,p13_high_01,001,2023-05-10_13h49.32.564,expectation_shapes_perceived_time,2022.2.4,119.9171611527082,
,-233,0.8,met,,green,red,,1381.0324776298664,,,,,0,10,10,384,trial,,,,,,green,1.3810324776298664,1.3833333333333333,2.3003478000173345,0.9979992000153288,3e-05,3e-05,0.03337,1.3833821000298485,1.4165833999868482,2.0000164000084624,2.0337224999675527,2.3003478000173345,2.3003478000173345,2.500323500018567,2.7497946000657976,0.44944680004846305,4.07537490001414,1.7750270999968052,1.3255802999483421,1.0788,-0.036222914476091564,-0.1433167485793188,,,,None,,-0.233,-0.23333333333333334,1.1147024776298664,1.1166666666666667,trial_list_0.8_green.csv,1.116579300025478,1.1502373999683186,p13_high_01,001,2023-05-10_13h49.32.564,expectation_shapes_perceived_time,2022.2.4,119.9171611527082,
,-233,0.8,met,,green,red,,822.4256095933736,,,,,0,11,11,418,trial,,,,,,green,0.8224256095933735,0.825,2.3002413000212982,0.9971671999664977,2e-05,2e-05,0.03371,0.8252545000286773,0.8585621999809518,2.0000960999168456,2.0334762999555096,2.3002413000212982,2.3002413000212982,2.500477100024,2.3002413000212982,0.0,4.633499199990183,2.333257899968885,2.333257899968885,0.83024,0.07515047530230788,-0.12729570306309296,,,,None,,-0.233,-0.23333333333333334,0.5560956095933736,0.5583333333333333,trial_list_0.8_green.csv,0.5584702999331057,0.5921077999519184,p13_high_01,001,2023-05-10_13h49.32.564,expectation_shapes_perceived_time,2022.2.4,119.9171611527082,
,167,0.1999999999999999,unmet,,red,green,,1280.749454615504,,,,,0,12,12,120,trial,,,,,,red,1.280749454615504,1.2833333333333332,2.300192499998957,0.9975450999336317,1e-05,1e-05,0.03367,1.2837504000635818,1.317028500023298,2.000255799968727,2.033552100067027,2.300192499998957,2.300192499998957,2.500308300019242,2.9171954999910668,0.6170029999921098,5.474940999993123,3.174748499994166,2.5577455000020564,1.37888,-0.1372506829217666,-0.05490027316870664,,,,None,,0.167,0.16666666666666666,1.481079454615504,1.4833333333333334,trial_list_0.8_green.csv,1.4837299999780953,1.5166366000194103,p13_high_01,001,2023-05-10_13h49.32.564,expectation_shapes_perceived_time,2022.2.4,119.9171611527082,
,-100,0.8,met,,green,red,,1505.354971291957,,,,,0,13,13,201,trial,,,,,,green,1.5053549712919572,1.5083333333333333,2.2995200000004843,0.9977801999775693,2e-05,2e-05,,1.5080328000476584,1.5413377999793738,1.9998581999680027,,2.2995200000004843,2.2995200000004843,2.4999528999906033,2.9246796999359503,0.625159699935466,6.166541300015524,3.8670213000150397,3.2418616000795737,1.63345,-0.1350222405394344,0.06017295502300881,,,,None,,-0.1,-0.1,1.3720249712919572,1.375,trial_list_0.8_green.csv,1.3746821000240743,1.408136900048703,p13_high_01,001,2023-05-10_13h49.32.564,expectation_shapes_perceived_time,2022.2.4,119.9171611527082,
,300,0.8,met,,green,red,,1351.7427879320703,,,,,0,14,14,34,trial,,,,,,green,1.3517427879320703,1.35,2.300694900099188,0.9971259000012651,1e-05,1e-05,0.0334,1.3503571000183001,1.3835776000050828,2.000537100015208,2.0337865001056343,2.300694900099188,2.300694900099188,2.5002588001079857,2.7085817001061514,0.4078868000069633,5.775299800094217,3.474604899995029,3.0667180999880657,1.5,-0.14782350948509485,0.0,,,,None,,0.3,0.3,1.6850727879320702,1.6833333333333333,trial_list_0.8_green.csv,1.6838146999944001,1.7173786000348628,p13_high_01,001,2023-05-10_13h49.32.564,expectation_shapes_perceived_time,2022.2.4,119.9171611527082,
,-167,0.8,met,,green,red,,1341.339157677782,,,,,0,15,15,480,trial,,,,,,green,1.341339157677782,1.3416666666666666,2.2999807000160217,0.997990500065498,1e-05,1e-05,0.03293,1.3412859999807552,1.374269700027071,1.9997879000147805,2.033077299944125,2.2999807000160217,2.2999807000160217,2.5000848999479786,3.107701599947177,0.8077208999311551,5.02504089998547,2.725060199969448,1.917339300038293,1.09983,-0.04560424715653331,-0.14061309539931105,,,,None,,-0.167,-0.16666666666666666,1.141009157677782,1.1416666666666666,trial_list_0.8_green.csv,1.141287099919282,1.1746557999867946,p13_high_01,001,2023-05-10_13h49.32.564,expectation_shapes_perceived_time,2022.2.4,119.9171611527082,
,-233,0.8,met,,green,red,,403.3398531612008,,,,,0,16,16,307,trial,,,,,,green,0.4033398531612008,0.4,2.299472299986519,0.9975617000600323,1e-05,1e-05,0.03282,0.399887099978514,0.43315749999601394,1.9998292999807745,,2.299472299986519,2.299472299986519,2.4995287999045104,2.774708699900657,0.475236399914138,4.016667699906975,1.7171953999204561,1.241959000006318,0.27597,0.1126971840211747,0.09566156318076456,,,,None,,-0.233,-0.23333333333333334,0.1370098531612008,0.13333333333333333,trial_list_0.8_green.csv,0.13321659993380308,0.16666229988913983,p13_high_01,001,2023-05-10_13h49.32.564,expectation_shapes_perceived_time,2022.2.4,119.9171611527082,
,-300,0.1999999999999999,unmet,,red,green,,921.1780954602332,,,,,0,17,17,294,trial,,,,,,red,0.9211780954602332,0.9166666666666666,2.299611399997957,0.9978125999914482,1e-05,1e-05,0.03361,0.916797099984251,0.949790499988012,2.0003257000353187,2.0336868000449613,2.299611399997957,2.299611399997957,2.4995600000256673,2.892183299991302,0.5925718999933451,4.408348500030115,2.108737100032158,1.516165200038813,1.10705,-0.04878302191429856,-0.13954213245252844,,,,None,,-0.3,-0.3,0.5878480954602331,0.5833333333333334,trial_list_0.8_green.csv,0.5835439000511542,0.6169086000882089,p13_high_01,001,2023-05-10_13h49.32.564,expectation_shapes_perceived_time,2022.2.4,119.9171611527082,
,100,0.8,met,,green,red,,1592.3579782781503,,,,,0,18,18,61,trial,,,,,,green,1.5923579782781503,1.5916666666666666,2.3002657999750227,0.9972143000923097,1e-05,1e-05,0.03377,1.5922390999039635,1.6253569999244064,2.000028399983421,2.033404999994673,2.3002657999750227,2.3002657999750227,2.500404099933803,2.7835824999492615,0.4833166999742389,4.3755890999455005,2.075323299970478,1.592006599996239,1.63801,-0.13414494295203955,0.06210414025557385,,,,None,,0.1,0.1,1.7256879782781502,1.7249999999999999,trial_list_0.8_green.csv,1.7256009998964146,1.758833699976094,p13_high_01,001,2023-05-10_13h49.32.564,expectation_shapes_perceived_time,2022.2.4,119.9171611527082,
,-100,0.8,met,,green,red,,1432.9508824821614,,,,,0,19,19,248,trial,,,,,,green,1.4329508824821615,1.4333333333333333,2.3000141999218613,0.997389700030908,1e-05,1e-05,0.03336,1.4329004999017343,1.4662406999850646,1.9999146999325603,2.033243399928324,2.3000141999218613,2.3000141999218613,2.499920399975963,2.9331081999698654,0.6330940000480041,4.341671200003475,2.0416570000816137,1.4085630000336096,1.76446,-0.09967286372791628,0.10916551741628926,,,,None,,-0.1,-0.1,1.2996208824821616,1.3,trial_list_0.8_green.csv,1.2998598999110982,1.333388099912554,p13_high_01,001,2023-05-10_13h49.32.564,expectation_shapes_perceived_time,2022.2.4,119.9171611527082,
,-167,0.8,met,,green,red,,736.9957603061403,,,,,0,20,20,317,trial,,,,,,green,0.7369957603061402,0.7333333333333333,2.2993362999986857,0.9983095000497997,1e-05,1e-05,,0.7328416999662295,0.7666696000378579,1.9994797999970615,,2.2993362999986857,2.2993362999986857,2.4994469999801368,2.5829454000340775,0.28360910003539175,4.558207400026731,2.2588711000280455,1.9752619999926537,0.70483,0.11825880758807587,-0.0886941056910569,,,,None,,-0.167,-0.16666666666666666,0.5366657603061402,0.5333333333333333,trial_list_0.8_green.csv,0.5331310000037774,0.5663700000150129,p13_high_01,001,2023-05-10_13h49.32.564,expectation_shapes_perceived_time,2022.2.4,119.9171611527082,
,-167,0.8,met,,green,red,,1808.6028053574264,,,,,0,21,21,448,trial,,,,,,green,1.8086028053574263,1.8083333333333333,2.3000492000719532,0.9978139000013471,1e-05,1e-05,0.03314,1.8081824000691995,1.8413400000426918,1.999833200010471,2.033162200008519,2.3000492000719532,2.3000492000719532,2.5000539000611752,2.8415186000056565,0.5414693999337032,4.799833600060083,2.4997843999881297,1.9583150000544265,1.82579,-0.0769229451562516,0.12623252538461802,,,,None,,-0.167,-0.16666666666666666,1.6082728053574264,1.6083333333333334,trial_list_0.8_green.csv,1.6080539000686258,1.6413670000620186,p13_high_01,001,2023-05-10_13h49.32.564,expectation_shapes_perceived_time,2022.2.4,119.9171611527082,
,33,0.8,met,,green,red,,270.61609034979045,,,,,0,22,22,474,trial,,,,,,green,0.27061609034979045,0.26666666666666666,2.3006099000340328,0.9975988999940455,1e-05,1e-05,0.03344,0.2670619999989867,0.3009318000404164,2.000027000089176,2.0338319999864325,2.3006099000340328,2.3006099000340328,2.500571000040509,2.6171304000308737,0.31652049999684095,4.150052300072275,1.8494424000382423,1.5329219000414014,0.88898,0.050517658927662815,-0.13892356205107273,,,,None,,0.033,0.03333333333333333,0.33694609034979045,0.3333333333333333,trial_list_0.8_green.csv,0.33413109998218715,0.3674534000456333,p13_high_01,001,2023-05-10_13h49.32.564,expectation_shapes_perceived_time,2022.2.4,119.9171611527082,
,33,0.8,met,,green,red,,348.3256701064646,,,,,0,23,23,117,trial,,,,,,green,0.3483256701064646,0.35,2.300058399909176,0.9978747999994084,4e-05,4e-05,0.03352,0.3498913999646902,0.3835265999659896,1.9999249000102282,2.03347909997683,2.300058399909176,2.300058399909176,2.5000591999851167,2.7004112999420613,0.4003529000328854,3.741810099920258,1.441751700011082,1.0413987999781966,0.92644,0.03385739812143824,-0.14389394201611252,,,,None,,0.033,0.03333333333333333,0.4146556701064646,0.4166666666666667,trial_list_0.8_green.csv,0.4166857999516651,0.45018229994457215,p13_high_01,001,2023-05-10_13h49.32.564,expectation_shapes_perceived_time,2022.2.4,119.9171611527082,
,-300,0.1999999999999999,unmet,,red,green,,1426.116648077943,,,,,0,24,24,45,trial,,,,,,red,1.426116648077943,1.425,2.300660799955949,0.9982220999663696,1e-05,1e-05,,1.42531640001107,1.4585940999677405,2.000546299968846,,2.300660799955949,2.300660799955949,2.500660700025037,2.875245500006713,0.5745847000507638,5.733558799955063,3.4328979999991134,2.8583132999483496,1.62888,-0.13587124406305215,0.05823053316987949,,,,None,,-0.3,-0.3,1.0927866480779431,1.0916666666666666,trial_list_0.8_green.csv,1.0923140000086278,1.1254796999273822,p13_high_01,001,2023-05-10_13h49.32.564,expectation_shapes_perceived_time,2022.2.4,119.9171611527082,
,-100,0.8,met,,green,red,,791.4526338687596,0,0,0,0,0,25,25,430,fam,0.5325439000735059,0.5325439000735059,270.0,2.532632500049658,2.532632500049658,,,,,,,,,,,,,,,,,,,,,,,,,,,,,,,,,,,,p13_high_01,001,2023-05-10_13h49.32.564,expectation_shapes_perceived_time,2022.2.4,119.9171611527082,
,-100,0.8,met,,green,red,,791.4526338687596,1,0,1,0,0,25,25,430,fam,0.49845370010007173,0.49845370010007173,270.0,2.49869680008851,2.49869680008851,,,,,,,,,,,,,,,,,,,,,,,,,,,,,,,,,,,,p13_high_01,001,2023-05-10_13h49.32.564,expectation_shapes_perceived_time,2022.2.4,119.9171611527082,
,-100,0.8,met,,green,red,,791.4526338687596,2,0,2,0,0,25,25,430,fam,0.4990972999949008,0.4990972999949008,270.0,2.4990833000047132,2.4990833000047132,,,,,,,,,,,,,,,,,,,,,,,,,,,,,,,,,,,,p13_high_01,001,2023-05-10_13h49.32.564,expectation_shapes_perceived_time,2022.2.4,119.9171611527082,
,-100,0.8,met,,green,red,,791.4526338687596,3,0,3,0,0,25,25,430,fam,0.4992169999750331,0.4992169999750331,270.0,2.4996418999508023,2.4996418999508023,,,,,,,,,,,,,,,,,,,,,,,,,,,,,,,,,,,,p13_high_01,001,2023-05-10_13h49.32.564,expectation_shapes_perceived_time,2022.2.4,119.9171611527082,
,-100,0.8,met,,green,red,,791.4526338687596,,,,,0,25,25,430,trial,,,,,,green,0.7914526338687595,0.7916666666666666,2.2996787999290973,0.9990041999844834,2e-05,2e-05,,0.7915112000191584,0.8248491999693215,1.9998570999596268,2.033219499979168,2.2996787999290973,2.2996787999290973,2.4998545999405906,2.4665626999922097,0.16688390006311238,5.166395399952307,2.86671660002321,2.6998326999600977,1.13667,-0.061535596436905746,-0.1344066974806099,,,,None,,-0.1,-0.1,0.6581226338687596,0.6583333333333333,trial_list_0.8_green.csv,0.6584015999687836,0.6915244999108836,p13_high_01,001,2023-05-10_13h49.32.564,expectation_shapes_perceived_time,2022.2.4,119.9171611527082,
,-33,0.1999999999999999,unmet,,red,green,,710.692054529364,,,,,0,26,26,180,trial,,,,,,red,0.710692054529364,0.7083333333333334,2.2997458999743685,0.9969103999901563,4e-05,4e-05,0.03318,0.7082625000039116,0.7416087000165135,1.9995175999356434,2.0328106000088155,2.2997458999743685,2.2997458999743685,2.499819100019522,2.6748885000124574,0.37514260003808886,5.391721799969673,3.0919758999953046,2.716833299957216,0.75922,0.10145462759328765,-0.10751162028542423,,,,None,,-0.033,-0.03333333333333333,0.6443620545293639,0.6416666666666666,trial_list_0.8_green.csv,0.6413831999525428,0.6753172000171617,p13_high_01,001,2023-05-10_13h49.32.564,expectation_shapes_perceived_time,2022.2.4,119.9171611527082,
,300,0.1999999999999999,unmet,,red,green,,1016.9877378137904,,,,,0,27,27,122,trial,,,,,,red,1.0169877378137904,1.0166666666666666,2.299507400020957,0.9977400999050587,1e-05,1e-05,0.0335,1.016675400082022,1.0497169001027942,1.9996846000431105,2.033011300023645,2.299507400020957,2.299507400020957,2.4994266000576317,2.574728700099513,0.27522130007855594,3.958531100070104,1.659023700049147,1.383802399970591,1.44145,-0.1453297341949184,-0.027038090082775516,,,,None,,0.3,0.3,1.3503177378137903,1.35,trial_list_0.8_green.csv,1.350184400100261,1.3831755000865087,p13_high_01,001,2023-05-10_13h49.32.564,expectation_shapes_perceived_time,2022.2.4,119.9171611527082,
,100,0.8,met,,green,red,,880.5366574874749,,,,,0,28,28,225,trial,,,,,,green,0.8805366574874749,0.8833333333333333,2.2997201000107452,0.9975446000462398,1e-05,1e-05,0.03314,0.8826454000081867,0.9159066999563947,1.9997000999283046,2.033158899983391,2.2997201000107452,2.2997201000107452,2.4996430999599397,2.5915388999274,0.2918187999166548,4.574809999903664,2.2750898998929188,1.983271099976264,0.88163,0.05371097392582693,-0.1377204459636588,,,,None,,0.1,0.1,1.013866657487475,1.0166666666666666,trial_list_0.8_green.csv,1.0162956999847665,1.0495416999328882,p13_high_01,001,2023-05-10_13h49.32.564,expectation_shapes_perceived_time,2022.2.4,119.9171611527082,
,-300,0.8,met,,green,red,,1221.2428152664888,,,,,0,29,29,161,trial,,,,,,green,1.221242815266489,1.2166666666666666,2.3002502999734133,0.9971284000203013,2e-05,2e-05,,1.217000599950552,1.2505282999482006,2.0000938000157475,,2.3002502999734133,2.3002502999734133,2.500158999930136,3.016723999986425,0.7164737000130117,5.424920900026336,3.124670600052923,2.4081969000399113,1.40248,-0.1409401838469902,-0.04458311938017038,,,,None,,-0.3,-0.3,0.8879128152664888,0.8833333333333333,trial_list_0.8_green.csv,0.8834929999429733,0.9167030999669805,p13_high_01,001,2023-05-10_13h49.32.564,expectation_shapes_perceived_time,2022.2.4,119.9171611527082,
,-233,0.8,met,,green,red,,574.9228340161072,,,,,0,30,30,185,trial,,,,,,green,0.5749228340161072,0.575,2.300415899953805,0.9982607999118045,1e-05,1e-05,0.03373,0.5752237999113277,0.6085976999020204,2.0000119999749586,2.0337367999600247,2.300415899953805,2.300415899953805,2.5000528999371454,2.716857299907133,0.4164413999533281,4.3333353999769315,2.0329195000231266,1.6164781000697985,0.66401,0.1286318852572826,-0.0728397422541239,,,,None,,-0.233,-0.23333333333333334,0.30859283401610726,0.30833333333333335,trial_list_0.8_green.csv,0.30875579989515245,0.34197589999530464,p13_high_01,001,2023-05-10_13h49.32.564,expectation_shapes_perceived_time,2022.2.4,119.9171611527082,
,-33,0.8,met,,green,red,,1667.514585312528,,,,,0,31,31,0,trial,,,,,,green,1.667514585312528,1.6666666666666667,2.2999111000681296,0.9972872999496758,1e-05,1e-05,,1.6661249999888241,1.699587400071323,1.9996176999993622,2.033018800080754,2.2999111000681296,2.2999111000681296,2.4996597000863403,2.8496192999882624,0.5497081999201328,7.008175500086509,4.708264400018379,4.158556200098246,1.84345,-0.06980542645203792,0.13030346271047077,,,,None,,-0.033,-0.03333333333333333,1.601184585312528,1.6,trial_list_0.8_green.csv,1.5995566999772564,1.6328575999941677,p13_high_01,001,2023-05-10_13h49.32.564,expectation_shapes_perceived_time,2022.2.4,119.9171611527082,
,-100,0.8,met,,green,red,,1814.526736584696,,,,,0,32,32,154,trial,,,,,,green,1.814526736584696,1.8166666666666667,2.299780000001192,0.9977987000020221,1e-05,1e-05,0.03297,1.8163626999594271,1.8496043999912217,1.9997116000158712,2.0328904000343755,2.299780000001192,2.299780000001192,2.4995984999695793,2.933105899952352,0.63332589995116,4.575127399992198,2.2753473999910057,1.6420215000398457,1.87532,-0.05643312580790553,0.1366275677454555,,,,None,,-0.1,-0.1,1.681196736584696,1.6833333333333333,trial_list_0.8_green.csv,1.6829004000173882,1.7164228999754414,p13_high_01,001,2023-05-10_13h49.32.564,expectation_shapes_perceived_time,2022.2.4,119.9171611527082,
,300,0.8,met,,green,red,,1126.8730798159652,,,,,0,33,33,254,trial,,,,,,green,1.1268730798159652,1.125,2.300297599984333,0.9972349000163376,2e-05,2e-05,,1.1252573999809101,1.1586106999311596,2.0006941999308765,2.0335822999477386,2.300297599984333,2.300297599984333,2.5008137999102473,2.792441500001587,0.49214390001725405,6.141960599925369,3.841662999941036,3.349519099923782,0.85755,0.06396782507361266,-0.13326630223669303,,,,None,,0.3,0.3,1.460203079815965,1.4583333333333333,trial_list_0.8_green.csv,1.4590518999611959,1.4920625999802724,p13_high_01,001,2023-05-10_13h49.32.564,expectation_shapes_perceived_time,2022.2.4,119.9171611527082,
,-100,0.8,met,,green,red,,1397.0121698053963,,,,,0,34,34,388,trial,,,,,,green,1.3970121698053963,1.4,2.300263899960555,0.9979204999981448,1e-05,1e-05,0.03328,1.3998216999461874,1.433375999913551,2.000076199998148,2.0333997999550775,2.300263899960555,2.300263899960555,2.4999484999570996,2.7579655000008643,0.45770160004030913,4.700025499914773,2.3997615999542177,1.9420599999139085,1.75927,-0.10143951178408521,0.1075258824911303,,,,None,,-0.1,-0.1,1.2636821698053964,1.2666666666666666,trial_list_0.8_green.csv,1.2665219999616966,1.2998686999781057,p13_high_01,001,2023-05-10_13h49.32.564,expectation_shapes_perceived_time,2022.2.4,119.9171611527082,
,-167,0.8,met,,green,red,,1809.818113297564,,,,,0,35,35,64,trial,,,,,,green,1.809818113297564,1.8083333333333333,2.2998178000561893,0.9978845999576151,3e-05,3e-05,0.03303,1.8081328000407666,1.8412414999911562,1.999305000063032,2.032632500049658,2.2998178000561893,2.2998178000561893,2.499510299996473,2.7078396000433713,0.408021799987182,3.833103600074537,1.5332858000183478,1.1252640000311658,1.8868,-0.05147015476144403,0.13857349358850315,,,,None,,-0.167,-0.16666666666666666,1.609488113297564,1.6083333333333334,trial_list_0.8_green.csv,1.6081669999985024,1.6414137000683695,p13_high_01,001,2023-05-10_13h49.32.564,expectation_shapes_perceived_time,2022.2.4,119.9171611527082,
,-100,0.8,met,,green,red,,373.58239112836617,,,,,0,36,36,191,trial,,,,,,green,0.37358239112836616,0.375,2.299429800012149,0.9978885999880731,1e-05,1e-05,0.0332,0.37504519999492913,0.40807790006510913,1.9998780000023544,2.033112399978563,2.299429800012149,2.299429800012149,2.4997188000706956,2.7830524999881163,0.4836226999759674,5.250119799980894,2.950689999968745,2.4670672999927774,0.45607,0.14641804393900454,0.020335839435972853,,,,None,,-0.1,-0.1,0.2402523911283662,0.24166666666666667,trial_list_0.8_green.csv,0.2413173000095412,0.2747897000517696,p13_high_01,001,2023-05-10_13h49.32.564,expectation_shapes_perceived_time,2022.2.4,119.9171611527082,
,100,0.1999999999999999,unmet,,red,green,,1089.0548040259696,,,,,0,37,37,398,trial,,,,,,red,1.0890548040259695,1.0916666666666666,2.299955200054683,0.9974761999910697,1e-05,1e-05,0.03293,1.0909441000549123,1.1243152000242844,1.999526400002651,2.0332703000167385,2.299955200054683,2.299955200054683,2.499830299988389,2.557872000033967,0.2579167999792844,3.8583273000549525,1.5583721000002697,1.3004553000209853,0.98092,0.008853488606506688,-0.14755814344177814,,,,None,,0.1,0.1,1.2223848040259695,1.225,trial_list_0.8_green.csv,1.2247969000600278,1.2579273000592366,p13_high_01,001,2023-05-10_13h49.32.564,expectation_shapes_perceived_time,2022.2.4,119.9171611527082,
,-233,0.8,met,,green,red,,956.5767189890691,,,,,0,38,38,132,trial,,,,,,green,0.9565767189890692,0.9583333333333334,2.2999218000331894,0.9973821999737993,1e-05,1e-05,0.03359,0.9585252000251785,0.991302500013262,2.0001047999830917,2.033776900032535,2.2999218000331894,2.2999218000331894,2.5003627000842243,2.633267299970612,0.3333454999374226,3.6749657000182196,1.3750438999850303,1.0416984000476077,1.17529,-0.07735057797159081,-0.12597094126801933,,,,None,,-0.233,-0.23333333333333334,0.6902467189890691,0.6916666666666667,trial_list_0.8_green.csv,0.6920756000326946,0.7249756000237539,p13_high_01,001,2023-05-10_13h49.32.564,expectation_shapes_perceived_time,2022.2.4,119.9171611527082,
,-100,0.8,met,,green,red,,954.6287738587492,,,,,0,39,39,413,trial,,,,,,green,0.9546287738587492,0.95,2.299867199966684,0.9973998001078144,3e-05,3e-05,,0.9500953999813646,0.9832907000090927,1.9999076999956742,,2.299867199966684,2.299867199966684,2.4998051999136806,2.7081167999422178,0.4082495999755338,5.499734799959697,3.199867599993013,2.791618000017479,1.31695,-0.12404653946767707,-0.08040053484016108,,,,None,,-0.1,-0.1,0.8212987738587492,0.8166666666666667,trial_list_0.8_green.csv,0.8167630999814719,0.8500189000042155,p13_high_01,001,2023-05-10_13h49.32.564,expectation_shapes_perceived_time,2022.2.4,119.9171611527082,
,-33,0.8,met,,green,red,,804.6454595382713,,,,,0,40,40,11,trial,,,,,,green,0.8046454595382714,0.8,2.2998397999908775,0.9981895999517292,4e-05,4e-05,,0.799847700051032,0.8332986000459641,1.999824000056833,,2.2998397999908775,2.2998397999908775,2.4999149000504985,2.66653170005884,0.3666919000679627,3.7916710999561474,1.4918312999652699,1.1251393998973072,0.35242,0.13221736635250278,0.06610868317625139,,,,None,,-0.033,-0.03333333333333333,0.7383154595382713,0.7416666666666667,trial_list_0.8_green.csv,0.7415209000464529,0.774860700010322,p13_high_01,001,2023-05-10_13h49.32.564,expectation_shapes_perceived_time,2022.2.4,119.9171611527082,
,100,0.1999999999999999,unmet,,red,green,,286.2704643312135,,,,,0,41,41,200,trial,,,,,,red,0.28627046433121345,0.2833333333333333,2.300076700048521,0.9982026000507176,1e-05,1e-05,,0.2833037000382319,0.31692600005771965,1.9999777000630274,,2.300076700048521,2.300076700048521,2.50012920005247,2.908720500068739,0.6086438000202179,,,,,,,,,,space,1.047356199938804,0.1,0.1,0.41960046433121345,0.4166666666666667,trial_list_0.8_green.csv,0.41678690002299845,0.4500456000678241,p13_high_01,001,2023-05-10_13h49.32.564,expectation_shapes_perceived_time,2022.2.4,119.9171611527082,
,-300,0.8,met,,green,red,,1551.0643656705902,,,,,0,42,42,473,trial,,,,,,green,1.5510643656705903,1.55,2.3000924999359995,0.9983393000438809,2e-05,2e-05,0.0331,1.5498202999588102,1.5830739999655634,1.9997555000009015,,2.3000924999359995,2.3000924999359995,2.500116999959573,2.6411294999998063,0.34103700006380677,3.966540899942629,1.6664484000066295,1.3254113999428228,0.69565,0.12076705668433614,-0.08524733413011963,,,,None,,-0.3,-0.3,1.2177343656705903,1.2166666666666666,trial_list_0.8_green.csv,1.2162817999487743,1.2497924999333918,p13_high_01,001,2023-05-10_13h49.32.564,expectation_shapes_perceived_time,2022.2.4,119.9171611527082,
,233,0.8,met,,green,red,,921.1527351303872,,,,,0,43,43,238,trial,,,,,,green,0.9211527351303872,0.9166666666666666,2.2998053999617696,0.9974534000502899,1e-05,1e-05,0.03299,0.9164174000034109,0.9494021999416873,1.9994741999544203,2.0329303999897093,2.2998053999617696,2.2998053999617696,2.4998733999673277,2.6913431000430137,0.3915377000812441,4.283081899979152,1.9832765000173822,1.591738799936138,1.11997,-0.054406213688463656,-0.13744727668664503,,,,None,,0.233,0.23333333333333334,1.187482735130387,1.1833333333333333,trial_list_0.8_green.csv,1.1831590000074357,1.2161865000380203,p13_high_01,001,2023-05-10_13h49.32.564,expectation_shapes_perceived_time,2022.2.4,119.9171611527082,
,167,0.8,met,,green,red,,595.8373461042937,,,,,0,44,44,49,trial,,,,,,green,0.5958373461042937,0.5916666666666667,2.299997599911876,0.9983326999936253,1e-05,1e-05,,0.5910112999845296,0.6244863999309018,1.9999228999949992,2.0329554999480024,2.299997599911876,2.299997599911876,2.4996826999122277,2.716311299940571,0.41631370002869517,3.7412951999576762,1.4412976000458002,1.024983900017105,0.84762,0.06809417246552121,-0.13120584450673597,,,,None,,0.167,0.16666666666666666,0.7961673461042937,0.7916666666666666,trial_list_0.8_green.csv,0.7912958000088111,0.824521099915728,p13_high_01,001,2023-05-10_13h49.32.564,expectation_shapes_perceived_time,2022.2.4,119.9171611527082,
,167,0.8,met,,green,red,,907.2996676601304,,,,,0,45,45,344,trial,,,,,,green,0.9072996676601304,0.9083333333333333,2.300016700057313,0.9976741999853402,2e-05,2e-05,0.03311,0.90828249999322,0.9413949999725446,1.9995171000482515,2.033422500011511,2.300016700057313,2.300016700057313,2.499965399969369,2.8081412999890745,0.5081245999317616,4.608462100033648,2.3084453999763355,1.8003208000445738,1.17989,-0.07916570166522433,-0.1248382218566999,,,,None,,0.167,0.16666666666666666,1.1076296676601303,1.1083333333333334,trial_list_0.8_green.csv,1.1084209999535233,1.141541099990718,p13_high_01,001,2023-05-10_13h49.32.564,expectation_shapes_perceived_time,2022.2.4,119.9171611527082,
,-233,0.8,met,,green,red,,1430.396286244168,,,,,0,46,46,423,trial,,,,,,green,1.4303962862441681,1.4333333333333333,2.300323599949479,0.997269699932076,4e-05,4e-05,,1.4337251000106335,1.4670064999954775,2.0006067999638617,2.034019700018689,2.300323599949479,2.300323599949479,2.5004511999431998,2.575191200012341,0.27486760006286204,3.8584941999288276,1.5581705999793485,1.2833029999164864,1.82471,-0.07735057797159081,0.12597094126801933,,,,None,,-0.233,-0.23333333333333334,1.1640662862441682,1.1666666666666667,trial_list_0.8_green.csv,1.1669998000143096,1.2004478999879211,p13_high_01,001,2023-05-10_13h49.32.564,expectation_shapes_perceived_time,2022.2.4,119.9171611527082,
,233,0.8,met,,green,red,,1161.554076054671,,,,,0,47,47,176,trial,,,,,,green,1.161554076054671,1.1583333333333332,2.2999511000234634,0.9983283000765368,1e-05,1e-05,,1.1580965999746695,1.1915844000177458,1.9997881000163034,,2.2999511000234634,2.2999511000234634,2.4997302000410855,2.774758900050074,0.4748078000266105,4.082857399946079,1.7829062999226153,1.3080984998960048,1.20724,-0.08958743497978619,-0.11758350841096939,,,,None,,0.233,0.23333333333333334,1.427884076054671,1.425,trial_list_0.8_green.csv,1.4248813999583945,1.4577138000167906,p13_high_01,001,2023-05-10_13h49.32.564,expectation_shapes_perceived_time,2022.2.4,119.9171611527082,
,-167,0.1999999999999999,unmet,,red,green,,1347.2722347142485,,,,,0,48,48,346,trial,,,,,,red,1.3472722347142485,1.35,2.300437099998817,0.9974862999515608,1e-05,1e-05,0.03338,1.3505640000803396,1.383714499999769,2.000361100072041,2.0339324000524357,2.300437099998817,2.300437099998817,2.500693800044246,2.8839643000392243,0.5835272000404075,4.758575899992138,2.4581387999933213,1.8746115999529138,1.40655,-0.14149835250251713,-0.04277857168680751,,,,None,,-0.167,-0.16666666666666666,1.1469422347142486,1.15,trial_list_0.8_green.csv,1.1508922000648454,1.1836629000026733,p13_high_01,001,2023-05-10_13h49.32.564,expectation_shapes_perceived_time,2022.2.4,119.9171611527082,
,233,0.8,met,,green,red,,1196.5605465160806,,,,,0,49,49,22,trial,,,,,,green,1.1965605465160807,1.1916666666666667,2.2998218999709934,0.9981116000562906,2e-05,2e-05,0.03289,1.191823299974203,1.2251488000620157,1.9998679000418633,,2.2998218999709934,2.2998218999709934,2.5001651999773458,2.9083827000577003,0.6085608000867069,3.983070000074804,1.6832481001038104,1.0746873000171036,0.87888,0.05490027316870664,-0.1372506829217666,,,,None,,0.233,0.23333333333333334,1.4628905465160806,1.4583333333333333,trial_list_0.8_green.csv,1.4584150000009686,1.491840900038369,p13_high_01,001,2023-05-10_13h49.32.564,expectation_shapes_perceived_time,2022.2.4,119.9171611527082,
,-300,0.8,met,,green,red,,1778.8201247222244,0,0,0,0,0,50,50,165,fam,0.5323795001022518,0.5323795001022518,270.0,2.5324767000274733,2.5324767000274733,,,,,,,,,,,,,,,,,,,,,,,,,,,,,,,,,,,,p13_high_01,001,2023-05-10_13h49.32.564,expectation_shapes_perceived_time,2022.2.4,119.9171611527082,
,-300,0.8,met,,green,red,,1778.8201247222244,1,0,1,0,0,50,50,165,fam,0.49872800009325147,0.49872800009325147,270.0,2.4987337000202388,2.4987337000202388,,,,,,,,,,,,,,,,,,,,,,,,,,,,,,,,,,,,p13_high_01,001,2023-05-10_13h49.32.564,expectation_shapes_perceived_time,2022.2.4,119.9171611527082,
,-300,0.8,met,,green,red,,1778.8201247222244,2,0,2,0,0,50,50,165,fam,0.49826519994530827,0.49826519994530827,270.0,2.4984015999361873,2.4984015999361873,,,,,,,,,,,,,,,,,,,,,,,,,,,,,,,,,,,,p13_high_01,001,2023-05-10_13h49.32.564,expectation_shapes_perceived_time,2022.2.4,119.9171611527082,
,-300,0.8,met,,green,red,,1778.8201247222244,3,0,3,0,0,50,50,165,fam,0.4985601999796927,0.4985601999796927,270.0,2.498320100014098,2.498320100014098,,,,,,,,,,,,,,,,,,,,,,,,,,,,,,,,,,,,p13_high_01,001,2023-05-10_13h49.32.564,expectation_shapes_perceived_time,2022.2.4,119.9171611527082,
,-300,0.8,met,,green,red,,1778.8201247222244,,,,,0,50,50,165,trial,,,,,,green,1.7788201247222244,1.775,2.2999719000654295,0.9984892000211403,4e-05,4e-05,0.03349,1.7749332000967115,1.8083899000193924,2.00011780008208,,2.2999719000654295,2.2999719000654295,2.5000432000961155,2.67526180006098,0.3752898999955505,4.483074299991131,2.1831023999257013,1.8078124999301508,1.60703,-0.13954556342349372,0.04877320663345412,,,,None,,-0.3,-0.3,1.4454901247222245,1.4416666666666667,trial_list_0.8_green.csv,1.4417611000826582,1.4750014999881387,p13_high_01,001,2023-05-10_13h49.32.564,expectation_shapes_perceived_time,2022.2.4,119.9171611527082,
,100,0.8,met,,green,red,,1029.907430126489,,,,,0,51,51,488,trial,,,,,,green,1.029907430126489,1.0333333333333332,2.2997259999392554,0.9990902999415994,1e-05,1e-05,0.03315,1.0333364999387413,1.06658849993255,1.9999165999470279,2.0331947999075055,2.2997259999392554,2.2997259999392554,2.5004045999376103,2.2997259999392554,0.0,3.5418389999540523,1.2421130000147969,1.2421130000147969,0.87608,0.05610735262918208,-0.13676167203363135,,,,None,,0.1,0.1,1.163237430126489,1.1583333333333332,trial_list_0.8_green.csv,1.1583129999926314,1.1916328999213874,p13_high_01,001,2023-05-10_13h49.32.564,expectation_shapes_perceived_time,2022.2.4,119.9171611527082,
,-300,0.8,met,,green,red,,715.3419557314487,,,,,0,52,52,333,trial,,,,,,green,0.7153419557314487,0.7166666666666667,2.2993639000924304,0.997910299920477,1e-05,1e-05,0.03296,0.7161793000996113,0.7496377000352368,1.9997213000897318,2.032852900098078,2.2993639000924304,2.2993639000924304,2.499771700007841,2.6078835000516847,0.30851959995925426,3.6583166000200436,1.3589526999276131,1.0504330999683589,0.72452,0.11255001713006756,-0.09583466805134466,,,,None,,-0.3,-0.3,0.38201195573144875,0.3833333333333333,trial_list_0.8_green.csv,0.38288800010923296,0.4162276000715792,p13_high_01,001,2023-05-10_13h49.32.564,expectation_shapes_perceived_time,2022.2.4,119.9171611527082,
,-33,0.8,met,,green,red,,1842.7532470232536,,,,,0,53,53,314,trial,,,,,,green,1.8427532470232537,1.8416666666666666,2.300532100023702,0.9977467000717297,2e-05,2e-05,0.0333,1.8418352999724448,1.8751228000037372,2.000069700065069,2.0334433000534773,2.300532100023702,2.300532100023702,2.5004419999895617,2.300532100023702,0.0,3.9003457999788225,1.5998136999551207,1.5998136999551207,1.85539,-0.06487017391094851,0.13282940372241842,,,,None,,-0.033,-0.03333333333333333,1.7764232470232537,1.775,trial_list_0.8_green.csv,1.7751119000604376,1.808697700034827,p13_high_01,001,2023-05-10_13h49.32.564,expectation_shapes_perceived_time,2022.2.4,119.9171611527082,
,233,0.1999999999999999,unmet,,red,green,,1270.8967072938935,,,,,0,54,54,39,trial,,,,,,red,1.2708967072938935,1.2666666666666666,2.2999818000243977,0.9979124000528827,1e-05,1e-05,0.03283,1.2669631999451667,1.2996097999857739,1.9998856999445707,2.0333252999698743,2.2999818000243977,2.2999818000243977,2.5002800999209285,2.6165290999924764,0.31654729996807873,5.23348639998585,2.933504599961452,2.6169572999933735,1.0799,-0.03671571594616167,-0.14319129219003052,,,,None,,0.233,0.23333333333333334,1.5372267072938934,1.5333333333333332,trial_list_0.8_green.csv,1.5328830999787897,1.5662500999169424,p13_high_01,001,2023-05-10_13h49.32.564,expectation_shapes_perceived_time,2022.2.4,119.9171611527082,
,-233,0.8,met,,green,red,,1832.8218245678224,,,,,0,55,55,427,trial,,,,,,green,1.8328218245678225,1.8333333333333333,2.2999368999153376,0.9973221000982448,1e-05,1e-05,0.03321,1.8337428999366239,1.8668427999364212,2.000344799947925,,2.2999368999153376,2.2999368999153376,2.500400099903345,3.6669125999324024,1.3669757000170648,5.241587699973024,2.941650800057687,1.574675100040622,1.59277,-0.14158924295846204,0.04247677288753861,,,,None,,-0.233,-0.23333333333333334,1.5664918245678225,1.5666666666666667,trial_list_0.8_green.csv,1.5669745999621227,1.599703999934718,p13_high_01,001,2023-05-10_13h49.32.564,expectation_shapes_perceived_time,2022.2.4,119.9171611527082,
,-233,0.8,met,,green,red,,839.2775841043631,,,,,0,56,56,449,trial,,,,,,green,0.839277584104363,0.8416666666666667,2.3003055000444874,0.9982986999675632,1e-05,1e-05,,0.8418602000456303,0.8749019999522716,2.000184900010936,,2.3003055000444874,2.3003055000444874,2.5001117000356317,2.5752021999796852,0.27489669993519783,3.733886400004849,1.4335808999603614,1.1586842000251636,1.14508,-0.06506558454553672,-0.1327337924728949,,,,None,,-0.233,-0.23333333333333334,0.5729475841043631,0.575,trial_list_0.8_green.csv,0.5750355999916792,0.608447500038892,p13_high_01,001,2023-05-10_13h49.32.564,expectation_shapes_perceived_time,2022.2.4,119.9171611527082,
,-300,0.8,met,,green,red,,1666.404491632771,,,,,0,57,57,306,trial,,,,,,green,1.666404491632771,1.6666666666666667,2.300232999958098,0.9972152999835089,2e-05,2e-05,0.03339,1.6666941000148654,1.7002273999387398,2.0002124999882653,2.03341619996354,2.300232999958098,2.300232999958098,2.500095900031738,2.625449200044386,0.32521620008628815,4.29135790001601,1.9911249000579119,1.6659086999716237,1.89915,-0.04605451329938136,0.14046626556311315,,,,None,,-0.3,-0.3,1.333074491632771,1.3333333333333333,trial_list_0.8_green.csv,1.333535399986431,1.3667387999594212,p13_high_01,001,2023-05-10_13h49.32.564,expectation_shapes_perceived_time,2022.2.4,119.9171611527082,
,-167,0.8,met,,green,red,,1381.573897107873,,,,,0,58,58,266,trial,,,,,,green,1.381573897107873,1.3833333333333333,2.2993480000877753,0.9990488999756053,1e-05,1e-05,0.03273,1.3828798000467941,1.416159400017932,1.9993168000364676,2.032642300007865,2.2993480000877753,2.2993480000877753,2.49932180007454,3.1492401000577956,0.8498920999700204,4.107711900025606,1.8083638999378309,0.9584717999678105,1.76178,-0.100586669541462,0.108324105660036,,,,None,,-0.167,-0.16666666666666666,1.1812438971078731,1.1833333333333333,trial_list_0.8_green.csv,1.1826819999841973,1.215934899984859,p13_high_01,001,2023-05-10_13h49.32.564,expectation_shapes_perceived_time,2022.2.4,119.9171611527082,
,233,0.8,met,,green,red,,1233.1411314896934,,,,,0,59,59,394,trial,,,,,,green,1.2331411314896934,1.2333333333333334,2.3001993999350816,0.998376699979417,1e-05,1e-05,0.03344,1.2333132999483496,1.2666770999785513,1.9999448999296874,2.0332888999255374,2.3001993999350816,2.3001993999350816,2.4999180999584496,2.7332944000372663,0.4330950001021847,5.050005799974315,2.7498064000392333,2.3167113999370486,0.75697,0.10221358994477485,-0.10679031785274984,,,,None,,0.233,0.23333333333333334,1.4994711314896934,1.5,trial_list_0.8_green.csv,1.499917099950835,1.5332525999983773,p13_high_01,001,2023-05-10_13h49.32.564,expectation_shapes_perceived_time,2022.2.4,119.9171611527082,
,300,0.8,met,,green,red,,1360.748832947766,,,,,0,60,60,210,trial,,,,,,green,1.360748832947766,1.3583333333333334,2.299987499951385,0.9977814999874681,1e-05,1e-05,0.03328,1.3583946999860927,1.3921921999426559,1.9998655000235885,2.0332457999465987,2.299987499951385,2.299987499951385,2.4999665999785066,2.299987499951385,0.0,4.250059999991208,1.9500725000398234,1.9500725000398234,1.54721,-0.14620034538265209,0.021846028620396283,,,,None,,0.3,0.3,1.6940788329477658,1.6916666666666667,trial_list_0.8_green.csv,1.6916062999516726,1.7249811999499798,p13_high_01,001,2023-05-10_13h49.32.564,expectation_shapes_perceived_time,2022.2.4,119.9171611527082,
,167,0.8,met,,green,red,,983.104962303236,,,,,0,61,61,389,trial,,,,,,green,0.983104962303236,0.9833333333333333,2.30011289997492,0.9980588000034913,1e-05,1e-05,0.03357,0.9833696000277996,1.0168161999899894,1.9999678999884054,2.0334563999203965,2.30011289997492,2.30011289997492,2.500145399942994,2.5496412999927998,0.2495284000178799,5.741636699996889,3.441523800021969,3.191995400004089,1.17493,-0.07721000457777874,-0.12605715033106735,,,,None,,0.167,0.16666666666666666,1.1834349623032359,1.1833333333333333,trial_list_0.8_green.csv,1.183668499928899,1.2170090000145137,p13_high_01,001,2023-05-10_13h49.32.564,expectation_shapes_perceived_time,2022.2.4,119.9171611527082,
