id,delay,expectation,congruency,trial_num,stim_color,distractor_color,block,targetTimeMs,famLoop.thisRepN,famLoop.thisTrialN,famLoop.thisN,famLoop.thisIndex,trialss.thisRepN,trialss.thisTrialN,trialss.thisN,trialss.thisIndex,isTrial,handMove.started,audioCue2Start.started,handOri,handMove.ended,audioCue2End.started,target_color,expected_target_onset,expected_target_onset_in_frames,fixationPoint.started,fixationPoint.stopped,audCueStart.started,placeholder.started,audCueStart.stopped,target.started,target.stopped,audCueEnd.started,audCueEnd.stopped,responsePointer.started,cueForRep.started,space2pass.started,responseStarted,rtUntillMotionTreshold,responsePointer.stopped,rTAfterMotionTreshold,rtDurationBtwRespMotion,perceivedTime,resp_x_coord,resp_y_coord,feedbackPointer.stopped,actualTime_x_coord,actualTime_y_coord,space2pass.keys,space2pass.rt,expected_delay,expected_delays_frame,expected_distractor,expected_distractor_frame,expBlockFiles,distractor.started,distractor.stopped,participant,session,date,expName,psychopyVersion,frameRate,
,,,,,,,,,0,0,0,0,,,,,fam,0.6812152999991667,0.6812152999991667,270.0,2.6814387000049464,2.6814387000049464,,,,,,,,,,,,,,,,,,,,,,,,,,,,,,,,,,,,p14_base2_01,001,2023-05-11_15h29.58.325,expectation_shapes_perceived_time,2022.2.4,119.78529683413163,
,,,,,,,,,1,0,1,0,,,,,fam,0.49737589999858756,0.49737589999858756,270.0,2.4973918000032427,2.4973918000032427,,,,,,,,,,,,,,,,,,,,,,,,,,,,,,,,,,,,p14_base2_01,001,2023-05-11_15h29.58.325,expectation_shapes_perceived_time,2022.2.4,119.78529683413163,
,,,,,,,,,2,0,2,0,,,,,fam,0.49730849999468774,0.49730849999468774,270.0,2.4971401000002516,2.4971401000002516,,,,,,,,,,,,,,,,,,,,,,,,,,,,,,,,,,,,p14_base2_01,001,2023-05-11_15h29.58.325,expectation_shapes_perceived_time,2022.2.4,119.78529683413163,
,,,,,,,,,3,0,3,0,,,,,fam,0.4974112999989302,0.4974112999989302,270.0,2.497740099999646,2.497740099999646,,,,,,,,,,,,,,,,,,,,,,,,,,,,,,,,,,,,p14_base2_01,001,2023-05-11_15h29.58.325,expectation_shapes_perceived_time,2022.2.4,119.78529683413163,
,,,,,,,,,,,,,0,0,0,0,test,,,,,,green,0.2150533941126335,0.21487603305785125,2.299801799999841,0.9985258000015165,5.300000339047983e-05,5e-05,0.033268500003032386,0.21651679999922635,0.24973760000284528,1.9997282000040286,2.033184500003699,2.299801799999841,2.299801799999841,2.599623900001461,2.6577031000051647,0.3579013000053237,8.24069910000253,5.940897300002689,5.582995999997365,0.69321,0.12141779091147845,-0.08431791035519336,8.24069910000253,0.09244491421975362,0.11535045639871704,space,5.6328741000033915,,,,,,,,p14_base2_01,001,2023-05-11_15h29.58.325,expectation_shapes_perceived_time,2022.2.4,119.78529683413163,
,,,,,,,,,,,,,1,0,1,0,test,,,,,,green,0.9551050218797913,0.9421487603305785,2.300106999995478,0.9987149000007776,3.819999983534217e-05,4e-05,0.033460300001024734,0.9502775000000838,0.9832626999996137,2.0000016999983927,2.0333475999941584,2.300106999995478,2.300106999995478,2.5998356999989483,2.424923699996725,0.12481670000124723,7.158408499999496,4.858301500004018,4.7334848000027705,1.25816,-0.10717196064863221,-0.1018133626162006,7.158408499999496,0.020780227739671055,-0.14635563566729276,space,4.5514610999962315,,,,,,,,p14_base2_01,001,2023-05-11_15h29.58.325,expectation_shapes_perceived_time,2022.2.4,119.78529683413163,
,,,,,,,,,,,,,2,0,2,0,test,,,,,,red,1.8350604190116584,1.8181818181818183,2.2997868999955244,0.9974259000009624,3.189999551977962e-05,3e-05,0.03316689999337541,1.8329201999949873,1.8666439999942668,1.9998556999998982,2.033006999998179,2.2997868999955244,2.2997868999955244,2.5996150999999372,2.6580099999991944,0.35822310000366997,4.841241699999955,2.5414548000044306,2.1832317000007606,1.52886,-0.14721642885242012,0.013383311713856375,4.841241699999955,-0.07321606521291714,0.1284180585090266,space,2.2406489999993937,,,,,,,,p14_base2_01,001,2023-05-11_15h29.58.325,expectation_shapes_perceived_time,2022.2.4,119.78529683413163,
,,,,,,,,,,,,,3,0,3,0,test,,,,,,red,1.5297085970407522,1.512396694214876,2.300769699999364,0.9968912999975146,5.6899996707215905e-05,6e-05,0.033559699993929826,1.5254457999981241,1.558992299993406,2.000427999999374,2.03404739999678,2.300769699999364,2.300769699999364,2.6005768999966676,2.442055399995297,0.1412856999959331,3.9587443999989773,1.6579746999996132,1.5166890000036801,1.74518,-0.10609857074918534,0.10293144923428428,3.9587443999989773,-0.14718013732667895,0.013776688026875377,space,1.3512647000025027,,,,,,,,p14_base2_01,001,2023-05-11_15h29.58.325,expectation_shapes_perceived_time,2022.2.4,119.78529683413163,
,,,,,,,,,,,,,4,0,4,0,test,,,,,,green,0.3492178555441654,0.34710743801652894,2.300535399997898,0.9969081000017468,1.7400001524947584e-05,2e-05,,0.3504516999964835,0.38388709999708226,2.000411000000895,2.0336387999996077,2.300535399997898,2.300535399997898,2.60031799999706,2.300535399997898,0.0,4.058998299995437,1.7584628999975394,1.7584628999975394,0.88342,0.052938830412086524,-0.13801909357436842,4.058998299995437,0.13154641147237855,0.06743390530904758,space,1.458049499997287,,,,,,,,p14_base2_01,001,2023-05-11_15h29.58.325,expectation_shapes_perceived_time,2022.2.4,119.78529683413163,
,,,,,,,,,0,0,0,0,0,-1,-1,0,fam,0.5646478999988176,0.5646478999988176,270.0,2.564837300000363,2.564837300000363,,,,,,,,,,,,,,,,,,,,,,,,,,,,,,,,,,,,p14_base2_01,001,2023-05-11_15h29.58.325,expectation_shapes_perceived_time,2022.2.4,119.78529683413163,
,,,,,,,,,1,0,1,0,0,-1,-1,0,fam,0.4987487999969744,0.4987487999969744,270.0,2.498961799996323,2.498961799996323,,,,,,,,,,,,,,,,,,,,,,,,,,,,,,,,,,,,p14_base2_01,001,2023-05-11_15h29.58.325,expectation_shapes_perceived_time,2022.2.4,119.78529683413163,
,,,,,,,,,2,0,2,0,0,-1,-1,0,fam,0.49742089999926975,0.49742089999926975,270.0,2.497595300003013,2.497595300003013,,,,,,,,,,,,,,,,,,,,,,,,,,,,,,,,,,,,p14_base2_01,001,2023-05-11_15h29.58.325,expectation_shapes_perceived_time,2022.2.4,119.78529683413163,
,,,,,,,,,3,0,3,0,0,-1,-1,0,fam,0.4971841000005952,0.4971841000005952,270.0,2.4973355999973137,2.4973355999973137,,,,,,,,,,,,,,,,,,,,,,,,,,,,,,,,,,,,p14_base2_01,001,2023-05-11_15h29.58.325,expectation_shapes_perceived_time,2022.2.4,119.78529683413163,
1,-500,0.5,none,23,green,red,no_Expectation,,,,,,0,0,0,2,train_doubleStim,,,,,,green,1.5440737827746183,1.5289256198347108,2.2998856000049273,0.9984752000018489,3e-05,3e-05,0.03326,1.541759899999306,1.5749008000057074,1.9999234999995679,2.0333725000018603,2.2998856000049273,2.2998856000049273,2.499874200002523,2.858112500005518,0.5582269000005908,3.516462200001115,1.2165765999961877,0.6583496999955969,1.63503,-0.13472200048308072,0.060842193766552574,,,,None,,-0.5,-0.49586776859504134,1.0107437827746182,1.0,training_double_stim.csv,1.0081958000009763,1.0415020000000368,p14_base2_01,001,2023-05-11_15h29.58.325,expectation_shapes_perceived_time,2022.2.4,119.78529683413163,
1,500,0.5,none,88,red,green,no_Expectation,,,,,,0,1,1,9,train_doubleStim,,,,,,red,1.298488293309789,1.2892561983471076,2.3000462999989395,0.997302399999171,3e-05,3e-05,0.03308,1.2999238000047626,1.3333142999981646,2.0002068000030704,,2.3000462999989395,2.3000462999989395,2.4999860000025365,2.5664924000011524,0.2664461000022129,3.0666482000015094,0.7666019000025699,0.500155800000357,1.20075,-0.08717080348810219,-0.11938610042935734,,,,None,,0.5,0.49586776859504134,1.8318182933097888,1.8099173553719008,training_double_stim.csv,1.8249251000015647,1.8582069000040065,p14_base2_01,001,2023-05-11_15h29.58.325,expectation_shapes_perceived_time,2022.2.4,119.78529683413163,
1,500,0.5,none,98,red,green,no_Expectation,,,,,,0,2,2,5,train_doubleStim,,,,,,red,1.2724122858121267,1.256198347107438,2.300037399996654,0.9962194999970961,3e-05,3e-05,0.03322,1.266648199998599,1.3001365000018268,2.000050700000429,2.033443200001784,2.300037399996654,2.300037399996654,2.5006387000030372,2.3916102000002866,0.09157280000363244,2.941616399999475,0.641579000002821,0.5500061999991885,1.75,-0.10452700597570448,0.10452700597570448,,,,None,,0.5,0.49586776859504134,1.8057422858121268,1.7851239669421488,training_double_stim.csv,1.8002188999962527,1.8333955999987666,p14_base2_01,001,2023-05-11_15h29.58.325,expectation_shapes_perceived_time,2022.2.4,119.78529683413163,
1,500,0.5,none,33,green,red,no_Expectation,,,,,,0,3,3,7,train_doubleStim,,,,,,green,1.145459901423716,1.1322314049586777,2.2998809999990044,0.9974413000018103,3e-05,3e-05,0.03361,1.141884199998458,1.1752342000036151,1.9996128999991925,2.033163500003866,2.2998809999990044,2.2998809999990044,2.499734700002591,2.2998809999990044,0.0,3.5251591999985976,1.2252781999995932,1.2252781999995932,1.11291,-0.051341226972398644,-0.13862131282547635,,,,None,,0.5,0.49586776859504134,1.6787899014237158,1.6611570247933884,training_double_stim.csv,1.6747734000018681,1.7079005999985384,p14_base2_01,001,2023-05-11_15h29.58.325,expectation_shapes_perceived_time,2022.2.4,119.78529683413163,
1,500,0.5,none,60,red,green,no_Expectation,,,,,,0,4,4,8,train_doubleStim,,,,,,red,1.1101805355149763,1.0991735537190084,2.299322700004268,0.9963731000025291,4e-05,4e-05,0.03337,1.108451200001582,1.1417621000000509,1.9999787000051583,2.0331786000024294,2.299322700004268,2.299322700004268,2.4999486000015168,2.416032700006326,0.11671000000205822,3.475005800006329,1.175683100002061,1.0589731000000029,1.25322,-0.10557744840135892,-0.10346589943333173,,,,None,,0.5,0.49586776859504134,1.6435105355149762,1.6280991735537191,training_double_stim.csv,1.6415734000038356,1.674805100003141,p14_base2_01,001,2023-05-11_15h29.58.325,expectation_shapes_perceived_time,2022.2.4,119.78529683413163,
1,-500,0.5,none,77,green,red,no_Expectation,,,,,,0,5,5,1,train_doubleStim,,,,,,green,1.1949966024802963,1.1818181818181819,2.3001205999971717,0.9961546999984421,3e-05,3e-05,0.03332,1.191552699994645,1.2251417000006768,2.0002519999979995,2.0333660999967833,2.3001205999971717,2.3001205999971717,2.5000481999959447,2.749597999994876,0.4494773999977042,3.4917385000007926,1.191617900003621,0.7421405000059167,1.1496,-0.06694416115006638,-0.1317963172641932,,,,None,,-0.5,-0.49586776859504134,0.6616666024802963,0.6528925619834711,training_double_stim.csv,0.6583782999950927,0.6918245999986539,p14_base2_01,001,2023-05-11_15h29.58.325,expectation_shapes_perceived_time,2022.2.4,119.78529683413163,
1,-500,0.5,none,46,red,green,no_Expectation,,,,,,0,6,6,4,train_doubleStim,,,,,,red,1.024626547273434,1.0165289256198347,2.299979000003077,0.9964323999956832,4e-05,4e-05,,1.0249266000028001,1.0584264999997686,1.9997461000020849,,2.299979000003077,2.299979000003077,2.4999920000045677,2.7914305000012973,0.49145149999822024,3.2494063999984064,0.9494273999953293,0.4579758999971091,1.72743,-0.111671006156069,0.09685750533944762,,,,None,,-0.5,-0.49586776859504134,0.49129654727343397,0.487603305785124,training_double_stim.csv,0.4916035999995074,0.5247651000026963,p14_base2_01,001,2023-05-11_15h29.58.325,expectation_shapes_perceived_time,2022.2.4,119.78529683413163,
1,-500,0.5,none,59,green,red,no_Expectation,,,,,,0,7,7,0,train_doubleStim,,,,,,green,0.9781818889562554,0.9669421487603306,2.299450999998953,0.9986365000004298,4e-05,4e-05,0.03305,0.9744933000038145,1.0079188000017894,1.9994456999993417,2.032722299998568,2.299450999998953,2.299450999998953,2.499503500002902,2.6661784000025364,0.36672740000358317,3.04948819999845,0.7500371999994968,0.38330979999591364,1.87841,-0.055102349909265214,0.13716967956136233,,,,None,,-0.5,-0.49586776859504134,0.4448518889562553,0.4380165289256198,training_double_stim.csv,0.4411139000003459,0.4744527000002563,p14_base2_01,001,2023-05-11_15h29.58.325,expectation_shapes_perceived_time,2022.2.4,119.78529683413163,
1,500,0.5,none,25,green,red,no_Expectation,,,,,,0,8,8,6,train_doubleStim,,,,,,green,0.5799803241995114,0.5702479338842975,2.300726900000882,0.9972854999941774,3e-05,3e-05,0.03327,0.5753360000016983,0.6087372999973013,2.0004188000020804,,2.300726900000882,2.300726900000882,2.5004448000036064,2.300726900000882,0.0,3.4005971000005957,1.0998701999997138,1.0998701999997138,1.44537,-0.14565168949928636,-0.025246292846542968,,,,None,,0.5,0.49586776859504134,1.1133103241995113,1.0991735537190084,training_double_stim.csv,1.1088517000025604,1.142009399998642,p14_base2_01,001,2023-05-11_15h29.58.325,expectation_shapes_perceived_time,2022.2.4,119.78529683413163,
1,-500,0.5,none,68,red,green,no_Expectation,,,,,,0,9,9,3,train_doubleStim,,,,,,red,0.878253364123423,0.8677685950413223,2.299799200001871,0.9964323000021977,4e-05,4e-05,,0.8746509999982663,0.908046500000637,1.9998228999975254,,2.299799200001871,2.299799200001871,2.499927500000922,2.408022900002834,0.10822370000096271,3.941316899996309,1.6415176999944379,1.5332939999934752,1.15976,-0.07111755448828448,-0.12959198817865172,,,,None,,-0.5,-0.49586776859504134,0.344923364123423,0.33884297520661155,training_double_stim.csv,0.34144540000124834,0.374835599999642,p14_base2_01,001,2023-05-11_15h29.58.325,expectation_shapes_perceived_time,2022.2.4,119.78529683413163,
,,,,,,,,,0,0,0,0,0,-1,-1,0,fam,0.5567215000046417,0.5567215000046417,270.0,2.5566680999982054,2.5566680999982054,,,,,,,,,,,,,,,,,,,,,,,,,,,,,,,,,,,,p14_base2_01,001,2023-05-11_15h29.58.325,expectation_shapes_perceived_time,2022.2.4,119.78529683413163,
,,,,,,,,,1,0,1,0,0,-1,-1,0,fam,0.4976286000019172,0.4976286000019172,270.0,2.497284999997646,2.497284999997646,,,,,,,,,,,,,,,,,,,,,,,,,,,,,,,,,,,,p14_base2_01,001,2023-05-11_15h29.58.325,expectation_shapes_perceived_time,2022.2.4,119.78529683413163,
,,,,,,,,,2,0,2,0,0,-1,-1,0,fam,0.4974932000041008,0.4974932000041008,270.0,2.4975447000033455,2.4975447000033455,,,,,,,,,,,,,,,,,,,,,,,,,,,,,,,,,,,,p14_base2_01,001,2023-05-11_15h29.58.325,expectation_shapes_perceived_time,2022.2.4,119.78529683413163,
,,,,,,,,,3,0,3,0,0,-1,-1,0,fam,0.49896330000046873,0.49896330000046873,270.0,2.4989704000036,2.4989704000036,,,,,,,,,,,,,,,,,,,,,,,,,,,,,,,,,,,,p14_base2_01,001,2023-05-11_15h29.58.325,expectation_shapes_perceived_time,2022.2.4,119.78529683413163,
,-167,0.5,none,,red,green,,975.0893104955834,,,,,0,0,0,400,trial,,,,,,red,0.9750893104955833,0.9669421487603306,2.2998358000040753,0.9986490000010235,4e-05,4e-05,,0.9748582000029273,1.0078633000011905,1.99997400000575,,2.2998358000040753,2.2998358000040753,2.499704000001657,2.307942400002503,0.008106599998427555,3.0162226000029477,0.7163867999988724,0.7082802000004449,0.92905,0.03267772171299548,-0.1441664193220389,,,,None,,-0.167,-0.1652892561983471,0.7747593104955833,0.768595041322314,trial_list_0.5_red.csv,0.7743100000006962,0.8076020000007702,p14_base2_01,001,2023-05-11_15h29.58.325,expectation_shapes_perceived_time,2022.2.4,119.78529683413163,
,-167,0.5,none,,green,red,,470.3963231520796,,,,,0,1,1,481,trial,,,,,,green,0.47039632315207963,0.4628099173553719,2.2999348000012105,0.99541180000233,4e-05,4e-05,0.03331,0.46650980000413256,0.5001515000039944,1.9997015000044485,2.0333467000018572,2.2999348000012105,2.2999348000012105,2.500000899999577,2.492146500000672,0.19221169999946142,3.516573300003074,1.2166385000018636,1.0244268000024022,1.22881,-0.09734246214723054,-0.11124852816826347,,,,None,,-0.167,-0.1652892561983471,0.2700663231520796,0.2644628099173554,trial_list_0.5_red.csv,0.2666129999997793,0.2999409000040032,p14_base2_01,001,2023-05-11_15h29.58.325,expectation_shapes_perceived_time,2022.2.4,119.78529683413163,
,-100,0.5,none,,green,red,,559.8432872314646,,,,,0,2,2,283,trial,,,,,,green,0.5598432872314646,0.5537190082644629,2.2995900999958394,0.9965403000023798,4e-05,4e-05,0.03302,0.558204900000419,0.591493799998716,1.9991978999969433,2.0325652999963495,2.2995900999958394,2.2995900999958394,2.4996479999972507,2.308226499997545,0.008636400001705624,3.0080567999975756,0.7084667000017362,0.6998303000000305,0.60919,0.1392115944011508,-0.04971842657183957,,,,None,,-0.1,-0.09917355371900827,0.42651328723146464,0.42148760330578516,trial_list_0.5_red.csv,0.4247329999998328,0.45809659999940777,p14_base2_01,001,2023-05-11_15h29.58.325,expectation_shapes_perceived_time,2022.2.4,119.78529683413163,
,233,0.5,none,,green,red,,305.44815187868494,,,,,0,3,3,469,trial,,,,,,green,0.30544815187868496,0.30578512396694213,2.299852700001793,0.9966433000008692,4e-05,4e-05,0.03304,0.30820890000177315,0.3416510000024573,1.9998645000014221,2.033399100000679,2.299852700001793,2.299852700001793,2.4997428999995464,2.299852700001793,0.0,3.282996500005538,0.9831438000037451,0.9831438000037451,0.71929,0.11410943650656843,-0.09397247712305637,,,,None,,0.233,0.23140495867768596,0.571778151878685,0.5619834710743802,trial_list_0.5_red.csv,0.5667690000045695,0.6000812999991467,p14_base2_01,001,2023-05-11_15h29.58.325,expectation_shapes_perceived_time,2022.2.4,119.78529683413163,
,100,0.5,none,,green,red,,1211.134022151257,,,,,0,4,4,241,trial,,,,,,green,1.2111340221512572,1.1983471074380165,2.2997885000004317,0.9976494000002276,4e-05,4e-05,0.03356,1.208311100002902,1.2416907000006177,2.000057299999753,2.033459300000686,2.2997885000004317,2.2997885000004317,2.500059500001953,2.400276300002588,0.10048780000215629,2.94139290000021,0.6416043999997783,0.541116599997622,1.41925,-0.14309269865755464,-0.03709810705936602,,,,None,,0.1,0.09917355371900827,1.344464022151257,1.3305785123966942,trial_list_0.5_red.csv,1.3416586000021198,1.375098300006357,p14_base2_01,001,2023-05-11_15h29.58.325,expectation_shapes_perceived_time,2022.2.4,119.78529683413163,
,33,0.5,none,,red,green,,1300.0619021659943,,,,,0,5,5,266,trial,,,,,,red,1.3000619021659943,1.2892561983471076,2.300595400003658,0.994773599995824,1e-05,1e-05,0.03341,1.3004323999994085,1.333887799999502,2.000431100001151,2.033657200001471,2.300595400003658,2.300595400003658,2.5002038000020548,2.3085648999986006,0.007969499994942453,3.1669728999986546,0.8663774999949965,0.858408000000054,1.6315,-0.13538699257404932,0.059347722772185994,,,,None,,0.033,0.03305785123966942,1.3663919021659943,1.3553719008264462,trial_list_0.5_red.csv,1.3671315000028699,1.4003468000009889,p14_base2_01,001,2023-05-11_15h29.58.325,expectation_shapes_perceived_time,2022.2.4,119.78529683413163,
,-33,0.5,none,,green,red,,699.6016590207973,,,,,0,6,6,143,trial,,,,,,green,0.6996016590207973,0.6942148760330579,2.2995740000042133,0.9977278000005754,4e-05,4e-05,0.03307,0.6991563000046881,0.7326733000008971,1.9996816000057152,2.0331784000009065,2.2995740000042133,2.2995740000042133,2.4998503000024357,2.2995740000042133,0.0,3.232945400006429,0.9333714000022155,0.9333714000022155,1.22959,-0.09761317988870644,-0.11101106732441124,,,,None,,-0.033,-0.03305785123966942,0.6332716590207973,0.628099173553719,trial_list_0.5_red.csv,0.6326313000026857,0.6658859000017401,p14_base2_01,001,2023-05-11_15h29.58.325,expectation_shapes_perceived_time,2022.2.4,119.78529683413163,
,100,0.5,none,,green,red,,921.8599824895364,,,,,0,7,7,165,trial,,,,,,green,0.9218599824895364,0.9090909090909092,2.299685400001181,0.9962483999988763,3e-05,3e-05,0.03323,0.9164397999993525,0.9498430000021472,1.9999386999988928,2.0332628000032855,2.299685400001181,2.299685400001181,2.4996869000024162,2.299685400001181,0.0,3.0913597000035224,0.7916743000023416,0.7916743000023416,1.31163,-0.12268629566214229,-0.08246128069094809,,,,None,,0.1,0.09917355371900827,1.0551899824895363,1.0413223140495869,trial_list_0.5_red.csv,1.0498589999988326,1.0832867999997688,p14_base2_01,001,2023-05-11_15h29.58.325,expectation_shapes_perceived_time,2022.2.4,119.78529683413163,
,-33,0.5,none,,red,green,,1030.716259475566,,,,,0,8,8,92,trial,,,,,,red,1.0307162594755659,1.0165289256198347,2.3003313000008347,0.9975062999947113,2e-05,2e-05,0.03335,1.0252954000025056,1.058609500003513,2.0002650000024005,,2.3003313000008347,2.3003313000008347,2.5000221000009333,2.400043600006029,0.09971230000519427,3.091826400006539,0.7914951000057044,0.6917828000005102,1.12411,-0.05618955568483549,-0.1367279188330997,,,,None,,-0.033,-0.03305785123966942,0.9643862594755659,0.9586776859504132,trial_list_0.5_red.csv,0.9668335000023944,1.0003171000062139,p14_base2_01,001,2023-05-11_15h29.58.325,expectation_shapes_perceived_time,2022.2.4,119.78529683413163,
,167,0.5,none,,red,green,,1215.8561905640863,,,,,0,9,9,362,trial,,,,,,red,1.2158561905640863,1.2066115702479339,2.30012159999751,0.9965598999988288,2e-05,2e-05,,1.2167042000000947,1.2500505999996676,2.000052199997299,,2.30012159999751,2.30012159999751,2.500102899997728,2.30012159999751,0.0,3.258096999998088,0.9579754000005778,0.9579754000005778,1.60919,-0.1392115944011508,0.04971842657183957,,,,None,,0.167,0.1652892561983471,1.4161861905640862,1.4049586776859504,trial_list_0.5_red.csv,1.416727499999979,1.4500600999963353,p14_base2_01,001,2023-05-11_15h29.58.325,expectation_shapes_perceived_time,2022.2.4,119.78529683413163,
,100,0.5,none,,red,green,,1284.02140077551,,,,,0,10,10,256,trial,,,,,,red,1.28402140077551,1.2727272727272727,2.300023700001475,0.9983264999973471,3e-05,3e-05,,1.2833540999999968,1.316679400006251,2.000043900006858,,2.300023700001475,2.300023700001475,2.500016500001948,2.300023700001475,0.0,3.0998849000025075,0.7998612000010326,0.7998612000010326,1.69743,-0.12028893749926792,0.08592066964233423,,,,None,,0.1,0.09917355371900827,1.41735140077551,1.4049586776859504,trial_list_0.5_red.csv,1.4167510000042967,1.4501104000009946,p14_base2_01,001,2023-05-11_15h29.58.325,expectation_shapes_perceived_time,2022.2.4,119.78529683413163,
,-233,0.5,none,,red,green,,679.1532512712961,,,,,0,11,11,146,trial,,,,,,red,0.6791532512712961,0.6694214876033058,2.3003762000007555,0.9971784000008483,1e-05,1e-05,0.03334,0.675315500004217,0.7085695999994641,2.000267499999609,,2.3003762000007555,2.3003762000007555,2.5002355000033276,2.3003762000007555,0.0,3.3085657999981777,1.0081895999974222,1.0081895999974222,1.2417,-0.1017655931707057,-0.10721732137627923,,,,None,,-0.233,-0.23140495867768596,0.4128232512712961,0.4049586776859504,trial_list_0.5_red.csv,0.4086087000032421,0.44198730000061914,p14_base2_01,001,2023-05-11_15h29.58.325,expectation_shapes_perceived_time,2022.2.4,119.78529683413163,
,-233,0.5,none,,red,green,,1525.8752116267456,,,,,0,12,12,148,trial,,,,,,red,1.5258752116267456,1.512396694214876,2.299957600000198,0.9964852999983123,3e-05,3e-05,0.03327,1.524988699995447,1.5583107999991626,1.9999777999983053,2.033361399997375,2.299957600000198,2.299957600000198,2.4998119000010774,2.424953599998844,0.12499599999864586,3.049876699995366,0.7499190999951679,0.6249230999965221,1.20781,-0.0897954067382136,-0.11742476265766395,,,,None,,-0.233,-0.23140495867768596,1.2595452116267456,1.2479338842975207,trial_list_0.5_red.csv,1.2582929999989574,1.2916733999954886,p14_base2_01,001,2023-05-11_15h29.58.325,expectation_shapes_perceived_time,2022.2.4,119.78529683413163,
,-33,0.5,none,,red,green,,1122.0000661345307,,,,,0,13,13,336,trial,,,,,,red,1.1220000661345306,1.1074380165289257,2.3000548999989405,0.9986119000022882,3e-05,3e-05,0.03339,1.1166056000001845,1.1499984999973094,1.9997555000009015,2.033220099998289,2.3000548999989405,2.3000548999989405,2.499992899996869,2.3000548999989405,0.0,2.9915958999990835,0.691541000000143,0.691541000000143,1.10242,-0.04674589816924039,-0.14023769450772117,,,,None,,-0.033,-0.03305785123966942,1.0556700661345308,1.0413223140495869,trial_list_0.5_red.csv,1.050180400001409,1.0834121000007144,p14_base2_01,001,2023-05-11_15h29.58.325,expectation_shapes_perceived_time,2022.2.4,119.78529683413163,
,-300,0.5,none,,red,green,,1496.9385574237808,,,,,0,14,14,136,trial,,,,,,red,1.4969385574237808,1.4793388429752066,2.2997432999982266,0.9968183999953908,4e-05,4e-05,,1.4914281999954255,1.5250129999985802,1.9997194999959902,,2.2997432999982266,2.2997432999982266,2.499264799997036,2.2997432999982266,0.0,2.9078845999974874,0.6081412999992608,0.6081412999992608,1.67444,-0.12617560362687252,0.07701627753848063,,,,None,,-0.3,-0.2975206611570248,1.1636085574237809,1.1487603305785123,trial_list_0.5_red.csv,1.1582535999987158,1.1913930000009714,p14_base2_01,001,2023-05-11_15h29.58.325,expectation_shapes_perceived_time,2022.2.4,119.78529683413163,
,167,0.5,none,,green,red,,1517.9798105952873,,,,,0,15,15,417,trial,,,,,,green,1.5179798105952873,1.5041322314049588,2.30018939999718,0.9966281000015442,4e-05,4e-05,0.03327,1.5165758000002825,1.5501680999950622,1.9999661999972886,2.0332741999955033,2.30018939999718,2.30018939999718,2.499871499996516,2.30018939999718,0.0,3.3250216000014916,1.0248322000043117,1.0248322000043117,1.78829,-0.09122779106187441,0.11631543360388988,,,,None,,0.167,0.1652892561983471,1.7183098105952872,1.7024793388429753,trial_list_0.5_red.csv,1.71689730000071,1.749961900000926,p14_base2_01,001,2023-05-11_15h29.58.325,expectation_shapes_perceived_time,2022.2.4,119.78529683413163,
,-33,0.5,none,,green,red,,1518.836712841097,,,,,0,16,16,435,trial,,,,,,green,1.5188367128410971,1.5041322314049588,2.3003005999999004,0.996062999998685,6e-05,6e-05,0.03344,1.5167396000033477,1.5502091000016662,2.0000103000056697,2.033687600000121,2.3003005999999004,2.3003005999999004,2.4999981000000844,2.3003005999999004,0.0,2.9667842000053497,0.6664836000054493,0.6664836000054493,1.71719,-0.11472789525770169,0.09321641489688261,,,,None,,-0.033,-0.03305785123966942,1.4525067128410971,1.43801652892562,trial_list_0.5_red.csv,1.4500049999987823,1.483463100004883,p14_base2_01,001,2023-05-11_15h29.58.325,expectation_shapes_perceived_time,2022.2.4,119.78529683413163,
,233,0.5,none,,red,green,,1121.6972027350826,,,,,0,17,17,222,trial,,,,,,red,1.1216972027350827,1.1074380165289257,2.29966979999881,0.9961067000040202,4e-05,4e-05,,1.116237700000056,1.149971099999675,1.9997039999943809,,2.29966979999881,2.29966979999881,2.4999788999994053,2.425153299998783,0.125483499999973,2.9663508999947226,0.6666810999959125,0.5411975999959395,1.74277,-0.10687502129130819,0.10212502034502782,,,,None,,0.233,0.23140495867768596,1.3880272027350824,1.371900826446281,trial_list_0.5_red.csv,1.3829246999957832,1.4160522999954992,p14_base2_01,001,2023-05-11_15h29.58.325,expectation_shapes_perceived_time,2022.2.4,119.78529683413163,
,33,0.5,none,,red,green,,1524.3509999274463,,,,,0,18,18,180,trial,,,,,,red,1.5243509999274463,1.512396694214876,2.299573700001929,0.9965570999993361,4e-05,4e-05,0.03312,1.524403199997323,1.5575532000002568,1.999967600000673,2.033240400000068,2.299573700001929,2.299573700001929,2.4995904000024893,2.508057999999437,0.20848429999750806,3.808193199998641,1.508619499996712,1.300135199999204,1.87591,-0.05617713354703997,0.1367330231616633,,,,None,,0.033,0.03305785123966942,1.5906809999274463,1.578512396694215,trial_list_0.5_red.csv,1.5910370999990846,1.6242985999997472,p14_base2_01,001,2023-05-11_15h29.58.325,expectation_shapes_perceived_time,2022.2.4,119.78529683413163,
,33,0.5,none,,red,green,,1799.3057040072672,,,,,0,19,19,444,trial,,,,,,red,1.7993057040072673,1.7851239669421488,2.3002037000042037,0.9953672000046936,3e-05,3e-05,0.03372,1.7997131000010995,1.8330659000057494,1.9999563000019407,2.033516300005431,2.3002037000042037,2.3002037000042037,2.5001870000050985,2.5001870000050985,0.19998330000089481,3.2336922000031336,0.9334884999989299,0.7335051999980351,1.76645,-0.09898810942555834,0.1097868122719829,,,,None,,0.033,0.03305785123966942,1.865635704007267,1.8429752066115703,trial_list_0.5_red.csv,1.8585168000063277,1.8917016000050353,p14_base2_01,001,2023-05-11_15h29.58.325,expectation_shapes_perceived_time,2022.2.4,119.78529683413163,
,-300,0.5,none,,red,green,,1717.7371073495233,,,,,0,20,20,34,trial,,,,,,red,1.7177371073495233,1.7024793388429753,2.299357500000042,0.9962369999993825,4e-05,4e-05,0.03331,1.716346400004113,1.7497784000006504,2.000069200003054,2.033175600001414,2.299357500000042,2.299357500000042,2.4993258000031346,2.441011900002195,0.14165440000215312,3.0249230999979773,0.7255655999979354,0.5839111999957822,1.22959,-0.09761317988870644,-0.11101106732441124,,,,None,,-0.3,-0.2975206611570248,1.3844071073495234,1.371900826446281,trial_list_0.5_red.csv,1.3833335000017541,1.4164337000038358,p14_base2_01,001,2023-05-11_15h29.58.325,expectation_shapes_perceived_time,2022.2.4,119.78529683413163,
,167,0.5,none,,red,green,,1509.1582187633553,,,,,0,21,21,322,trial,,,,,,red,1.5091582187633552,1.4958677685950414,2.2998159999988275,0.9958123000033083,4e-05,4e-05,0.03329,1.5084263999960967,1.541560899997421,2.0000134999936563,2.033360299996275,2.2998159999988275,2.2998159999988275,2.4998153999986243,2.433520699996734,0.13370469999790657,3.1998819000000367,0.9000659000012092,0.7663612000033027,1.65284,-0.13110675253332169,0.06828476694443839,,,,None,,0.167,0.1652892561983471,1.7094882187633553,1.694214876033058,trial_list_0.5_red.csv,1.7083997999943676,1.7416529999973136,p14_base2_01,001,2023-05-11_15h29.58.325,expectation_shapes_perceived_time,2022.2.4,119.78529683413163,
,100,0.5,none,,green,red,,1447.854214846294,,,,,0,22,22,59,trial,,,,,,green,1.447854214846294,1.4297520661157026,2.3001094999999623,0.9963177000026917,4e-05,4e-05,0.03333,1.4416559000019333,1.475051599998551,2.000118299998576,2.033140200001071,2.3001094999999623,2.3001094999999623,2.5000350999980583,2.5750116999988677,0.2749021999989054,3.2665440999990096,0.9664345999990474,0.6915324000001419,1.80691,-0.08427145514855068,0.12145003830232304,,,,None,,0.1,0.09917355371900827,1.581184214846294,1.5619834710743803,trial_list_0.5_red.csv,1.5750994999980321,1.608391900001152,p14_base2_01,001,2023-05-11_15h29.58.325,expectation_shapes_perceived_time,2022.2.4,119.78529683413163,
,-300,0.5,none,,red,green,,1567.754940476172,,,,,0,23,23,20,trial,,,,,,red,1.567754940476172,1.553719008264463,2.3004596999962814,0.9956663999982993,2e-05,2e-05,,1.566831700001785,1.600194400001783,2.0001541000019643,,2.3004596999962814,2.3004596999962814,2.5002319999985048,2.5103862000032677,0.20992650000698632,3.750192999999854,1.4497333000035724,1.239806799996586,1.60365,-0.14005474362373732,0.04729121213269052,,,,None,,-0.3,-0.2975206611570248,1.234424940476172,1.2231404958677685,trial_list_0.5_red.csv,1.2336540000032983,1.266893699998036,p14_base2_01,001,2023-05-11_15h29.58.325,expectation_shapes_perceived_time,2022.2.4,119.78529683413163,
,-167,0.5,none,,green,red,,670.2939719235442,,,,,0,24,24,95,trial,,,,,,green,0.6702939719235442,0.6611570247933884,2.2996921000012662,0.9964120000004186,4e-05,4e-05,,0.6662542999983998,0.6999458999998751,1.999867999998969,,2.2996921000012662,2.2996921000012662,2.49979020000319,2.6747740999999223,0.3750819999986561,4.074619999999413,1.774927899998147,1.399845899999491,0.75,0.1045270059757045,-0.1045270059757045,,,,None,,-0.167,-0.1652892561983471,0.46996397192354417,0.4628099173553719,trial_list_0.5_red.csv,0.46621759999834467,0.4997277000002214,p14_base2_01,001,2023-05-11_15h29.58.325,expectation_shapes_perceived_time,2022.2.4,119.78529683413163,
,-167,0.5,none,,green,red,,872.5267376353274,0,0,0,0,0,25,25,319,fam,0.5411733000000822,0.5411733000000822,270.0,2.5411632000032114,2.5411632000032114,,,,,,,,,,,,,,,,,,,,,,,,,,,,,,,,,,,,p14_base2_01,001,2023-05-11_15h29.58.325,expectation_shapes_perceived_time,2022.2.4,119.78529683413163,
,-167,0.5,none,,green,red,,872.5267376353274,1,0,1,0,0,25,25,319,fam,0.49759110000013607,0.49759110000013607,270.0,2.497557099995902,2.497557099995902,,,,,,,,,,,,,,,,,,,,,,,,,,,,,,,,,,,,p14_base2_01,001,2023-05-11_15h29.58.325,expectation_shapes_perceived_time,2022.2.4,119.78529683413163,
,-167,0.5,none,,green,red,,872.5267376353274,2,0,2,0,0,25,25,319,fam,0.4975572999974247,0.4975572999974247,270.0,2.4973895000002813,2.4973895000002813,,,,,,,,,,,,,,,,,,,,,,,,,,,,,,,,,,,,p14_base2_01,001,2023-05-11_15h29.58.325,expectation_shapes_perceived_time,2022.2.4,119.78529683413163,
,-167,0.5,none,,green,red,,872.5267376353274,3,0,3,0,0,25,25,319,fam,0.49730739999358775,0.49730739999358775,270.0,2.4979036999939126,2.4979036999939126,,,,,,,,,,,,,,,,,,,,,,,,,,,,,,,,,,,,p14_base2_01,001,2023-05-11_15h29.58.325,expectation_shapes_perceived_time,2022.2.4,119.78529683413163,
,-167,0.5,none,,green,red,,872.5267376353274,,,,,0,25,25,319,trial,,,,,,green,0.8725267376353274,0.8677685950413223,2.30000740000105,0.9984778999933042,3e-05,3e-05,,0.875430599997344,0.9088585999998031,1.9999768999987282,,2.30000740000105,2.30000740000105,2.4999830999950063,2.30000740000105,0.0,3.2332555999964825,0.9332481999954325,0.9332481999954325,0.73073,0.11065893195225744,-0.09801219687199945,,,,None,,-0.167,-0.1652892561983471,0.6721967376353274,0.6694214876033058,trial_list_0.5_red.csv,0.6752520000009099,0.7086676999970223,p14_base2_01,001,2023-05-11_15h29.58.325,expectation_shapes_perceived_time,2022.2.4,119.78529683413163,
,300,0.5,none,,red,green,,1028.6599833148946,,,,,0,26,26,68,trial,,,,,,red,1.0286599833148946,1.0165289256198347,2.2999941000016406,0.9960320000027423,3e-05,3e-05,0.03357,1.0249196000004304,1.0583800000022165,1.9999638000008417,2.0335418000031495,2.2999941000016406,2.2999941000016406,2.5000161999996635,2.6749661000067135,0.3749720000050729,4.482980200002203,2.182986100000562,1.8080140999954892,1.15254,-0.06815828603685495,-0.13117255048602275,,,,None,,0.3,0.2975206611570248,1.3619899833148945,1.3471074380165289,trial_list_0.5_red.csv,1.3585244000059902,1.3916722000067239,p14_base2_01,001,2023-05-11_15h29.58.325,expectation_shapes_perceived_time,2022.2.4,119.78529683413163,
,300,0.5,none,,green,red,,730.4728639136322,,,,,0,27,27,463,trial,,,,,,green,0.7304728639136322,0.71900826446281,2.3001606999969226,0.9985604000030435,3e-05,3e-05,0.03313,0.7249073999992106,0.7582017999957316,1.9999487999957637,2.0333036000010907,2.3001606999969226,2.3001606999969226,2.5002534999948693,2.724782299999788,0.4246216000028653,3.3747292999978526,1.07456860000093,0.6499469999980647,1.65924,-0.129707455010103,0.07090674207218964,,,,None,,0.3,0.2975206611570248,1.063802863913632,1.0495867768595042,trial_list_0.5_red.csv,1.0581371000007493,1.0918381999945268,p14_base2_01,001,2023-05-11_15h29.58.325,expectation_shapes_perceived_time,2022.2.4,119.78529683413163,
,233,0.5,none,,red,green,,1082.7015515328424,,,,,0,28,28,244,trial,,,,,,red,1.0827015515328424,1.0743801652892562,2.300019499998598,0.9966067000059411,3e-05,3e-05,0.03322,1.0835205000039423,1.1167400999984238,2.0000204000025406,2.033291600004304,2.300019499998598,2.300019499998598,2.4999219000019366,2.300019499998598,0.0,3.1415529000005336,0.8415334000019357,0.8415334000019357,1.69462,-0.12104308399743886,0.08485494548274064,,,,None,,0.233,0.23140495867768596,1.3490315515328424,1.3388429752066116,trial_list_0.5_red.csv,1.3498726000034367,1.3834130000032019,p14_base2_01,001,2023-05-11_15h29.58.325,expectation_shapes_perceived_time,2022.2.4,119.78529683413163,
,-300,0.5,none,,green,red,,1568.6575691275757,,,,,0,29,29,341,trial,,,,,,green,1.5686575691275757,1.553719008264463,2.2998732999985805,0.9963321999966865,3e-05,3e-05,0.03324,1.5665871000019251,1.5998997999995481,1.9999137999984669,2.0333668000021135,2.2998732999985805,2.2998732999985805,2.499910999998974,2.3915873000005377,0.09171400000195717,3.3583224000030896,1.058449100004509,0.9667351000025519,1.16249,-0.07222706474174563,-0.12897690132454576,,,,None,,-0.3,-0.2975206611570248,1.2353275691275758,1.2231404958677685,trial_list_0.5_red.csv,1.2335269000031985,1.266854900000908,p14_base2_01,001,2023-05-11_15h29.58.325,expectation_shapes_perceived_time,2022.2.4,119.78529683413163,
,-300,0.5,none,,red,green,,885.4852901396116,,,,,0,30,30,426,trial,,,,,,red,0.8854852901396116,0.8760330578512396,2.2997634999992442,0.99644690000423,3e-05,3e-05,0.0334,0.8833777999971062,0.9167098999969312,1.9998178000023472,2.0331555000011576,2.2997634999992442,2.2997634999992442,2.4997466999993776,2.3082330000033835,0.008469500004139263,2.983213599996816,0.6834500999975717,0.6749805999934324,1.61932,-0.13755952478724465,0.05412178024416183,,,,None,,-0.3,-0.2975206611570248,0.5521552901396116,0.5454545454545454,trial_list_0.5_red.csv,0.5499764999985928,0.5832635999977356,p14_base2_01,001,2023-05-11_15h29.58.325,expectation_shapes_perceived_time,2022.2.4,119.78529683413163,
,233,0.5,none,,green,red,,282.66781721547994,,,,,0,31,31,181,trial,,,,,,green,0.28266781721547996,0.2809917355371901,2.2994476000021677,0.9964330999937374,3e-05,3e-05,0.03311,0.28338340000482276,0.31671490000007907,2.000218599998334,2.03313970000454,2.2994476000021677,2.2994476000021677,2.5000666999985697,2.2994476000021677,0.0,3.174707300000591,0.8752596999984235,0.8752596999984235,1.7586,-0.10166482748376286,0.107312873455083,,,,None,,0.233,0.23140495867768596,0.54899781721548,0.5454545454545454,trial_list_0.5_red.csv,0.5500092000002041,0.5832611000005272,p14_base2_01,001,2023-05-11_15h29.58.325,expectation_shapes_perceived_time,2022.2.4,119.78529683413163,
,-33,0.5,none,,green,red,,827.0879245820278,,,,,0,32,32,287,trial,,,,,,green,0.8270879245820277,0.8181818181818182,2.2997445999935735,0.9974108999958844,5e-05,5e-05,,0.825067300000228,0.8583404999953927,1.9997158999976818,,2.2997445999935735,2.2997445999935735,2.499407399998745,2.2997445999935735,0.0,3.0991297000000486,0.7993851000064751,0.7993851000064751,1.20066,-0.08713738666909912,-0.11941049284283953,,,,None,,-0.033,-0.03305785123966942,0.7607579245820277,0.7520661157024794,trial_list_0.5_red.csv,0.7583559999984573,0.7913963999963016,p14_base2_01,001,2023-05-11_15h29.58.325,expectation_shapes_perceived_time,2022.2.4,119.78529683413163,
,167,0.5,none,,red,green,,936.0647440324414,,,,,0,33,33,52,trial,,,,,,red,0.9360647440324413,0.9256198347107438,2.299975000001723,0.9982116999963182,3e-05,3e-05,,0.9334226999999373,0.9666970999969635,1.999934999999823,,2.299975000001723,2.299975000001723,2.4998995999994804,2.299975000001723,0.0,3.450188499999058,1.150213499997335,1.150213499997335,1.55137,-0.14590287852843037,0.023751631388349133,,,,None,,0.167,0.1652892561983471,1.1363947440324413,1.1239669421487604,trial_list_0.5_red.csv,1.133281900001748,1.166880199998559,p14_base2_01,001,2023-05-11_15h29.58.325,expectation_shapes_perceived_time,2022.2.4,119.78529683413163,
,100,0.5,none,,green,red,,1117.08464638165,,,,,0,34,34,173,trial,,,,,,green,1.11708464638165,1.1074380165289257,2.3002567999938037,0.9963252000015927,3e-05,3e-05,,1.116872999999032,1.1503707999945618,2.000223899995035,,2.3002567999938037,2.3002567999938037,2.5009921999953804,2.5699690999972518,0.26971230000344804,3.0749192999937804,0.7746624999999767,0.5049501999965287,1.66112,-0.12928722885718405,0.0716700942577868,,,,None,,0.1,0.09917355371900827,1.25041464638165,1.2396694214876034,trial_list_0.5_red.csv,1.2500112999987323,1.283536599999934,p14_base2_01,001,2023-05-11_15h29.58.325,expectation_shapes_perceived_time,2022.2.4,119.78529683413163,
,-167,0.5,none,,green,red,,507.0490698098407,,,,,0,35,35,317,trial,,,,,,green,0.5070490698098408,0.5041322314049587,2.299689799998305,0.9974254999979166,3e-05,3e-05,0.03335,0.5077668999947491,0.5411118999982136,1.999818599993887,2.033337799999572,2.299689799998305,2.299689799998305,2.4999143999957596,2.299689799998305,0.0,3.141584099997999,0.8418942999996943,0.8418942999996943,0.6511,0.13147885736320233,-0.06756552392275675,,,,None,,-0.167,-0.1652892561983471,0.3067190698098407,0.30578512396694213,trial_list_0.5_red.csv,0.3080606000003172,0.3412224999992759,p14_base2_01,001,2023-05-11_15h29.58.325,expectation_shapes_perceived_time,2022.2.4,119.78529683413163,
,100,0.5,none,,red,green,,689.566929659055,,,,,0,36,36,232,trial,,,,,,red,0.689566929659055,0.6859504132231405,2.299873900003149,0.9974839999995311,3e-05,3e-05,0.03337,0.6919000999987475,0.7251819000011892,2.0001086999982363,2.0336329999990994,2.299873900003149,2.299873900003149,2.5001275000031455,2.299873900003149,0.0,3.375108000000182,1.075234099997033,1.075234099997033,1.59309,-0.14154728381707976,0.042616386525572404,,,,None,,0.1,0.09917355371900827,0.822896929659055,0.8181818181818182,trial_list_0.5_red.csv,0.8251517999960924,0.8584098999999696,p14_base2_01,001,2023-05-11_15h29.58.325,expectation_shapes_perceived_time,2022.2.4,119.78529683413163,
,-233,0.5,none,,red,green,,1378.928151798883,,,,,0,37,37,18,trial,,,,,,red,1.378928151798883,1.3636363636363638,2.2998901000028127,0.9974434999967343,4e-05,4e-05,0.03302,1.37484509999922,1.4080936000027577,1.9992118000009214,2.0326875999962795,2.2998901000028127,2.2998901000028127,2.4999196999997366,2.4414678999964963,0.14157779999368358,3.3413658999998006,1.041475799996988,0.8998980000033043,1.71516,-0.1153192911795653,0.09248378797569098,,,,None,,-0.233,-0.23140495867768596,1.112598151798883,1.0991735537190084,trial_list_0.5_red.csv,1.1080953999990015,1.1415722000019741,p14_base2_01,001,2023-05-11_15h29.58.325,expectation_shapes_perceived_time,2022.2.4,119.78529683413163,
,-33,0.5,none,,green,red,,1145.737431854342,,,,,0,38,38,91,trial,,,,,,green,1.145737431854342,1.1322314049586777,2.2999760000020615,0.9965873999972246,3e-05,3e-05,0.0335,1.1419822000025306,1.1750317000041832,2.0000287000002572,2.0333791000011843,2.2999760000020615,2.2999760000020615,2.4996721999996225,2.308539000005112,0.008563000003050547,3.533276599999226,1.2333005999971647,1.2247375999941141,1.6339,-0.1349359975171565,0.0603661041524121,,,,None,,-0.033,-0.03305785123966942,1.079407431854342,1.0661157024793388,trial_list_0.5_red.csv,1.0751289000036195,1.1085309000045527,p14_base2_01,001,2023-05-11_15h29.58.325,expectation_shapes_perceived_time,2022.2.4,119.78529683413163,
,100,0.5,none,,red,green,,1154.5677771274004,,,,,0,39,39,230,trial,,,,,,red,1.1545677771274003,1.140495867768595,2.2997612000035588,0.9977610999994795,3e-05,3e-05,0.03343,1.1500441000025603,1.183237500001269,1.9999172000025283,2.033438799997384,2.2997612000035588,2.2997612000035588,2.49969720000081,2.2997612000035588,0.0,3.1410516999967513,0.8412904999931925,0.8412904999931925,1.70953,-0.11693622830017487,0.0904306832188019,,,,None,,0.1,0.09917355371900827,1.2878977771274003,1.2727272727272727,trial_list_0.5_red.csv,1.283131099997263,1.3163583999994444,p14_base2_01,001,2023-05-11_15h29.58.325,expectation_shapes_perceived_time,2022.2.4,119.78529683413163,
,-300,0.5,none,,red,green,,775.5389451316632,,,,,0,40,40,482,trial,,,,,,red,0.7755389451316632,0.768595041322314,2.2999141000036616,0.9983550999968429,6e-05,6e-05,,0.7748782000053325,0.8081944000005024,1.9999322000003303,,2.2999141000036616,2.2999141000036616,2.4999036000008346,2.533231200002774,0.23331709999911254,4.049550300005649,1.7496362000019872,1.5163191000028746,1.42028,-0.14321181577452496,-0.03663558077952964,,,,None,,-0.3,-0.2975206611570248,0.44220894513166326,0.4380165289256198,trial_list_0.5_red.csv,0.4415439000003971,0.47497540000040317,p14_base2_01,001,2023-05-11_15h29.58.325,expectation_shapes_perceived_time,2022.2.4,119.78529683413163,
,-100,0.5,none,,green,red,,618.864834413556,,,,,0,41,41,35,trial,,,,,,green,0.618864834413556,0.6115702479338843,2.2998492999977316,0.9983145000005607,4e-05,4e-05,,0.6165992999958689,0.6501423000008799,1.9999066000018502,,2.2998492999977316,2.2998492999977316,2.4998128000006545,2.2998492999977316,0.0,3.2914796999975806,0.991630399999849,0.991630399999849,0.76515,0.09943685314367914,-0.10938053845804704,,,,None,,-0.1,-0.09917355371900827,0.485534834413556,0.4793388429752066,trial_list_0.5_red.csv,0.48329630000080215,0.5167270000019926,p14_base2_01,001,2023-05-11_15h29.58.325,expectation_shapes_perceived_time,2022.2.4,119.78529683413163,
,-100,0.5,none,,green,red,,1035.340887520415,,,,,0,42,42,431,trial,,,,,,green,1.035340887520415,1.0247933884297522,2.300081700006558,0.9958781000023009,3e-05,3e-05,,1.0331974000000628,1.06642180000199,1.9997877000059816,,2.300081700006558,2.300081700006558,2.499588800004858,2.300081700006558,0.0,3.21635430000606,0.9162725999995018,0.9162725999995018,1.63055,-0.13556451415904652,0.05894109311262893,,,,None,,-0.1,-0.09917355371900827,0.9020108875204149,0.8925619834710744,trial_list_0.5_red.csv,0.8996746000048006,0.9331863000043086,p14_base2_01,001,2023-05-11_15h29.58.325,expectation_shapes_perceived_time,2022.2.4,119.78529683413163,
,233,0.5,none,,green,red,,718.0757334461382,,,,,0,43,43,167,trial,,,,,,green,0.7180757334461382,0.7107438016528926,2.3002387000015005,0.996575599994685,3e-05,3e-05,0.03329,0.7168000000019674,0.7500046999994083,2.0002349999995204,2.033623700001044,2.3002387000015005,2.3002387000015005,2.499962100002449,2.3086125000045286,0.008373800003028009,3.166584900005546,0.8663462000040454,0.8579724000010174,1.10655,-0.04856307171705551,-0.1396188311865346,,,,None,,0.233,0.23140495867768596,0.9844057334461382,0.975206611570248,trial_list_0.5_red.csv,0.9835535000020172,1.0165641000057803,p14_base2_01,001,2023-05-11_15h29.58.325,expectation_shapes_perceived_time,2022.2.4,119.78529683413163,
,300,0.5,none,,green,red,,867.6130566762281,,,,,0,44,44,19,trial,,,,,,green,0.8676130566762281,0.859504132231405,2.300153299998783,0.9964454000000842,3e-05,3e-05,0.03327,0.8668439000030048,0.9003048000013223,1.9998791999969399,2.033417400001781,2.300153299998783,2.300153299998783,2.499912300001597,2.308586099999957,0.008432800001173746,3.0748337999975774,0.7746804999987944,0.7662476999976207,1.29985,-0.11955020622893084,-0.08694560453013153,,,,None,,0.3,0.2975206611570248,1.200943056676228,1.1900826446280992,trial_list_0.5_red.csv,1.1996099000025424,1.2328971000024467,p14_base2_01,001,2023-05-11_15h29.58.325,expectation_shapes_perceived_time,2022.2.4,119.78529683413163,
,233,0.5,none,,red,green,,446.5830103934925,,,,,0,45,45,298,trial,,,,,,red,0.44658301039349246,0.4380165289256198,2.299575899996853,0.9965211000017007,3e-05,3e-05,,0.441735599997628,0.47522659999958705,2.0000705999991624,,2.299575899996853,2.299575899996853,2.5000304999994114,2.299575899996853,0.0,4.066843199994764,1.7672672999979113,1.7672672999979113,1.11967,-0.05427584573016366,-0.1374988091830813,,,,None,,0.233,0.23140495867768596,0.7129130103934925,0.7024793388429752,trial_list_0.5_red.csv,0.7084365999980946,0.7417507999998634,p14_base2_01,001,2023-05-11_15h29.58.325,expectation_shapes_perceived_time,2022.2.4,119.78529683413163,
,300,0.5,none,,red,green,,1184.92096282579,,,,,0,46,46,104,trial,,,,,,red,1.18492096282579,1.1735537190082646,2.299763700000767,0.9972682000006898,4e-05,4e-05,0.03345,1.183476400001382,1.2170814000055543,1.9996698000031756,2.033107300005213,2.299763700000767,2.299763700000767,2.5000872000018717,2.624889600003371,0.3251259000026039,3.1248709999999846,0.8251072999992175,0.4999813999966136,1.10842,-0.04938310303023802,-0.1393308978353144,,,,None,,0.3,0.2975206611570248,1.5182509628257899,1.5041322314049588,trial_list_0.5_red.csv,1.5170485000053304,1.5503500000049826,p14_base2_01,001,2023-05-11_15h29.58.325,expectation_shapes_perceived_time,2022.2.4,119.78529683413163,
,33,0.5,none,,red,green,,1630.4704757092738,,,,,0,47,47,106,trial,,,,,,red,1.6304704757092738,1.6115702479338843,2.2998787999968044,0.9967552999951295,5e-05,5e-05,,1.6250254999977187,1.6581718000015826,1.9999658000015188,,2.2998787999968044,2.2998787999968044,2.500779900001362,2.483089100001962,0.18321030000515748,3.174330900001223,0.8744521000044188,0.6912417999992613,1.76973,-0.0978508161394749,0.11080165945205245,,,,None,,0.033,0.03305785123966942,1.6968004757092738,1.677685950413223,trial_list_0.5_red.csv,1.691569900001923,1.7248149000006379,p14_base2_01,001,2023-05-11_15h29.58.325,expectation_shapes_perceived_time,2022.2.4,119.78529683413163,
,-300,0.5,none,,green,red,,987.7438944041012,,,,,0,48,48,175,trial,,,,,,green,0.9877438944041012,0.975206611570248,2.2999995999998646,0.9908681999950204,4e-05,4e-05,0.0332,0.9832112999938545,1.0164690999954473,1.9999314999950002,2.0330725999956485,2.2999995999998646,2.2999995999998646,2.499736199999461,2.349851099999796,0.04985149999993155,2.8662703999943915,0.5662707999945269,0.5164192999945953,0.68347,0.12394167786693444,-0.08056209061350739,,,,None,,-0.3,-0.2975206611570248,0.6544138944041011,0.6446280991735538,trial_list_0.5_red.csv,0.6498925999985659,0.6833574999982375,p14_base2_01,001,2023-05-11_15h29.58.325,expectation_shapes_perceived_time,2022.2.4,119.78529683413163,
,167,0.5,none,,green,red,,224.2022734683112,,,,,0,49,49,347,trial,,,,,,green,0.2242022734683112,0.2231404958677686,2.3004609999989043,0.997034200001508,2e-05,2e-05,0.03335,0.22568820000014966,0.2590457000042079,2.0006179999982123,2.0341508999990765,2.3004609999989043,2.3004609999989043,2.500713400004315,2.3004609999989043,0.0,3.0503647000005003,0.749903700001596,0.749903700001596,1.14758,-0.0661086831762514,-0.1322173663525028,,,,None,,0.167,0.1652892561983471,0.4245322734683112,0.42148760330578516,trial_list_0.5_red.csv,0.4252573999983724,0.4588050000020303,p14_base2_01,001,2023-05-11_15h29.58.325,expectation_shapes_perceived_time,2022.2.4,119.78529683413163,
,33,0.5,none,,red,green,,217.65943018127217,0,0,0,0,0,50,50,204,fam,0.5565955999991274,0.5565955999991274,270.0,2.5567549999977928,2.5567549999977928,,,,,,,,,,,,,,,,,,,,,,,,,,,,,,,,,,,,p14_base2_01,001,2023-05-11_15h29.58.325,expectation_shapes_perceived_time,2022.2.4,119.78529683413163,
,33,0.5,none,,red,green,,217.65943018127217,1,0,1,0,0,50,50,204,fam,0.4975687000041944,0.4975687000041944,270.0,2.4976464999999735,2.4976464999999735,,,,,,,,,,,,,,,,,,,,,,,,,,,,,,,,,,,,p14_base2_01,001,2023-05-11_15h29.58.325,expectation_shapes_perceived_time,2022.2.4,119.78529683413163,
,33,0.5,none,,red,green,,217.65943018127217,2,0,2,0,0,50,50,204,fam,0.49706960000185063,0.49706960000185063,270.0,2.497192000002542,2.497192000002542,,,,,,,,,,,,,,,,,,,,,,,,,,,,,,,,,,,,p14_base2_01,001,2023-05-11_15h29.58.325,expectation_shapes_perceived_time,2022.2.4,119.78529683413163,
,33,0.5,none,,red,green,,217.65943018127217,3,0,3,0,0,50,50,204,fam,0.4974432000017259,0.4974432000017259,270.0,2.497785899999144,2.497785899999144,,,,,,,,,,,,,,,,,,,,,,,,,,,,,,,,,,,,p14_base2_01,001,2023-05-11_15h29.58.325,expectation_shapes_perceived_time,2022.2.4,119.78529683413163,
,33,0.5,none,,red,green,,217.65943018127217,,,,,0,50,50,204,trial,,,,,,red,0.21765943018127218,0.21487603305785125,2.300047099997755,0.998214300001564,3e-05,3e-05,0.03326,0.21674379999603843,0.25008420000085607,2.000282499997411,2.0334141999992426,2.300047099997755,2.300047099997755,2.500103099999251,2.333750099998724,0.03370300000096904,3.1835582999992766,0.8835112000015215,0.8498082000005525,0.31187,0.12274755303036229,0.082370068480901,,,,None,,0.033,0.03305785123966942,0.28398943018127215,0.2809917355371901,trial_list_0.5_red.csv,0.2836249999963911,0.3169800999967265,p14_base2_01,001,2023-05-11_15h29.58.325,expectation_shapes_perceived_time,2022.2.4,119.78529683413163,
,-100,0.5,none,,green,red,,343.0087953595006,,,,,0,51,51,235,trial,,,,,,green,0.3430087953595006,0.33884297520661155,2.2998521000045002,0.9954484999980195,3e-05,3e-05,0.03308,0.34111770000163233,0.3743724000014481,1.9998964000042179,2.0332336999999825,2.2998521000045002,2.2998521000045002,2.5000313999989885,2.3829374000051757,0.08308530000067549,3.1580570000005537,0.8582048999960534,0.7751195999953779,0.52413,0.14739899948757065,-0.011194860720574986,,,,None,,-0.1,-0.09917355371900827,0.20967879535950062,0.2066115702479339,trial_list_0.5_red.csv,0.20807000000058906,0.24127489999955287,p14_base2_01,001,2023-05-11_15h29.58.325,expectation_shapes_perceived_time,2022.2.4,119.78529683413163,
,300,0.5,none,,green,red,,1067.8333685067714,,,,,0,52,52,245,trial,,,,,,green,1.0678333685067714,1.0578512396694215,2.300028800003929,0.9967528999986826,3e-05,3e-05,0.03321,1.066655399998126,1.0999030000020866,1.9999420000021928,2.033225200000743,2.300028800003929,2.300028800003929,2.5001046000033966,2.300028800003929,0.0,3.1833385999998427,0.8833097999959136,0.8833097999959136,1.13552,-0.06105183648442179,-0.1346271266066737,,,,None,,0.3,0.2975206611570248,1.4011633685067713,1.3884297520661157,trial_list_0.5_red.csv,1.3995091000033426,1.4328299999979208,p14_base2_01,001,2023-05-11_15h29.58.325,expectation_shapes_perceived_time,2022.2.4,119.78529683413163,
,-300,0.5,none,,red,green,,616.4479996722159,,,,,0,53,53,126,trial,,,,,,red,0.616447999672216,0.6115702479338843,2.3001461000021663,0.9975273000018205,4e-05,4e-05,,0.616756000003079,0.6501706000053673,1.9997423000022536,,2.3001461000021663,2.3001461000021663,2.5000698000003467,2.441629799999646,0.14148369999747956,3.183250499998394,0.8831043999962276,0.741620699998748,1.16401,-0.0728397422541239,-0.1286318852572826,,,,None,,-0.3,-0.2975206611570248,0.28311799967221596,0.2809917355371901,trial_list_0.5_red.csv,0.2834166000029654,0.3166787000009208,p14_base2_01,001,2023-05-11_15h29.58.325,expectation_shapes_perceived_time,2022.2.4,119.78529683413163,
,33,0.5,none,,green,red,,1222.2259191643357,,,,,0,54,54,263,trial,,,,,,green,1.2222259191643357,1.2066115702479339,2.300003199998173,0.9964684000005946,3e-05,3e-05,0.03314,1.216637700003048,1.2499580000003334,2.000138000003062,2.0333781000008457,2.300003199998173,2.300003199998173,2.499972500001604,2.3833586999971885,0.08335549999901559,3.308261099999072,1.008257900000899,0.9249024000018835,1.43448,-0.14470307828221113,-0.030212730630351774,,,,None,,0.033,0.03305785123966942,1.2885559191643357,1.2727272727272727,trial_list_0.5_red.csv,1.2834386999966227,1.3168584000013652,p14_base2_01,001,2023-05-11_15h29.58.325,expectation_shapes_perceived_time,2022.2.4,119.78529683413163,
,-167,0.5,none,,red,green,,1027.9618939096017,,,,,0,55,55,258,trial,,,,,,red,1.0279618939096018,1.0165289256198347,2.299846100002469,0.9964820999957738,3e-05,3e-05,,1.0249907000034,1.0582809999978053,1.9998715999972774,,2.299846100002469,2.299846100002469,2.499883900003624,2.308144299997366,0.008298199994897004,3.4161987000043155,1.1163526000018464,1.1080544000069494,1.18299,-0.0803777475657856,-0.12406130602545166,,,,None,,-0.167,-0.1652892561983471,0.8276318939096017,0.8181818181818182,trial_list_0.5_red.csv,0.8250182999981917,0.8583566000015708,p14_base2_01,001,2023-05-11_15h29.58.325,expectation_shapes_perceived_time,2022.2.4,119.78529683413163,
,300,0.5,none,,red,green,,1375.0574095697823,,,,,0,56,56,410,trial,,,,,,red,1.3750574095697823,1.3636363636363638,2.2996497999993153,0.9965442000029725,3e-05,3e-05,0.03321,1.3752967999971588,1.4085668999978225,1.9999373000027845,2.03319239999837,2.2996497999993153,2.2996497999993153,2.4997861000010744,2.2996497999993153,0.0,2.874747699999716,0.5750979000004008,0.5750979000004008,1.13514,-0.060891628932683774,-0.1346996640026035,,,,None,,0.3,0.2975206611570248,1.7083874095697822,1.694214876033058,trial_list_0.5_red.csv,1.7086109000010765,1.7417275999978301,p14_base2_01,001,2023-05-11_15h29.58.325,expectation_shapes_perceived_time,2022.2.4,119.78529683413163,
,167,0.5,none,,red,green,,1199.5532519902572,,,,,0,57,57,170,trial,,,,,,red,1.1995532519902572,1.1900826446280992,2.3164249999972526,0.9974273999978323,3e-05,3e-05,0.03338,1.2003705000024638,1.2334775999988778,2.000368900000467,2.033539500000188,2.3164249999972526,2.3164249999972526,2.5167030000011437,2.3164249999972526,0.0,3.0084560999966925,0.6920310999994399,0.6920310999994399,1.34198,-0.1299800243555165,-0.07040584652590479,,,,None,,0.167,0.1652892561983471,1.399883251990257,1.3884297520661157,trial_list_0.5_red.csv,1.400249199999962,1.4334528999970644,p14_base2_01,001,2023-05-11_15h29.58.325,expectation_shapes_perceived_time,2022.2.4,119.78529683413163,
,33,0.5,none,,red,green,,168.03455478076077,,,,,0,58,58,182,trial,,,,,,red,0.16803455478076076,0.1652892561983471,2.3004412000009324,0.9971564000006765,3e-05,3e-05,,0.1669627999945078,0.2004162000012002,2.00033429999894,,2.3004412000009324,2.3004412000009324,2.5001521999947727,2.3004412000009324,0.0,3.2169533999986015,0.9165121999976691,0.9165121999976691,0.65131,0.13143517590043524,-0.06765045818404755,,,,None,,0.033,0.03305785123966942,0.2343645547807608,0.23140495867768596,trial_list_0.5_red.csv,0.23350489999575075,0.2669760999997379,p14_base2_01,001,2023-05-11_15h29.58.325,expectation_shapes_perceived_time,2022.2.4,119.78529683413163,
,-100,0.5,none,,red,green,,1504.230950506496,,,,,0,59,59,94,trial,,,,,,red,1.504230950506496,1.487603305785124,2.2996323999977903,0.9963296999994782,3e-05,3e-05,0.03357,1.5000804000010248,1.5333852999974624,1.9998599999962607,2.033110199998191,2.2996323999977903,2.2996323999977903,2.500199199996132,2.2996323999977903,0.0,3.3081912999987253,1.008558900000935,1.008558900000935,1.56134,-0.14508738383984227,0.028309733432164346,,,,None,,-0.1,-0.09917355371900827,1.370900950506496,1.3553719008264462,trial_list_0.5_red.csv,1.3668345999976736,1.4001868999985163,p14_base2_01,001,2023-05-11_15h29.58.325,expectation_shapes_perceived_time,2022.2.4,119.78529683413163,
,33,0.5,none,,red,green,,480.8158662403499,,,,,0,60,60,242,trial,,,,,,red,0.48081586624034994,0.4793388429752066,2.3000600000013947,0.9966477999987546,4e-05,4e-05,0.03342,0.4832708999965689,0.5167070000024978,2.0001179999962915,2.033322600000247,2.3000600000013947,2.3000600000013947,2.499943099996017,2.3082357000021148,0.008175700000720099,3.5582933999976376,1.258233399996243,1.2500576999955229,1.67781,-0.12535408533544046,0.07834630333465029,,,,None,,0.033,0.03305785123966942,0.54714586624035,0.5454545454545454,trial_list_0.5_red.csv,0.550030099999276,0.5836101999957464,p14_base2_01,001,2023-05-11_15h29.58.325,expectation_shapes_perceived_time,2022.2.4,119.78529683413163,
,33,0.5,none,,red,green,,780.8548306049154,,,,,0,61,61,216,trial,,,,,,red,0.7808548306049153,0.7768595041322315,2.300059400004102,0.9973595999981626,3e-05,3e-05,0.03342,0.783537700001034,0.8166542000035406,2.0000664000035613,2.033384100002877,2.300059400004102,2.300059400004102,2.500102500001958,2.300059400004102,0.0,4.208421100003761,1.9083616999996593,1.9083616999996593,1.34502,-0.1306446314349421,-0.06916480487732228,,,,None,,0.033,0.03305785123966942,0.8471848306049155,0.8347107438016529,trial_list_0.5_red.csv,0.8415519000045606,0.8749515000017709,p14_base2_01,001,2023-05-11_15h29.58.325,expectation_shapes_perceived_time,2022.2.4,119.78529683413163,
,-300,0.5,none,,green,red,,822.9511610948607,,,,,0,62,62,261,trial,,,,,,green,0.8229511610948607,0.8181818181818182,2.3002135999995517,0.9973348999992595,3e-05,3e-05,0.03344,0.825060700000904,0.8583400999996229,2.0000318000020343,2.033587300000363,2.3002135999995517,2.3002135999995517,2.5000427000049967,2.308464699999604,0.008251100000052247,3.408190600006492,1.1079770000069402,1.099725900006888,0.72114,0.11356116561121439,-0.09463430467601198,,,,None,,-0.3,-0.2975206611570248,0.4896211610948607,0.487603305785124,trial_list_0.5_red.csv,0.4916005000050063,0.5251516000062111,p14_base2_01,001,2023-05-11_15h29.58.325,expectation_shapes_perceived_time,2022.2.4,119.78529683413163,
,167,0.5,none,,red,green,,1440.222826454096,,,,,0,63,63,374,trial,,,,,,red,1.4402228264540962,1.4297520661157026,2.3000465000004624,0.9964632000046549,4e-05,4e-05,,1.4416821999984677,1.4750894000026165,2.00036430000182,,2.3000465000004624,2.3000465000004624,2.4998913000017637,2.3000465000004624,0.0,3.1500966000021435,0.8500501000016811,0.8500501000016811,1.6644,-0.12854160811223922,0.072998937940284,,,,None,,0.167,0.1652892561983471,1.640552826454096,1.6280991735537191,trial_list_0.5_red.csv,1.6417922000036924,1.6750138999996125,p14_base2_01,001,2023-05-11_15h29.58.325,expectation_shapes_perceived_time,2022.2.4,119.78529683413163,
,167,0.5,none,,red,green,,1406.2887007526683,,,,,0,64,64,224,trial,,,,,,red,1.4062887007526683,1.3884297520661157,2.2997292000000016,0.9964216000007582,3e-05,3e-05,,1.4001991999975871,1.433586799998011,2.0001329999940936,,2.2997292000000016,2.2997292000000016,2.499941199996101,2.2997292000000016,0.0,3.658380599998054,1.3586513999980525,1.3586513999980525,1.33039,-0.12733013078899288,-0.07509212841402144,,,,None,,0.167,0.1652892561983471,1.6066187007526682,1.5867768595041323,trial_list_0.5_red.csv,1.600124099997629,1.6333935000002384,p14_base2_01,001,2023-05-11_15h29.58.325,expectation_shapes_perceived_time,2022.2.4,119.78529683413163,
,33,0.5,none,,green,red,,342.2995598128512,,,,,0,65,65,437,trial,,,,,,green,0.3422995598128512,0.33884297520661155,2.3006577999985893,0.9957901000016136,4e-05,4e-05,,0.3419694000040181,0.3753616000030888,2.000329200003762,,2.3006577999985893,2.3006577999985893,2.5007165999995777,2.458669200001168,0.15801140000257874,3.492296099997475,1.1916382999988855,1.0336268999963067,0.7777,0.09504612754860474,-0.11321671075642623,,,,None,,0.033,0.03305785123966942,0.4086295598128512,0.4049586776859504,trial_list_0.5_red.csv,0.40892059999896446,0.44214730000385316,p14_base2_01,001,2023-05-11_15h29.58.325,expectation_shapes_perceived_time,2022.2.4,119.78529683413163,
,-300,0.5,none,,red,green,,1441.5653414181347,,,,,0,66,66,448,trial,,,,,,red,1.4415653414181346,1.4297520661157026,2.3000708000035957,0.996111699998437,7e-05,7e-05,,1.4418732000049204,1.475278800004162,2.0001707000046736,,2.3000708000035957,2.3000708000035957,2.4998967999999877,2.3000708000035957,0.0,3.0830849000049056,0.78301410000131,0.78301410000131,1.64758,-0.13221736635250278,0.06610868317625139,,,,None,,-0.3,-0.2975206611570248,1.1082353414181347,1.0991735537190084,trial_list_0.5_red.csv,1.10852370000066,1.1416232000046875,p14_base2_01,001,2023-05-11_15h29.58.325,expectation_shapes_perceived_time,2022.2.4,119.78529683413163,
,33,0.5,none,,green,red,,219.0847614904108,,,,,0,67,67,267,trial,,,,,,green,0.2190847614904108,0.21487603305785125,2.2998418000061065,0.9966901999941911,6e-05,6e-05,0.03333,0.21675790000153938,0.2498587000009138,1.9999377000058303,2.0334512000044924,2.2998418000061065,2.2998418000061065,2.499878100003116,2.2998418000061065,0.0,3.058185100002447,0.7583432999963406,0.7583432999963406,1.53802,-0.14677053875160248,0.017612464650192297,,,,None,,0.033,0.03305785123966942,0.2854147614904108,0.2809917355371901,trial_list_0.5_red.csv,0.28333720000227913,0.31673140000202693,p14_base2_01,001,2023-05-11_15h29.58.325,expectation_shapes_perceived_time,2022.2.4,119.78529683413163,
,-233,0.5,none,,green,red,,1457.0441341133696,,,,,0,68,68,217,trial,,,,,,green,1.4570441341133695,1.4462809917355373,2.299208999997063,0.9966127999941818,4e-05,4e-05,0.03308,1.4580874999955995,1.491567799996119,1.9997838999988744,2.0331621000004816,2.299208999997063,2.299208999997063,2.4997772999995505,2.399225599998317,0.10001660000125412,4.224749900000461,1.9255409000033978,1.8255243000021437,1.65535,-0.13056612936925766,0.06931288349232197,,,,None,,-0.233,-0.23140495867768596,1.1907141341133698,1.1818181818181819,trial_list_0.5_red.csv,1.1916607999955886,1.224902399997518,p14_base2_01,001,2023-05-11_15h29.58.325,expectation_shapes_perceived_time,2022.2.4,119.78529683413163,
,-100,0.5,none,,green,red,,1508.5511418578535,,,,,0,69,69,45,trial,,,,,,green,1.5085511418578534,1.4958677685950414,2.2999185000007856,0.9965899999951944,4e-05,4e-05,0.03319,1.5083298000026844,1.5416392999977688,1.999458999998751,2.0327955999964615,2.2999185000007856,2.2999185000007856,2.499869300001592,2.449797299996135,0.14987879999534925,3.2750631000017165,0.975144600000931,0.8252658000055817,1.35526,-0.13280232909760034,-0.06492558311438239,,,,None,,-0.1,-0.09917355371900827,1.3752211418578535,1.3636363636363638,trial_list_0.5_red.csv,1.3751186000008602,1.4083194999984698,p14_base2_01,001,2023-05-11_15h29.58.325,expectation_shapes_perceived_time,2022.2.4,119.78529683413163,
,-300,0.5,none,,red,green,,553.8635765851642,,,,,0,70,70,452,trial,,,,,,red,0.5538635765851642,0.5454545454545454,2.2998139999981504,0.9954986000011559,3e-05,3e-05,0.03313,0.5498612000010326,0.583310399997572,1.9999448000016855,2.0331595999959973,2.2998139999981504,2.2998139999981504,2.4997048000004725,2.2998139999981504,0.0,3.208239699997648,0.9084256999994977,0.9084256999994977,0.62518,0.13653826317751655,-0.05664885387152283,,,,None,,-0.3,-0.2975206611570248,0.2205335765851642,0.21487603305785125,trial_list_0.5_red.csv,0.21652679999533575,0.24998179999965942,p14_base2_01,001,2023-05-11_15h29.58.325,expectation_shapes_perceived_time,2022.2.4,119.78529683413163,
,167,0.5,none,,red,green,,1655.2999822102656,,,,,0,71,71,490,trial,,,,,,red,1.6552999822102656,1.6363636363636365,2.3000950000059674,0.9963519000011729,3e-05,3e-05,,1.650345300004119,1.6835896000047796,2.000286900001811,,2.3000950000059674,2.3000950000059674,2.4998600000035367,2.3918101000017487,0.0917150999957812,3.0833885000029113,0.7832934999969439,0.6915784000011627,1.62918,-0.1358163010497934,0.058358566857333094,,,,None,,0.167,0.1652892561983471,1.8556299822102655,1.834710743801653,trial_list_0.5_red.csv,1.8500509000004968,1.8836618999994243,p14_base2_01,001,2023-05-11_15h29.58.325,expectation_shapes_perceived_time,2022.2.4,119.78529683413163,
,33,0.5,none,,red,green,,630.2337206398529,,,,,0,72,72,318,trial,,,,,,red,0.630233720639853,0.6198347107438017,2.2997183999978006,0.9975613000060548,3e-05,3e-05,0.03304,0.6249925999945845,0.6584755999938352,1.999964499998896,2.0333220999964396,2.2997183999978006,2.2997183999978006,2.4998036999968463,2.5248668999993242,0.22514850000152364,3.2247105999995256,0.924992200001725,0.6998437000002014,1.21303,-0.09171015949942365,-0.11593548465021482,,,,None,,0.033,0.03305785123966942,0.696563720639853,0.6859504132231405,trial_list_0.5_red.csv,0.691890299996885,0.7250034999960917,p14_base2_01,001,2023-05-11_15h29.58.325,expectation_shapes_perceived_time,2022.2.4,119.78529683413163,
,33,0.5,none,,red,green,,1225.0108292300768,,,,,0,73,73,250,trial,,,,,,red,1.2250108292300768,1.2148760330578512,2.300409099996614,0.9976692000054754,3e-05,3e-05,,1.225088200000755,1.258494800000335,2.0001659999979893,,2.300409099996614,2.300409099996614,2.5000044999978854,2.408672099998512,0.10826300000189804,2.933253799994418,0.6328446999978041,0.5245816999959061,1.7111,-0.1164885284837589,0.09100666287793666,,,,None,,0.033,0.03305785123966942,1.2913408292300768,1.28099173553719,trial_list_0.5_red.csv,1.291695100000652,1.3250269999989541,p14_base2_01,001,2023-05-11_15h29.58.325,expectation_shapes_perceived_time,2022.2.4,119.78529683413163,
,100,0.5,none,,red,green,,1047.783298566238,,,,,0,74,74,98,trial,,,,,,red,1.047783298566238,1.0413223140495869,2.3000516000029165,0.9963372999991407,6e-05,6e-05,0.03324,1.0500084000013885,1.0835144000011496,2.0000871000011102,2.0332656000027782,2.3000516000029165,2.3000516000029165,2.500011700001778,2.3000516000029165,0.0,3.233400899996923,0.9333492999940063,0.9333492999940063,1.54721,-0.14620034538265209,0.021846028620396283,,,,None,,0.1,0.09917355371900827,1.181113298566238,1.1652892561983472,trial_list_0.5_red.csv,1.1747580000010203,1.208178400003817,p14_base2_01,001,2023-05-11_15h29.58.325,expectation_shapes_perceived_time,2022.2.4,119.78529683413163,
,-233,0.5,none,,red,green,,514.160607537782,0,0,0,0,0,75,75,412,fam,0.5555909999966389,0.5555909999966389,270.0,2.55614179999975,2.55614179999975,,,,,,,,,,,,,,,,,,,,,,,,,,,,,,,,,,,,p14_base2_01,001,2023-05-11_15h29.58.325,expectation_shapes_perceived_time,2022.2.4,119.78529683413163,
,-233,0.5,none,,red,green,,514.160607537782,1,0,1,0,0,75,75,412,fam,0.49763769999844953,0.49763769999844953,270.0,2.4974113999996916,2.4974113999996916,,,,,,,,,,,,,,,,,,,,,,,,,,,,,,,,,,,,p14_base2_01,001,2023-05-11_15h29.58.325,expectation_shapes_perceived_time,2022.2.4,119.78529683413163,
,-233,0.5,none,,red,green,,514.160607537782,2,0,2,0,0,75,75,412,fam,0.49723570000060135,0.49723570000060135,270.0,2.4973400000017136,2.4973400000017136,,,,,,,,,,,,,,,,,,,,,,,,,,,,,,,,,,,,p14_base2_01,001,2023-05-11_15h29.58.325,expectation_shapes_perceived_time,2022.2.4,119.78529683413163,
,-233,0.5,none,,red,green,,514.160607537782,3,0,3,0,0,75,75,412,fam,0.49748579999868525,0.49748579999868525,270.0,2.497513899994374,2.497513899994374,,,,,,,,,,,,,,,,,,,,,,,,,,,,,,,,,,,,p14_base2_01,001,2023-05-11_15h29.58.325,expectation_shapes_perceived_time,2022.2.4,119.78529683413163,
,-233,0.5,none,,red,green,,514.160607537782,,,,,0,75,75,412,trial,,,,,,red,0.5141606075377819,0.5123966942148761,2.299811299999419,0.9988100000045961,3e-05,3e-05,0.0336,0.5164663999967161,0.5498284999994212,1.999986800001352,2.033075399995141,2.299811299999419,2.299811299999419,2.499932300001092,2.299811299999419,0.0,4.374724499997683,2.0749131999982637,2.0749131999982637,0.51201,0.14771837184058118,-0.00557427818266344,,,,None,,-0.233,-0.23140495867768596,0.247830607537782,0.24793388429752067,trial_list_0.5_red.csv,0.2496947999970871,0.2830871999976807,p14_base2_01,001,2023-05-11_15h29.58.325,expectation_shapes_perceived_time,2022.2.4,119.78529683413163,
,233,0.5,none,,green,red,,441.7490621792631,,,,,0,76,76,203,trial,,,,,,green,0.4417490621792631,0.4380165289256198,2.2999139000021387,0.9977072999972734,4e-05,4e-05,,0.441854600001534,0.4750631999995676,2.0001866000020527,,2.2999139000021387,2.2999139000021387,2.5000846999973874,2.2999139000021387,0.0,3.349903100002848,1.0499892000007094,1.0499892000007094,1.68316,-0.12401820177056048,0.0804442389863095,,,,None,,0.233,0.23140495867768596,0.7080790621792631,0.7024793388429752,trial_list_0.5_red.csv,0.7083672000007937,0.7416566000028979,p14_base2_01,001,2023-05-11_15h29.58.325,expectation_shapes_perceived_time,2022.2.4,119.78529683413163,
,167,0.5,none,,green,red,,414.0029723795756,,,,,0,77,77,475,trial,,,,,,green,0.4140029723795756,0.4132231404958678,2.2999265999969793,0.9967227000015555,3e-05,3e-05,,0.4167572000005748,0.4499396000028355,1.999981699998898,,2.2999265999969793,2.2999265999969793,2.4998350000023493,2.2999265999969793,0.0,3.4580468999993172,1.158120300002338,1.158120300002338,1.0035,-0.0016243360970429476,-0.14781458483090823,,,,None,,0.167,0.1652892561983471,0.6143329723795756,0.6115702479338843,trial_list_0.5_red.csv,0.6164337000009255,0.6499724999957834,p14_base2_01,001,2023-05-11_15h29.58.325,expectation_shapes_perceived_time,2022.2.4,119.78529683413163,
,100,0.5,none,,red,green,,348.25210796299046,,,,,0,78,78,80,trial,,,,,,red,0.34825210796299044,0.34710743801652894,2.299605400003202,0.9974434000032488,3e-05,3e-05,,0.34996099999989383,0.3836089000033098,2.000086799998826,,2.299605400003202,2.299605400003202,2.499614799999108,2.299605400003202,0.0,3.3918487999981153,1.0922433999949135,1.0922433999949135,1.46911,-0.1471280549134791,-0.0143222000358254,,,,None,,0.1,0.09917355371900827,0.48158210796299045,0.4793388429752066,trial_list_0.5_red.csv,0.4833587000030093,0.5167242000024999,p14_base2_01,001,2023-05-11_15h29.58.325,expectation_shapes_perceived_time,2022.2.4,119.78529683413163,
,-233,0.5,none,,green,red,,1395.46030578706,,,,,0,79,79,115,trial,,,,,,green,1.39546030578706,1.3801652892561984,2.299986500001978,0.9961001000046963,4e-05,4e-05,,1.3917491000029258,1.4249184000000241,2.000026500005333,,2.299986500001978,2.299986500001978,2.5000645000036457,2.566602500002773,0.2666160000007949,3.19978280000214,0.8997963000001619,0.633180299999367,1.59756,-0.14093494827189057,0.044599667174648916,,,,None,,-0.233,-0.23140495867768596,1.12913030578706,1.115702479338843,trial_list_0.5_red.csv,1.1251180000035674,1.1582520000010845,p14_base2_01,001,2023-05-11_15h29.58.325,expectation_shapes_perceived_time,2022.2.4,119.78529683413163,
,-33,0.5,none,,red,green,,1786.38331194824,,,,,0,80,80,238,trial,,,,,,red,1.78638331194824,1.7685950413223142,2.299756799999159,0.9975590000030934,3e-05,3e-05,,1.783466100001533,1.8166450999997323,2.0000664000035613,,2.299756799999159,2.299756799999159,2.4999172000025283,2.566536199999973,0.26677940000081435,3.2080657000042265,0.9083089000050677,0.6415295000042534,1.66851,-0.1275882584094949,0.07465270438853425,,,,None,,-0.033,-0.03305785123966942,1.72005331194824,1.7024793388429753,trial_list_0.5_red.csv,1.7166003000020282,1.7498525000046357,p14_base2_01,001,2023-05-11_15h29.58.325,expectation_shapes_perceived_time,2022.2.4,119.78529683413163,
,-100,0.5,none,,red,green,,1480.556053040618,,,,,0,81,81,110,trial,,,,,,red,1.480556053040618,1.462809917355372,2.3005434999940917,0.9974816000030842,2e-05,2e-05,,1.4753862999932608,1.5090070999940508,2.0007164999988163,,2.3005434999940917,2.3005434999940917,2.5002263999995193,2.4085987999933423,0.10805529999925056,3.4502837999971234,1.1497403000030317,1.0416850000037812,1.82158,-0.07858561379789972,0.12520419825428092,,,,None,,-0.1,-0.09917355371900827,1.3472260530406182,1.3305785123966942,trial_list_0.5_red.csv,1.3417446999956155,1.3752549999990151,p14_base2_01,001,2023-05-11_15h29.58.325,expectation_shapes_perceived_time,2022.2.4,119.78529683413163,
,-300,0.5,none,,green,red,,1335.0045102427775,,,,,0,82,82,85,trial,,,,,,green,1.3350045102427774,1.322314049586777,2.300624900002731,0.9947527999975136,2e-05,2e-05,,1.3337863000051584,1.3673708000060287,2.0006821999995736,,2.300624900002731,2.300624900002731,2.500411900000472,2.308863400001428,0.00823849999869708,4.183903000004648,1.8832781000019168,1.8750396000032197,1.59569,-0.14119470806550716,0.043770359500307214,,,,None,,-0.3,-0.2975206611570248,1.0016745102427775,0.9917355371900827,trial_list_0.5_red.csv,1.0004524000032688,1.034035100004985,p14_base2_01,001,2023-05-11_15h29.58.325,expectation_shapes_perceived_time,2022.2.4,119.78529683413163,
,-233,0.5,none,,red,green,,1612.6687422279765,,,,,0,83,83,484,trial,,,,,,red,1.6126687422279764,1.5950413223140496,2.3002183999997214,0.9953286000018124,1e-05,1e-05,0.03315,1.6087304999964545,1.6419395999982953,2.0002612999960547,2.0338157000005594,2.3002183999997214,2.3002183999997214,2.500263099995209,2.3002183999997214,0.0,3.4673933000012767,1.1671749000015552,1.1671749000015552,1.63007,-0.13565329386775388,0.05873647775717178,,,,None,,-0.233,-0.23140495867768596,1.3463387422279767,1.3305785123966942,trial_list_0.5_red.csv,1.3420396000001347,1.3752764999953797,p14_base2_01,001,2023-05-11_15h29.58.325,expectation_shapes_perceived_time,2022.2.4,119.78529683413163,
,-167,0.5,none,,green,red,,594.3295221263418,,,,,0,84,84,279,trial,,,,,,green,0.5943295221263418,0.5867768595041323,2.300049500001478,0.9957364999936544,3e-05,3e-05,,0.5914913000015076,0.6245842000062112,1.9998725000041304,,2.300049500001478,2.300049500001478,2.50003220000508,2.716888300004939,0.4168388000034611,3.1665722000034293,0.8665227000019513,0.44968389999849023,1.75624,-0.1024577628910476,0.10655607340668949,,,,None,,-0.167,-0.1652892561983471,0.39399952212634176,0.38842975206611574,trial_list_0.5_red.csv,0.3914727000010316,0.4245738000026904,p14_base2_01,001,2023-05-11_15h29.58.325,expectation_shapes_perceived_time,2022.2.4,119.78529683413163,
,-233,0.5,none,,green,red,,782.5669182535414,,,,,0,85,85,343,trial,,,,,,green,0.7825669182535414,0.7768595041322315,2.30000629999995,0.9964638000019477,3e-05,3e-05,0.03323,0.7836574999964796,0.8169245999961277,2.000096999996458,2.0336257999952068,2.30000629999995,2.30000629999995,2.500266700000793,2.30000629999995,0.0,3.5833511000018916,1.2833448000019416,1.2833448000019416,1.04859,-0.022477626618839276,-0.1461045730224553,,,,None,,-0.233,-0.23140495867768596,0.5162369182535413,0.5123966942148761,trial_list_0.5_red.csv,0.5167787999962457,0.5501061999966623,p14_base2_01,001,2023-05-11_15h29.58.325,expectation_shapes_perceived_time,2022.2.4,119.78529683413163,
,300,0.5,none,,red,green,,214.48277442368104,,,,,0,86,86,330,trial,,,,,,red,0.21448277442368105,0.21487603305785125,2.2996062000020174,0.9965404999966267,4e-05,4e-05,,0.21659080000245012,0.2498468000048888,1.9998143000048003,,2.2996062000020174,2.2996062000020174,2.499762700004794,2.2996062000020174,0.0,3.549628599997959,1.2500223999959417,1.2500223999959417,0.56695,0.14456591263682234,-0.03086238584381601,,,,None,,0.3,0.2975206611570248,0.547812774423681,0.5454545454545454,trial_list_0.5_red.csv,0.5497598000001744,0.5830304000046453,p14_base2_01,001,2023-05-11_15h29.58.325,expectation_shapes_perceived_time,2022.2.4,119.78529683413163,
,100,0.5,none,,green,red,,1546.8501161690997,,,,,0,87,87,407,trial,,,,,,green,1.5468501161690997,1.5289256198347108,2.299665200000163,0.9975741000016569,4e-05,4e-05,,1.5418592999994871,1.5749704999980167,2.000087899999926,,2.299665200000163,2.299665200000163,2.4998953999966034,2.3828978999954415,0.08323269999527838,3.0998130000007222,0.8001478000005591,0.7169151000052807,1.88275,-0.05322763799262631,0.1379079711627136,,,,None,,0.1,0.09917355371900827,1.6801801161690997,1.6611570247933884,trial_list_0.5_red.csv,1.6749446999965585,1.7083609999972396,p14_base2_01,001,2023-05-11_15h29.58.325,expectation_shapes_perceived_time,2022.2.4,119.78529683413163,
,-167,0.5,none,,red,green,,741.0165214760785,,,,,0,88,88,274,trial,,,,,,red,0.7410165214760785,0.7355371900826446,2.3002040999999736,0.9957031000012648,3e-05,3e-05,,0.7417264000032446,0.7752007000017329,1.9999239000026137,,2.3002040999999736,2.3002040999999736,2.4998425000012503,2.3002040999999736,0.0,3.157789500000945,0.8575854000009713,0.8575854000009713,0.81903,0.07958659241039051,-0.12457031855539384,,,,None,,-0.167,-0.1652892561983471,0.5406865214760785,0.5371900826446281,trial_list_0.5_red.csv,0.54173720000108,0.5751277000017581,p14_base2_01,001,2023-05-11_15h29.58.325,expectation_shapes_perceived_time,2022.2.4,119.78529683413163,
,-233,0.5,none,,red,green,,927.5125431280086,,,,,0,89,89,390,trial,,,,,,red,0.9275125431280086,0.9173553719008265,2.300192499998957,0.9984881999989739,4e-05,4e-05,,0.9251645000040298,0.9585291000039433,2.0001713000019663,2.0336109999989276,2.300192499998957,2.300192499998957,2.500189300000784,2.7082787999970606,0.40808629999810364,3.833189400000265,1.532996900001308,1.1249106000032043,1.19863,-0.08637397518314532,-0.11996385442103516,,,,None,,-0.233,-0.23140495867768596,0.6611825431280085,0.6528925619834711,trial_list_0.5_red.csv,0.6585075000039069,0.6921015999978408,p14_base2_01,001,2023-05-11_15h29.58.325,expectation_shapes_perceived_time,2022.2.4,119.78529683413163,
,233,0.5,none,,red,green,,912.4354645056344,,,,,0,90,90,162,trial,,,,,,red,0.9124354645056344,0.9008264462809917,2.2999280000003637,0.9976963000008254,3e-05,3e-05,,0.9084227999992436,0.941563699998369,1.99997070000245,,2.2999280000003637,2.2999280000003637,2.499963200003549,2.574775300003239,0.27484730000287527,3.0663675000032526,0.766439500002889,0.4915922000000137,1.18621,-0.08162800251427288,-0.12324227830586298,,,,None,,0.233,0.23140495867768596,1.1787654645056342,1.1652892561983472,trial_list_0.5_red.csv,1.1748600999999326,1.2080824000004213,p14_base2_01,001,2023-05-11_15h29.58.325,expectation_shapes_perceived_time,2022.2.4,119.78529683413163,
,-100,0.5,none,,green,red,,1526.0716770667354,,,,,0,91,91,453,trial,,,,,,green,1.5260716770667355,1.512396694214876,2.300261500000488,0.9973239000028116,2e-05,2e-05,0.03321,1.5255114000028698,1.5589449999970384,2.0002992000008817,2.0336551000000327,2.300261500000488,2.300261500000488,2.500213999999687,2.3088208999979543,0.008559399997466244,2.96717450000142,0.6669130000009318,0.6583536000034655,1.4658,-0.14697133131575052,-0.015849849455620152,,,,None,,-0.1,-0.09917355371900827,1.3927416770667356,1.3801652892561984,trial_list_0.5_red.csv,1.392203100003826,1.4255899999989197,p14_base2_01,001,2023-05-11_15h29.58.325,expectation_shapes_perceived_time,2022.2.4,119.78529683413163,
,167,0.5,none,,green,red,,1191.520393902099,,,,,0,92,92,461,trial,,,,,,green,1.1915203939020989,1.1818181818181819,2.300201999998535,0.9961228000029223,3e-05,3e-05,0.03333,1.1912019999945187,1.2245327999989968,2.000026000001526,2.033389399999578,2.300201999998535,2.300201999998535,2.50015010000061,2.300201999998535,0.0,3.7499431999967783,1.4497411999982432,1.4497411999982432,1.63097,-0.1354860674918864,0.059121193087368615,,,,None,,0.167,0.1652892561983471,1.3918503939020987,1.3801652892561984,trial_list_0.5_red.csv,1.3915740999946138,1.4251307000013185,p14_base2_01,001,2023-05-11_15h29.58.325,expectation_shapes_perceived_time,2022.2.4,119.78529683413163,
,33,0.5,none,,red,green,,1358.59990891778,,,,,0,93,93,100,trial,,,,,,red,1.35859990891778,1.3471074380165289,2.2998979999974836,0.9966681000005337,4e-05,4e-05,0.03342,1.3576705000014044,1.390981099997589,1.9997083999987808,2.0332955999983824,2.2998979999974836,2.2998979999974836,2.499814899994817,2.741417500001262,0.4415195000037784,3.5331243999971775,1.233226399999694,0.7917068999959156,1.26383,-0.10896871203594123,-0.09988798603294612,,,,None,,0.033,0.03305785123966942,1.42492990891778,1.4132231404958677,trial_list_0.5_red.csv,1.424320300000545,1.4576784999953816,p14_base2_01,001,2023-05-11_15h29.58.325,expectation_shapes_perceived_time,2022.2.4,119.78529683413163,
,33,0.5,none,,green,red,,1117.651872292552,,,,,0,94,94,227,trial,,,,,,green,1.1176518722925521,1.1074380165289257,2.299915700001293,0.9967546999978367,4e-05,4e-05,0.03327,1.1164795000004233,1.1499670000048354,1.999479900005099,2.033010600003763,2.299915700001293,2.299915700001293,2.5001727000053506,2.308166300004814,0.008250600003520958,3.1415617000020575,0.8416460000007646,0.8333953999972437,1.17421,-0.0769229451562516,-0.12623252538461802,,,,None,,0.033,0.03305785123966942,1.183981872292552,1.1735537190082646,trial_list_0.5_red.csv,1.1831849000009242,1.2165635999990627,p14_base2_01,001,2023-05-11_15h29.58.325,expectation_shapes_perceived_time,2022.2.4,119.78529683413163,
,-33,0.5,none,,green,red,,309.406431751549,,,,,0,95,95,357,trial,,,,,,green,0.309406431751549,0.30578512396694213,2.300076999999874,0.997198600001866,7e-05,7e-05,,0.3084487999949488,0.3415575999970315,2.000022699998226,,2.300076999999874,2.300076999999874,2.499959900000249,2.300076999999874,0.0,3.0330718999975943,0.7329948999977205,0.7329948999977205,0.61505,0.1382723758535846,-0.05227370306659905,,,,None,,-0.033,-0.03305785123966942,0.24307643175154903,0.2396694214876033,trial_list_0.5_red.csv,0.24153120000119088,0.2750448000006145,p14_base2_01,001,2023-05-11_15h29.58.325,expectation_shapes_perceived_time,2022.2.4,119.78529683413163,
,100,0.5,none,,red,green,,1692.8505919018578,,,,,0,96,96,82,trial,,,,,,red,1.6928505919018577,1.677685950413223,2.300419700004568,0.9965812000009464,3e-05,3e-05,0.03351,1.691900199999509,1.7254266000018106,2.0001028000042425,2.033542100005434,2.300419700004568,2.300419700004568,2.500270600001386,2.4585439000002225,0.15812419999565464,3.074939700003597,0.7745199999990291,0.6163958000033745,1.56022,-0.14518562732450382,0.027801503104692222,,,,None,,0.1,0.09917355371900827,1.8261805919018577,1.8099173553719008,trial_list_0.5_red.csv,1.825193800003035,1.8585764000017662,p14_base2_01,001,2023-05-11_15h29.58.325,expectation_shapes_perceived_time,2022.2.4,119.78529683413163,
,-300,0.5,none,,red,green,,1842.3979385674904,,,,,0,97,97,208,trial,,,,,,red,1.8423979385674905,1.8264462809917357,2.3000747000041883,0.9966268999996828,4e-05,4e-05,0.03351,1.8415490000043064,1.8747709000017494,2.000124099999084,2.033307600002445,2.3000747000041883,2.3000747000041883,2.4999084000010043,2.6750545000031707,0.37497979999898234,3.424905600004422,1.1248309000002337,0.7498511000012513,1.19021,-0.08316906060229172,-0.12220759925234703,,,,None,,-0.3,-0.2975206611570248,1.5090679385674906,1.4958677685950414,trial_list_0.5_red.csv,1.5084379000036279,1.5415333999990253,p14_base2_01,001,2023-05-11_15h29.58.325,expectation_shapes_perceived_time,2022.2.4,119.78529683413163,
,300,0.5,none,,green,red,,796.7946734660186,,,,,0,98,98,451,trial,,,,,,green,0.7967946734660186,0.7851239669421488,2.3002505999975256,0.9961375999992015,7e-05,7e-05,0.03301,0.7919448999964516,0.8256187999941176,1.9999605999983032,2.033599199996388,2.3002505999975256,2.3002505999975256,2.4999454999997397,2.3002505999975256,0.0,3.1252124999955413,0.8249618999980157,0.8249618999980157,1.14542,-0.06520773651768862,-0.13266401567391822,,,,None,,0.3,0.2975206611570248,1.1301246734660184,1.115702479338843,trial_list_0.5_red.csv,1.1251699999993434,1.15834179999365,p14_base2_01,001,2023-05-11_15h29.58.325,expectation_shapes_perceived_time,2022.2.4,119.78529683413163,
,100,0.5,none,,green,red,,1547.5386688645538,,,,,0,99,99,39,trial,,,,,,green,1.5475386688645538,1.5289256198347108,2.2998852000018815,0.9950186999994912,4e-05,4e-05,0.0334,1.541851100002532,1.5754345000023022,2.0004353000040282,,2.2998852000018815,2.2998852000018815,2.499826100000064,2.2998852000018815,0.0,3.1416577999989386,0.8417725999970571,0.8417725999970571,1.67781,-0.12535408533544046,0.07834630333465029,,,,None,,0.1,0.09917355371900827,1.6808686688645538,1.6611570247933884,trial_list_0.5_red.csv,1.6751975000006496,1.7088105000002543,p14_base2_01,001,2023-05-11_15h29.58.325,expectation_shapes_perceived_time,2022.2.4,119.78529683413163,
,-100,0.5,none,,red,green,,1296.6120154915752,0,0,0,0,0,100,100,152,fam,0.5569061000060174,0.5569061000060174,270.0,2.556793200004904,2.556793200004904,,,,,,,,,,,,,,,,,,,,,,,,,,,,,,,,,,,,p14_base2_01,001,2023-05-11_15h29.58.325,expectation_shapes_perceived_time,2022.2.4,119.78529683413163,
,-100,0.5,none,,red,green,,1296.6120154915752,1,0,1,0,0,100,100,152,fam,0.49731819999578875,0.49731819999578875,270.0,2.4977178999979515,2.4977178999979515,,,,,,,,,,,,,,,,,,,,,,,,,,,,,,,,,,,,p14_base2_01,001,2023-05-11_15h29.58.325,expectation_shapes_perceived_time,2022.2.4,119.78529683413163,
,-100,0.5,none,,red,green,,1296.6120154915752,2,0,2,0,0,100,100,152,fam,0.4975722999952268,0.4975722999952268,270.0,2.497178300000087,2.497178300000087,,,,,,,,,,,,,,,,,,,,,,,,,,,,,,,,,,,,p14_base2_01,001,2023-05-11_15h29.58.325,expectation_shapes_perceived_time,2022.2.4,119.78529683413163,
,-100,0.5,none,,red,green,,1296.6120154915752,3,0,3,0,0,100,100,152,fam,0.4975353999980143,0.4975353999980143,270.0,2.497531799999706,2.497531799999706,,,,,,,,,,,,,,,,,,,,,,,,,,,,,,,,,,,,p14_base2_01,001,2023-05-11_15h29.58.325,expectation_shapes_perceived_time,2022.2.4,119.78529683413163,
,-100,0.5,none,,red,green,,1296.6120154915752,,,,,0,100,100,152,trial,,,,,,red,1.2966120154915752,1.28099173553719,2.3001970000041183,0.9986203000007663,3e-05,3e-05,0.03316,1.2917538000037894,1.3251974000013433,2.0000219000066863,2.034072100002959,2.3001970000041183,2.3001970000041183,2.4998900999999023,2.3001970000041183,0.0,3.0582312000042293,0.758034200000111,0.758034200000111,1.11903,-0.05399812053589355,-0.1376081136237287,,,,None,,-0.1,-0.09917355371900827,1.1632820154915753,1.1487603305785123,trial_list_0.5_red.csv,1.1585843000066234,1.1917322000008426,p14_base2_01,001,2023-05-11_15h29.58.325,expectation_shapes_perceived_time,2022.2.4,119.78529683413163,
,-100,0.5,none,,green,red,,1549.1811293795936,,,,,0,101,101,145,trial,,,,,,green,1.5491811293795936,1.537190082644628,2.2999622999996063,0.9936980999991647,3e-05,3e-05,0.03324,1.550101300003007,1.5833253000018885,1.999985900001775,2.0335305999979028,2.2999622999996063,2.2999622999996063,2.499814000002516,2.3084142000006977,0.008451900001091417,2.833188100004918,0.5332258000053116,0.5247739000042202,1.81347,-0.08175255437676274,0.12315969230785037,,,,None,,-0.1,-0.09917355371900827,1.4158511293795937,1.4049586776859504,trial_list_0.5_red.csv,1.4166901999997208,1.449870500000543,p14_base2_01,001,2023-05-11_15h29.58.325,expectation_shapes_perceived_time,2022.2.4,119.78529683413163,
,33,0.5,none,,green,red,,587.45565106696,,,,,0,102,102,457,trial,,,,,,green,0.58745565106696,0.578512396694215,2.299721600000339,0.9956380999938119,3e-05,3e-05,0.03336,0.583045300001686,0.6162163000044529,1.9994258000006084,2.0331886999993003,2.299721600000339,2.299721600000339,2.4998773000043,2.391417500002717,0.09169590000237804,3.174693799999659,0.8749721999993199,0.7832762999969418,0.6142,0.13841146506154872,-0.051904299398080764,,,,None,,0.033,0.03305785123966942,0.65378565106696,0.6446280991735538,trial_list_0.5_red.csv,0.649985399999423,0.6829300000026706,p14_base2_01,001,2023-05-11_15h29.58.325,expectation_shapes_perceived_time,2022.2.4,119.78529683413163,
,233,0.5,none,,red,green,,1600.6444602722977,,,,,0,103,103,368,trial,,,,,,red,1.6006444602722978,1.5867768595041323,2.3000405999991926,0.9967469999974128,3e-05,3e-05,0.03304,1.5998191999970004,1.6330618999927538,1.9999441999971168,2.033374199992977,2.3000405999991926,2.3000405999991926,2.4994682999968063,2.391718899998523,0.09167829999933019,3.0668346999955247,0.7667940999963321,0.6751157999970019,1.39063,-0.13918268163930264,-0.04979930810947526,,,,None,,0.233,0.23140495867768596,1.8669744602722975,1.8512396694214877,trial_list_0.5_red.csv,1.866470399996615,1.899841499995091,p14_base2_01,001,2023-05-11_15h29.58.325,expectation_shapes_perceived_time,2022.2.4,119.78529683413163,
,-300,0.5,none,,red,green,,1172.7330433382278,,,,,0,104,104,178,trial,,,,,,red,1.172733043338228,1.15702479338843,2.299975699999777,0.996173200001067,3e-05,3e-05,,1.166909299994586,1.2004343000007793,2.0000952999980655,,2.299975699999777,2.299975699999777,2.4998416999951587,2.466459899995243,0.16648419999546604,3.499553299996478,1.1995775999967009,1.0330934000012348,1.68717,-0.1229965945771262,0.08199772971808414,,,,None,,-0.3,-0.2975206611570248,0.8394030433382278,0.8347107438016529,trial_list_0.5_red.csv,0.8419900000008056,0.875559299995075,p14_base2_01,001,2023-05-11_15h29.58.325,expectation_shapes_perceived_time,2022.2.4,119.78529683413163,
,-100,0.5,none,,green,red,,969.447582893914,,,,,0,105,105,53,trial,,,,,,green,0.9694475828939141,0.9586776859504132,2.300158399993961,0.9986600000047474,4e-05,4e-05,,0.966596499994921,1.0000355999945896,2.0002574999962235,,2.300158399993961,2.300158399993961,2.4998797999942326,2.533110199998191,0.23295180000422988,3.133031999997911,0.8328736000039498,0.59992179999972,1.23274,-0.0987097775456693,-0.1100371290673035,,,,None,,-0.1,-0.09917355371900827,0.836117582893914,0.8264462809917356,trial_list_0.5_red.csv,0.8332169999994221,0.8666946999946958,p14_base2_01,001,2023-05-11_15h29.58.325,expectation_shapes_perceived_time,2022.2.4,119.78529683413163,
,300,0.5,none,,green,red,,1036.0338891295416,,,,,0,106,106,389,trial,,,,,,green,1.0360338891295418,1.0247933884297522,2.300317900000664,0.9956941999989795,1e-05,1e-05,0.03332,1.0337538000021596,1.0671059000014793,2.0004292000012356,2.0339929000037955,2.300317900000664,2.300317900000664,2.5002528999975766,2.300317900000664,0.0,3.2753828999993857,0.9750649999987218,0.9750649999987218,1.16944,-0.07502573128726871,-0.12736926474350269,,,,None,,0.3,0.2975206611570248,1.3693638891295417,1.3553719008264462,trial_list_0.5_red.csv,1.367266599998402,1.400435399998969,p14_base2_01,001,2023-05-11_15h29.58.325,expectation_shapes_perceived_time,2022.2.4,119.78529683413163,
,-233,0.5,none,,green,red,,419.5963466835672,,,,,0,107,107,307,trial,,,,,,green,0.4195963466835672,0.4132231404958678,2.300231499997608,0.996583100000862,4e-05,4e-05,0.0333,0.4166209999966668,0.4499444999964908,1.9998717999988003,,2.300231499997608,2.300231499997608,2.4998511000012513,2.3082598999972106,0.008028399999602698,3.5668422000017017,1.2666107000040938,1.2585823000044911,0.59622,0.1411215542731592,-0.044005645956146415,,,,None,,-0.233,-0.23140495867768596,0.15326634668356723,0.1487603305785124,trial_list_0.5_red.csv,0.14985689999593887,0.1834545000019716,p14_base2_01,001,2023-05-11_15h29.58.325,expectation_shapes_perceived_time,2022.2.4,119.78529683413163,
,-233,0.5,none,,green,red,,850.7250160401995,,,,,0,108,108,149,trial,,,,,,green,0.8507250160401996,0.8429752066115703,2.300202000005811,0.9962233999976888,3e-05,3e-05,0.0332,0.8498963000020012,0.8835006000008434,2.0003569000036805,2.033301900002698,2.300202000005811,2.300202000005811,2.500059500001953,2.4668158999993466,0.1666138999935356,3.6081119000009494,1.3079098999951384,1.1412960000016028,1.12591,-0.05696161581101515,-0.13640807996848367,,,,None,,-0.233,-0.23140495867768596,0.5843950160401995,0.578512396694215,trial_list_0.5_red.csv,0.5833502000023145,0.6166668000005302,p14_base2_01,001,2023-05-11_15h29.58.325,expectation_shapes_perceived_time,2022.2.4,119.78529683413163,
,33,0.5,none,,green,red,,1187.3099494634296,,,,,0,109,109,49,trial,,,,,,green,1.1873099494634296,1.1735537190082646,2.2999399000036647,0.9977797000028659,3e-05,3e-05,0.03336,1.1832409000053303,1.216491600003792,2.0000519000022905,2.033416500002204,2.2999399000036647,2.2999399000036647,2.499949500001094,2.583156200002122,0.28321629999845754,3.491392600000836,1.1914526999971713,0.9082363999987138,1.15723,-0.07008309968729869,-0.13015432799069757,,,,None,,0.033,0.03305785123966942,1.2536399494634296,1.2396694214876034,trial_list_0.5_red.csv,1.249773700001242,1.283200300000317,p14_base2_01,001,2023-05-11_15h29.58.325,expectation_shapes_perceived_time,2022.2.4,119.78529683413163,
,100,0.5,none,,red,green,,171.31831591199676,,,,,0,110,110,434,trial,,,,,,red,0.17131831591199675,0.17355371900826447,2.2995130000053905,0.9958677000031457,4e-05,4e-05,0.03319,0.17474740000034217,0.2080024000024423,1.9992074000037974,2.0325501000043005,2.2995130000053905,2.2995130000053905,2.4996164000040153,2.308089600002859,0.008576599997468293,2.9246836000020267,0.6251705999966362,0.6165939999991679,0.65373,0.13091546395965642,-0.0686507920764052,,,,None,,0.1,0.09917355371900827,0.30464831591199676,0.2975206611570248,trial_list_0.5_red.csv,0.29987800000526477,0.33326320000196574,p14_base2_01,001,2023-05-11_15h29.58.325,expectation_shapes_perceived_time,2022.2.4,119.78529683413163,
,233,0.5,none,,red,green,,966.3963723101672,,,,,0,111,111,316,trial,,,,,,red,0.9663963723101672,0.9586776859504132,2.3001739000028465,0.9974512999979197,4e-05,4e-05,,0.9667544000039925,1.0002807999990182,2.000054000003729,,2.3001739000028465,2.3001739000028465,2.5002363000021433,2.6838858000046457,0.3837119000017992,3.516915699998208,1.2167417999953614,0.8330298999935621,1.13414,-0.0604680793186122,-0.13489033078767337,,,,None,,0.233,0.23140495867768596,1.2327263723101671,1.2231404958677685,trial_list_0.5_red.csv,1.2336214000024484,1.2668124999981956,p14_base2_01,001,2023-05-11_15h29.58.325,expectation_shapes_perceived_time,2022.2.4,119.78529683413163,
,100,0.5,none,,red,green,,1164.4012169074922,,,,,0,112,112,172,trial,,,,,,red,1.1644012169074922,1.1487603305785123,2.299919300006877,0.9952759000007063,4e-05,4e-05,0.03342,1.1584627000047476,1.1916947000063374,2.0001931000006152,2.0333884000065154,2.299919300006877,2.299919300006877,2.5000381999998353,2.658422700005758,0.3585033999988809,3.499710000003688,1.1997906999968109,0.84128729999793,1.24198,-0.1018595081920308,-0.10712810344334271,,,,None,,0.1,0.09917355371900827,1.2977312169074922,1.28099173553719,trial_list_0.5_red.csv,1.2915777000016533,1.3248352000009618,p14_base2_01,001,2023-05-11_15h29.58.325,expectation_shapes_perceived_time,2022.2.4,119.78529683413163,
,33,0.5,none,,red,green,,493.1332066100536,,,,,0,113,113,428,trial,,,,,,red,0.4931332066100536,0.487603305785124,2.300090500000806,0.9974220000003697,4e-05,4e-05,0.03345,0.4916231999959564,0.5250968999971519,2.0001924999960465,2.033539199997904,2.300090500000806,2.300090500000806,2.499778099998366,2.30814829999872,0.008057799997914117,2.8663058999954956,0.5662153999946895,0.5581575999967754,0.68543,0.1234416157163031,-0.08132624094250557,,,,None,,0.033,0.03305785123966942,0.5594632066100536,0.5537190082644629,trial_list_0.5_red.csv,0.5581883999984711,0.5917948999995133,p14_base2_01,001,2023-05-11_15h29.58.325,expectation_shapes_perceived_time,2022.2.4,119.78529683413163,
,167,0.5,none,,red,green,,388.4944868693156,,,,,0,114,114,416,trial,,,,,,red,0.3884944868693156,0.38842975206611574,2.2995974000004935,0.9965749000039068,4e-05,4e-05,0.03307,0.39105230000131996,0.4242852000024868,1.9996918000033475,2.033104000001913,2.2995974000004935,2.2995974000004935,2.4996907000022475,2.2995974000004935,0.0,3.1162761000014143,0.8166787000009208,0.8166787000009208,0.93213,0.0312784114433177,-0.1444764719048484,,,,None,,0.167,0.1652892561983471,0.5888244868693155,0.5867768595041323,trial_list_0.5_red.csv,0.5918455999999424,0.6251905000026454,p14_base2_01,001,2023-05-11_15h29.58.325,expectation_shapes_perceived_time,2022.2.4,119.78529683413163,
,33,0.5,none,,green,red,,861.9091312579757,,,,,0,115,115,177,trial,,,,,,green,0.8619091312579756,0.8512396694214877,2.2998494999992545,0.996542100001534,4e-05,4e-05,,0.8581495999969775,0.8914977999957046,1.9998712000015075,,2.2998494999992545,2.2998494999992545,2.499711299999035,2.2998494999992545,0.0,2.9248415999973076,0.6249920999980532,0.6249920999980532,1.22329,-0.0953981456320385,-0.11292025401343331,,,,None,,0.033,0.03305785123966942,0.9282391312579757,0.9173553719008265,trial_list_0.5_red.csv,0.925164299995231,0.9581075000023702,p14_base2_01,001,2023-05-11_15h29.58.325,expectation_shapes_perceived_time,2022.2.4,119.78529683413163,
,233,0.5,none,,red,green,,265.66182184636153,,,,,0,116,116,102,trial,,,,,,red,0.26566182184636156,0.2644628099173554,2.2988625000070897,0.9970604999980424,5e-05,5e-05,0.03315,0.2662184000000707,0.29982830000517424,1.9995059000066249,2.032658400006767,2.2988625000070897,2.2988625000070897,2.499221900005068,2.2988625000070897,0.0,2.9158567000049516,0.6169941999978619,0.6169941999978619,0.76026,0.10110257795243571,-0.10784274981593145,,,,None,,0.233,0.23140495867768596,0.5319918218463615,0.5289256198347108,trial_list_0.5_red.csv,0.5325114000006579,0.5657207000040216,p14_base2_01,001,2023-05-11_15h29.58.325,expectation_shapes_perceived_time,2022.2.4,119.78529683413163,
,-167,0.5,none,,red,green,,1414.8879683986693,,,,,0,117,117,248,trial,,,,,,red,1.4148879683986693,1.396694214876033,2.300055699997756,0.996625399995537,4e-05,4e-05,,1.408417599996028,1.441765999996278,1.9999762999941595,2.0334456999989925,2.300055699997756,2.300055699997756,2.5000170999992406,2.300055699997756,0.0,4.166526099994371,1.866470399996615,1.866470399996615,1.55928,-0.14526772652501366,0.027369281809060543,,,,None,,-0.167,-0.1652892561983471,1.2145579683986694,1.1983471074380165,trial_list_0.5_red.csv,1.2085813999947277,1.241809099999955,p14_base2_01,001,2023-05-11_15h29.58.325,expectation_shapes_perceived_time,2022.2.4,119.78529683413163,
,233,0.5,none,,green,red,,1104.548333373535,,,,,0,118,118,277,trial,,,,,,green,1.1045483333735349,1.0909090909090908,2.2994312000009813,0.9979344000021229,5e-05,5e-05,,1.0999966000017594,1.133313400001498,1.999688399999286,,2.2994312000009813,2.2994312000009813,2.499584800003504,2.7826305000053253,0.48319930000434397,3.390939700002491,1.0915085000015097,0.6083091999971657,1.66831,-0.1276347834741931,0.07457313191750609,,,,None,,0.233,0.23140495867768596,1.3708783333735348,1.3553719008264462,trial_list_0.5_red.csv,1.3663595000034547,1.3999665000010282,p14_base2_01,001,2023-05-11_15h29.58.325,expectation_shapes_perceived_time,2022.2.4,119.78529683413163,
,-233,0.5,none,,red,green,,412.75845327463225,,,,,0,119,119,344,trial,,,,,,red,0.41275845327463223,0.4049586776859504,2.3001442000022507,0.9970388000001549,6e-05,6e-05,,0.40840490000118734,0.4418803000007756,2.0000382000071113,,2.3001442000022507,2.3001442000022507,2.50016040000628,2.608577000006335,0.30843280000408413,5.774681900002179,3.474537699999928,3.166104899995844,1.08911,-0.04084473324252738,-0.14206863736531264,,,,None,,-0.233,-0.23140495867768596,0.14642845327463225,0.1487603305785124,trial_list_0.5_red.csv,0.15006960000027902,0.18373210000572726,p14_base2_01,001,2023-05-11_15h29.58.325,expectation_shapes_perceived_time,2022.2.4,119.78529683413163,
,100,0.5,none,,red,green,,1017.4704652742528,,,,,0,120,120,60,trial,,,,,,red,1.0174704652742528,1.0082644628099173,2.300180600002932,0.9978522999954293,4e-05,4e-05,0.03345,1.0167071000032593,1.0502544000046328,1.9994609000059427,2.032861200001207,2.300180600002932,2.300180600002932,2.499808900000062,2.4750046000044676,0.17482400000153575,3.2666095000022324,0.9664288999993005,0.7916048999977647,1.36445,-0.13462105596353172,-0.06106522126180819,,,,None,,0.1,0.09917355371900827,1.1508004652742527,1.140495867768595,trial_list_0.5_red.csv,1.1499212000053376,1.183541200000036,p14_base2_01,001,2023-05-11_15h29.58.325,expectation_shapes_perceived_time,2022.2.4,119.78529683413163,
,-233,0.5,none,,green,red,,759.8087291992011,,,,,0,121,121,133,trial,,,,,,green,0.7598087291992012,0.7520661157024794,2.300077899999451,0.9958359000011114,4e-05,4e-05,,0.758281900001748,0.7915929000009783,1.999943800001347,,2.300077899999451,2.300077899999451,2.4998651999994763,2.35022680000111,0.05014890000165906,3.9166339000003063,1.6165560000008554,1.5664070999991964,1.11387,-0.05176245720268441,-0.1384645730171808,,,,None,,-0.233,-0.23140495867768596,0.49347872919920116,0.487603305785124,trial_list_0.5_red.csv,0.49168189999909373,0.5251662000009674,p14_base2_01,001,2023-05-11_15h29.58.325,expectation_shapes_perceived_time,2022.2.4,119.78529683413163,
