id,delay,expectation,congruency,trial_num,stim_color,distractor_color,block,targetTimeMs,famLoop.thisRepN,famLoop.thisTrialN,famLoop.thisN,famLoop.thisIndex,trialss.thisRepN,trialss.thisTrialN,trialss.thisN,trialss.thisIndex,isTrial,handMove.started,audioCue2Start.started,handOri,handMove.ended,audioCue2End.started,target_color,expected_target_onset,expected_target_onset_in_frames,fixationPoint.started,fixationPoint.stopped,audCueStart.started,placeholder.started,audCueStart.stopped,target.started,target.stopped,audCueEnd.started,audCueEnd.stopped,responsePointer.started,cueForRep.started,space2pass.started,responseStarted,rtUntillMotionTreshold,responsePointer.stopped,rTAfterMotionTreshold,rtDurationBtwRespMotion,perceivedTime,resp_x_coord,resp_y_coord,feedbackPointer.stopped,actualTime_x_coord,actualTime_y_coord,space2pass.keys,space2pass.rt,expected_delay,expected_delays_frame,expected_distractor,expected_distractor_frame,expBlockFiles,distractor.started,distractor.stopped,participant,session,date,expName,psychopyVersion,frameRate,
,,,,,,,,,0,0,0,0,,,,,fam,1.2154770000488497,1.2154770000488497,270.0,3.215559500036761,3.215559500036761,,,,,,,,,,,,,,,,,,,,,,,,,,,,,,,,,,,,p15_base2_01,001,2023-05-15_13h40.35.179,expectation_shapes_perceived_time,2022.2.4,119.86340368554725,
,,,,,,,,,1,0,1,0,,,,,fam,0.4988977999892086,0.4988977999892086,270.0,2.548897000029683,2.548897000029683,,,,,,,,,,,,,,,,,,,,,,,,,,,,,,,,,,,,p15_base2_01,001,2023-05-15_13h40.35.179,expectation_shapes_perceived_time,2022.2.4,119.86340368554725,
,,,,,,,,,2,0,2,0,,,,,fam,0.4986819999758154,0.4986819999758154,270.0,2.4986724000191316,2.4986724000191316,,,,,,,,,,,,,,,,,,,,,,,,,,,,,,,,,,,,p15_base2_01,001,2023-05-15_13h40.35.179,expectation_shapes_perceived_time,2022.2.4,119.86340368554725,
,,,,,,,,,3,0,3,0,,,,,fam,0.4987276999745518,0.4987276999745518,270.0,2.498177699977532,2.498177699977532,,,,,,,,,,,,,,,,,,,,,,,,,,,,,,,,,,,,p15_base2_01,001,2023-05-15_13h40.35.179,expectation_shapes_perceived_time,2022.2.4,119.86340368554725,
,,,,,,,,,4,0,4,0,,,,,fam,0.49874650000128895,0.49874650000128895,270.0,2.498983400000725,2.498983400000725,,,,,,,,,,,,,,,,,,,,,,,,,,,,,,,,,,,,p15_base2_01,001,2023-05-15_13h40.35.179,expectation_shapes_perceived_time,2022.2.4,119.86340368554725,
,,,,,,,,,5,0,5,0,,,,,fam,0.4988065999932587,0.4988065999932587,270.0,2.499120299995411,2.499120299995411,,,,,,,,,,,,,,,,,,,,,,,,,,,,,,,,,,,,p15_base2_01,001,2023-05-15_13h40.35.179,expectation_shapes_perceived_time,2022.2.4,119.86340368554725,
,,,,,,,,,6,0,6,0,,,,,fam,0.4983414000016637,0.4983414000016637,270.0,2.4985968000255525,2.4985968000255525,,,,,,,,,,,,,,,,,,,,,,,,,,,,,,,,,,,,p15_base2_01,001,2023-05-15_13h40.35.179,expectation_shapes_perceived_time,2022.2.4,119.86340368554725,
,,,,,,,,,7,0,7,0,,,,,fam,0.49897600000258535,0.49897600000258535,270.0,2.4983591999625787,2.4983591999625787,,,,,,,,,,,,,,,,,,,,,,,,,,,,,,,,,,,,p15_base2_01,001,2023-05-15_13h40.35.179,expectation_shapes_perceived_time,2022.2.4,119.86340368554725,
,,,,,,,,,8,0,8,0,,,,,fam,0.4984550999943167,0.4984550999943167,270.0,2.498864599969238,2.498864599969238,,,,,,,,,,,,,,,,,,,,,,,,,,,,,,,,,,,,p15_base2_01,001,2023-05-15_13h40.35.179,expectation_shapes_perceived_time,2022.2.4,119.86340368554725,
,,,,,,,,,9,0,9,0,,,,,fam,0.49905119999311864,0.49905119999311864,270.0,2.498748700018041,2.498748700018041,,,,,,,,,,,,,,,,,,,,,,,,,,,,,,,,,,,,p15_base2_01,001,2023-05-15_13h40.35.179,expectation_shapes_perceived_time,2022.2.4,119.86340368554725,
,,,,,,,,,10,0,10,0,,,,,fam,0.499396400002297,0.499396400002297,270.0,2.499016899964772,2.499016899964772,,,,,,,,,,,,,,,,,,,,,,,,,,,,,,,,,,,,p15_base2_01,001,2023-05-15_13h40.35.179,expectation_shapes_perceived_time,2022.2.4,119.86340368554725,
,,,,,,,,,11,0,11,0,,,,,fam,0.4984899000264704,0.4984899000264704,270.0,2.498994900030084,2.498994900030084,,,,,,,,,,,,,,,,,,,,,,,,,,,,,,,,,,,,p15_base2_01,001,2023-05-15_13h40.35.179,expectation_shapes_perceived_time,2022.2.4,119.86340368554725,
,,,,,,,,,12,0,12,0,,,,,fam,0.49918130005244166,0.49918130005244166,270.0,2.499677000043448,2.499677000043448,,,,,,,,,,,,,,,,,,,,,,,,,,,,,,,,,,,,p15_base2_01,001,2023-05-15_13h40.35.179,expectation_shapes_perceived_time,2022.2.4,119.86340368554725,
,,,,,,,,,13,0,13,0,,,,,fam,0.4981838999665342,0.4981838999665342,270.0,2.498713199980557,2.498713199980557,,,,,,,,,,,,,,,,,,,,,,,,,,,,,,,,,,,,p15_base2_01,001,2023-05-15_13h40.35.179,expectation_shapes_perceived_time,2022.2.4,119.86340368554725,
,,,,,,,,,14,0,14,0,,,,,fam,0.49893119995249435,0.49893119995249435,270.0,2.4986038999632,2.4986038999632,,,,,,,,,,,,,,,,,,,,,,,,,,,,,,,,,,,,p15_base2_01,001,2023-05-15_13h40.35.179,expectation_shapes_perceived_time,2022.2.4,119.86340368554725,
,,,,,,,,,15,0,15,0,,,,,fam,0.4985029000090435,0.4985029000090435,270.0,2.498626200016588,2.498626200016588,,,,,,,,,,,,,,,,,,,,,,,,,,,,,,,,,,,,p15_base2_01,001,2023-05-15_13h40.35.179,expectation_shapes_perceived_time,2022.2.4,119.86340368554725,
,,,,,,,,,16,0,16,0,,,,,fam,0.4962167000048794,0.4962167000048794,270.0,2.496112200024072,2.496112200024072,,,,,,,,,,,,,,,,,,,,,,,,,,,,,,,,,,,,p15_base2_01,001,2023-05-15_13h40.35.179,expectation_shapes_perceived_time,2022.2.4,119.86340368554725,
,,,,,,,,,17,0,17,0,,,,,fam,0.49854970001615584,0.49854970001615584,270.0,2.498240299988538,2.498240299988538,,,,,,,,,,,,,,,,,,,,,,,,,,,,,,,,,,,,p15_base2_01,001,2023-05-15_13h40.35.179,expectation_shapes_perceived_time,2022.2.4,119.86340368554725,
,,,,,,,,,18,0,18,0,,,,,fam,0.49914989998796955,0.49914989998796955,270.0,2.49848710000515,2.49848710000515,,,,,,,,,,,,,,,,,,,,,,,,,,,,,,,,,,,,p15_base2_01,001,2023-05-15_13h40.35.179,expectation_shapes_perceived_time,2022.2.4,119.86340368554725,
,,,,,,,,,19,0,19,0,,,,,fam,0.49864200002048165,0.49864200002048165,270.0,2.4990945999743417,2.4990945999743417,,,,,,,,,,,,,,,,,,,,,,,,,,,,,,,,,,,,p15_base2_01,001,2023-05-15_13h40.35.179,expectation_shapes_perceived_time,2022.2.4,119.86340368554725,
,,,,,,,,,,,,,0,0,0,0,test,,,,,,red,0.7457009669081395,0.7416666666666667,2.3000376999843866,0.9909095999901183,2.269999822601676e-05,2e-05,0.03378310002153739,0.7418181999819353,0.7750873999902979,1.9997595999739133,2.0337351000052877,2.3000376999843866,2.3000376999843866,2.6003057999769226,3.1753135999897495,0.8752759000053629,36.95888789999299,34.6588502000086,33.78357430000324,0.33859,0.1292209963982168,0.07178944244345378,36.95888789999299,0.10592915194216523,-0.10310579384934485,space,34.35871870000847,,,,,,,,p15_base2_01,001,2023-05-15_13h40.35.179,expectation_shapes_perceived_time,2022.2.4,119.86340368554725,
,,,,,,,,,,,,,1,0,1,0,test,,,,,,green,1.674481127774125,1.675,2.299753099970985,0.9979756000102498,1.3499986380338669e-05,1e-05,0.033159199985675514,1.6744344999897294,1.707759199955035,1.9994058999582194,2.032768099976238,2.299753099970985,2.299753099970985,2.5996106999809854,2.6915274999919347,0.39177440002094954,14.416533799958415,12.11678069998743,11.72500629996648,1.30966,-0.12217327346573244,-0.08321947612883225,14.416533799958415,-0.1261659977315231,0.0770320126499317,space,11.81554080004571,,,,,,,,p15_base2_01,001,2023-05-15_13h40.35.179,expectation_shapes_perceived_time,2022.2.4,119.86340368554725,
,,,,,,,,,,,,,2,0,2,0,test,,,,,,green,0.9002552800451658,0.9,2.299776599975303,0.9987696000025608,1.3499986380338669e-05,1e-05,,0.8993248000042513,0.9326593999867328,1.999744999979157,,2.299776599975303,2.299776599975303,2.5997252999804914,2.7912552999914624,0.49147870001615956,8.624659699969925,6.324883099994622,5.833404399978463,0.75468,0.10297870948401318,-0.10605270081189415,8.624659699969925,0.04556721191454147,-0.14062510143934187,space,6.02325699996436,,,,,,,,p15_base2_01,001,2023-05-15_13h40.35.179,expectation_shapes_perceived_time,2022.2.4,119.86340368554725,
,,,,,,,,,,,,,3,0,3,0,test,,,,,,red,0.48419490249940317,0.48333333333333334,2.3000303999870084,0.9984869000036269,1.3399985618889332e-05,1e-05,0.03361059998860583,0.48373729997547343,0.5168941000010818,1.9996899999678135,2.033034099964425,2.3000303999870084,2.3000303999870084,2.600157999957446,2.4748845999711193,0.1748541999841109,14.799759899964556,12.499729499977548,12.324875299993437,1.73786,-0.1084376295899699,0.10046427447306035,14.799759899964556,0.14764132206413821,0.0073368914155340055,space,12.197548900032416,,,,,,,,p15_base2_01,001,2023-05-15_13h40.35.179,expectation_shapes_perceived_time,2022.2.4,119.86340368554725,
,,,,,,,,,,,,,4,0,4,0,test,,,,,,green,0.2306210998931465,0.23333333333333334,2.3002350999740884,0.9988972000428475,2.719997428357601e-05,3e-05,0.03341059997910634,0.2335919999750331,0.26651380001567304,2.000210399972275,2.0331930000102147,2.3002350999740884,2.3002350999740884,2.5996199999935925,2.500295299978461,0.20006020000437275,6.124695600010455,3.8244605000363663,3.6244003000319935,0.30448,0.12080228709552383,0.08519740247789576,6.124695600010455,0.09797361627331345,0.11069309134186944,space,3.517468599951826,,,,,,,,p15_base2_01,001,2023-05-15_13h40.35.179,expectation_shapes_perceived_time,2022.2.4,119.86340368554725,
,,,,,,,,,,,,,5,0,5,0,test,,,,,,red,0.7267273491287507,0.725,2.3000931999995373,0.9987798999645747,4.379998426884413e-05,4e-05,,0.7254246000084095,0.7588057999964803,2.000100100005511,,2.3000931999995373,2.3000931999995373,2.6001783999963664,2.3000931999995373,0.0,5.875121699995361,3.575028499995824,3.575028499995824,0.45572,0.14639579258299823,0.02049541096161975,5.875121699995361,0.11188324970252742,-0.09661225798257603,space,3.272929699975066,,,,,,,,p15_base2_01,001,2023-05-15_13h40.35.179,expectation_shapes_perceived_time,2022.2.4,119.86340368554725,
,,,,,,,,,,,,,6,0,6,0,test,,,,,,green,0.17141393022369075,0.175,2.300331400008872,0.9984836000367068,1.3399985618889332e-05,1e-05,0.03303440002491698,0.17500240000663325,0.20855719997780398,1.9997057000291534,2.033033700019587,2.300331400008872,2.300331400008872,2.6001761999796145,2.342296799994074,0.04196539998520166,5.725448500015773,3.4251171000069007,3.383151700021699,0.39146,0.13931297677316357,0.04943363691950966,5.725448500015773,0.07581273418684374,0.12690240065343483,space,3.1182114999974146,,,,,,,,p15_base2_01,001,2023-05-15_13h40.35.179,expectation_shapes_perceived_time,2022.2.4,119.86340368554725,
,,,,,,,,,,,,,7,0,7,0,test,,,,,,green,0.3988310217158364,0.4,2.300152199983131,0.997837700007949,1.2999982573091984e-05,1e-05,,0.3998966999934055,0.43322940001962706,2.000636000011582,,2.300152199983131,2.300152199983131,2.600234300014563,2.3087312999996357,0.008579100016504526,18.000463899981696,15.700311699998565,15.69173259998206,0.28197,0.11448089037838657,0.09351960059079466,18.000463899981696,0.14041980668885048,0.0461959721832519,space,15.393438099999912,,,,,,,,p15_base2_01,001,2023-05-15_13h40.35.179,expectation_shapes_perceived_time,2022.2.4,119.86340368554725,
,,,,,,,,,,,,,8,0,8,0,test,,,,,,red,0.7740359655530911,0.775,2.300354700011667,0.9977836000034586,1.5300000086426735e-05,2e-05,,0.7749862000346184,0.8083094999892637,2.0003089000238106,,2.300354700011667,2.300354700011667,2.6002242999966256,2.391925200005062,0.09157049999339506,5.09175880003022,2.7914041000185534,2.6998336000251584,0.8726,0.0575979508812209,-0.13614061117379483,5.09175880003022,0.09634368175932553,-0.11211460628101819,space,2.4882667000056244,,,,,,,,p15_base2_01,001,2023-05-15_13h40.35.179,expectation_shapes_perceived_time,2022.2.4,119.86340368554725,
,,,,,,,,,,,,,9,0,9,0,test,,,,,,green,0.5572825191187678,0.5583333333333333,2.2995539999683388,0.9989824000513181,5.1799986977130175e-05,5e-05,0.03319039999041706,0.5582603000220843,0.5915964000159875,1.9999867000151426,2.0333047999884,2.2995539999683388,2.2995539999683388,2.599710199981928,2.708191799989436,0.40863780002109706,5.266181399987545,2.966627400019206,2.557989599998109,0.77151,0.09723138725021208,-0.11134562088330739,5.266181399987545,0.14543632981635957,-0.026458721171610033,space,2.660718099970836,,,,,,,,p15_base2_01,001,2023-05-15_13h40.35.179,expectation_shapes_perceived_time,2022.2.4,119.86340368554725,
,,,,,,,,,,,,,10,0,10,0,test,,,,,,green,1.6663863931553753,1.6666666666666667,2.2996807000017725,0.9909082000376657,2.6699970476329327e-05,3e-05,,1.6657433999935165,1.699942999985069,1.9992685000179335,,2.2996807000017725,2.2996807000017725,2.5999283000128344,2.7247593000065535,0.42507860000478104,5.6663222999777645,3.366641599975992,2.941562999971211,1.29085,-0.1170440317654167,-0.09029111021903573,5.6663222999777645,-0.128083944541094,0.07379900478518582,space,3.066449499980081,,,,,,,,p15_base2_01,001,2023-05-15_13h40.35.179,expectation_shapes_perceived_time,2022.2.4,119.86340368554725,
,,,,,,,,,,,,,11,0,11,0,test,,,,,,red,0.18776566998933092,0.19166666666666665,2.299691299966071,0.9982975000166334,1.4199991710484028e-05,1e-05,0.03322909999405965,0.19177510001463816,0.2252151999855414,1.99963239999488,2.03318179998314,2.299691299966071,2.299691299966071,2.600547700014431,2.416286099993158,0.11659480002708733,4.675475099997129,2.3757838000310585,2.259189000003971,0.29085,0.1170440317654167,0.09029111021903573,4.675475099997129,0.08222889761554308,0.12284216846597287,space,2.0708343000151217,,,,,,,,p15_base2_01,001,2023-05-15_13h40.35.179,expectation_shapes_perceived_time,2022.2.4,119.86340368554725,
,,,,,,,,,,,,,12,0,12,0,test,,,,,,red,1.4405490765889142,1.4416666666666667,2.2995018999790773,0.9985271999612451,1.3399985618889332e-05,1e-05,0.032925000006798655,1.4411988999927416,1.4744735999847762,1.9995501000084914,2.0329045999678783,2.2995018999790773,2.2995018999790773,2.599648699979298,2.3659961000084877,0.06649420002941042,6.5494513000012375,4.24994940002216,4.18345519999275,1.80811,-0.08381338057575473,0.12176660951571913,6.5494513000012375,-0.1452527133787726,-0.02744884719972886,space,3.9481383999809623,,,,,,,,p15_base2_01,001,2023-05-15_13h40.35.179,expectation_shapes_perceived_time,2022.2.4,119.86340368554725,
,,,,,,,,,,,,,13,0,13,0,test,,,,,,red,0.8016625142502969,0.8,2.3004257999709807,0.9983524999697693,1.969997538253665e-05,2e-05,0.033569300023373216,0.8003794000251219,0.8337971000000834,2.0003942999755964,2.0336355000035837,2.3004257999709807,2.3004257999709807,2.600368299987167,2.4583964999765158,0.15797070000553504,6.217373099992983,3.9169473000220023,3.7589766000164673,0.50699,0.14778782056388784,-0.0032480839684370954,6.217373099992983,0.08626267579611223,-0.12004391163647059,space,3.6156198999960907,,,,,,,,p15_base2_01,001,2023-05-15_13h40.35.179,expectation_shapes_perceived_time,2022.2.4,119.86340368554725,
,,,,,,,,,,,,,14,0,14,0,test,,,,,,green,1.1526410555182152,1.15,2.3001023000106215,0.9982117000035942,1.360004534944892e-05,1e-05,,1.1504137000301853,1.1837375000468455,1.9996813000179827,,2.3001023000106215,2.3001023000106215,2.6001296000322327,2.6164741000393406,0.316371800028719,5.6335831000469625,3.333480800036341,3.017109000007622,1.3642,-0.13457356761610573,-0.06116980346186625,5.6335831000469625,-0.06820097435795094,-0.13115036047650058,space,3.029875100008212,,,,,,,,p15_base2_01,001,2023-05-15_13h40.35.179,expectation_shapes_perceived_time,2022.2.4,119.86340368554725,
,,,,,,,,,,,,,15,0,15,0,test,,,,,,green,1.4219760229444998,1.4166666666666667,2.3004383000079542,0.9979842000175267,1.2300035450607538e-05,1e-05,0.03371059999335557,1.4167851000092924,1.4503723999951035,2.0001956000342034,2.0335987000144087,2.3004383000079542,2.3004383000079542,2.6002730000182055,2.5667697000317276,0.2663314000237733,5.064615200040862,2.7641769000329077,2.4978455000091344,1.60642,-0.1396386493010296,0.04850605712562081,5.064615200040862,-0.14340481639488342,-0.03587267192780184,space,2.4600809999974445,,,,,,,,p15_base2_01,001,2023-05-15_13h40.35.179,expectation_shapes_perceived_time,2022.2.4,119.86340368554725,
,,,,,,,,,,,,,16,0,16,0,test,,,,,,red,1.2867847339998602,1.2833333333333332,2.3004104999708943,0.9986311999964528,4.020001506432891e-05,4e-05,,1.283601799979806,1.3170926999882795,2.0004502999945544,,2.3004104999708943,2.3004104999708943,2.6002869000076316,3.2666557999909855,0.9662453000200912,6.57563510001637,4.275224600045476,3.308979300025385,1.42369,-0.14359561025068807,-0.03510114917239042,6.57563510001637,-0.11588236716857354,-0.09177726807820027,space,3.9702278000186197,,,,,,,,p15_base2_01,001,2023-05-15_13h40.35.179,expectation_shapes_perceived_time,2022.2.4,119.86340368554725,
,,,,,,,,,,,,,17,0,17,0,test,,,,,,green,0.6950254875347732,0.6916666666666667,2.2998196000116877,0.998282200016547,1.3499986380338669e-05,1e-05,0.03310679999412969,0.691568800015375,0.7248383000260219,2.0000652000308037,2.0331028000218794,2.2998196000116877,2.2998196000116877,2.5999222000245936,2.4330673000076786,0.13324769999599084,6.0412723000044934,3.7414526999928057,3.608204999996815,0.44587,0.14569113281435223,0.02501766927115139,6.0412723000044934,0.12093495610939153,-0.08500897803943688,space,3.434398700017482,,,,,,,,p15_base2_01,001,2023-05-15_13h40.35.179,expectation_shapes_perceived_time,2022.2.4,119.86340368554725,
,,,,,,,,,,,,,18,0,18,0,test,,,,,,green,0.7829053711367439,0.7833333333333333,2.300188699970022,0.9985695999930613,5.289999535307288e-05,5e-05,0.03307339997263625,0.7829927999991924,0.8164767000125721,2.0001525999978185,2.033188599976711,2.300188699970022,2.300188699970022,2.5998239999753423,4.182884000008926,1.882695300038904,8.100071699998807,5.799883000028785,3.9171876999898814,0.71774,0.1145659823480297,-0.09341533945300882,8.100071699998807,0.0931827194592614,-0.11475526458802014,space,5.496732699975837,,,,,,,,p15_base2_01,001,2023-05-15_13h40.35.179,expectation_shapes_perceived_time,2022.2.4,119.86340368554725,
,,,,,,,,,,,,,19,0,19,0,test,,,,,,red,0.27581023005832944,0.275,2.300690600008238,0.9978610000107437,3.960001049563289e-05,4e-05,0.033399100007954985,0.2751960000023246,0.3088191000279039,2.0005725999944843,2.0338396999868564,2.300690600008238,2.300690600008238,2.600697999994736,2.4171872999868356,0.11649669997859746,7.442494300019462,5.1418037000112236,5.025307000032626,0.6994,0.11975429281451397,-0.0866642908526088,7.442494300019462,0.11264988307936274,0.09571725966979952,space,4.83713960001478,,,,,,,,p15_base2_01,001,2023-05-15_13h40.35.179,expectation_shapes_perceived_time,2022.2.4,119.86340368554725,
,,,,,,,,,0,0,0,0,,,,,fam,0.5411377999698743,0.5411377999698743,270.0,2.5408455999568105,2.5408455999568105,,,,,,,,,,,,,,,,,,,,,,,,,,,,,,,,,,,,p15_base2_01,001,2023-05-15_13h40.35.179,expectation_shapes_perceived_time,2022.2.4,119.86340368554725,
,,,,,,,,,1,0,1,0,,,,,fam,0.49870880000526085,0.49870880000526085,270.0,2.4991237000213005,2.4991237000213005,,,,,,,,,,,,,,,,,,,,,,,,,,,,,,,,,,,,p15_base2_01,001,2023-05-15_13h40.35.179,expectation_shapes_perceived_time,2022.2.4,119.86340368554725,
,,,,,,,,,2,0,2,0,,,,,fam,0.49813910003285855,0.49813910003285855,270.0,2.49836480000522,2.49836480000522,,,,,,,,,,,,,,,,,,,,,,,,,,,,,,,,,,,,p15_base2_01,001,2023-05-15_13h40.35.179,expectation_shapes_perceived_time,2022.2.4,119.86340368554725,
,,,,,,,,,3,0,3,0,,,,,fam,0.4985783000010997,0.4985783000010997,270.0,2.4985854999977164,2.4985854999977164,,,,,,,,,,,,,,,,,,,,,,,,,,,,,,,,,,,,p15_base2_01,001,2023-05-15_13h40.35.179,expectation_shapes_perceived_time,2022.2.4,119.86340368554725,
,,,,,,,,,4,0,4,0,,,,,fam,0.49923180002951995,0.49923180002951995,270.0,2.49943790002726,2.49943790002726,,,,,,,,,,,,,,,,,,,,,,,,,,,,,,,,,,,,p15_base2_01,001,2023-05-15_13h40.35.179,expectation_shapes_perceived_time,2022.2.4,119.86340368554725,
,,,,,,,,,,,,,0,0,0,0,testSingleStim,,,,,,red,1.412004384197007,1.4083333333333332,0.03327670000726357,0.9983360000187531,1.4699995517730713e-05,1e-05,0.03334540000651032,1.4084750000038184,1.4417500999988988,1.99973380001029,2.033365099981893,2.299759500019718,2.299759500019718,2.6015051000285894,2.299759500019718,0.0,3.7003244000370614,1.4005649000173435,1.4005649000173435,1.70284,-0.11881197280808171,0.08795172013065788,,,,None,,,,,,,,,p15_base2_01,001,2023-05-15_13h40.35.179,expectation_shapes_perceived_time,2022.2.4,119.86340368554725,
,,,,,,,,,,,,,1,0,1,0,testSingleStim,,,,,,red,1.5275675747197457,1.525,0.002529399993363768,0.9960858999984339,1.360004534944892e-05,1e-05,0.033218400028999895,1.5250005000270903,1.5587496000225656,2.000430900021456,2.033437700010836,2.2999988000374287,2.2999988000374287,2.5997122999979183,2.8247626000083983,0.5247637999709696,5.258301499998197,2.9583026999607682,2.4335388999897987,1.60655,-0.1396188311865346,0.04856307171705551,,,,None,,,,,,,,,p15_base2_01,001,2023-05-15_13h40.35.179,expectation_shapes_perceived_time,2022.2.4,119.86340368554725,
,,,,,,,,,,,,,2,0,2,0,testSingleStim,,,,,,green,1.0029521659459963,1.0,0.0027764999540522695,0.9967106999829412,1.309998333454132e-05,1e-05,0.033788700005970895,1.0000321000115946,1.0333443999988958,1.9997162999934517,2.0331079000025056,2.3002724000252783,2.3002724000252783,2.600337000039872,2.3002724000252783,0.0,4.867084400029853,2.5668120000045747,2.5668120000045747,0.96719,0.015210913636496399,-0.14703883181946517,,,,None,,,,,,,,,p15_base2_01,001,2023-05-15_13h40.35.179,expectation_shapes_perceived_time,2022.2.4,119.86340368554725,
,,,,,,,,,,,,,3,0,3,0,testSingleStim,,,,,,green,1.6871154193779112,1.6833333333333333,0.0022894999710842967,0.99732679995941,1.3499986380338669e-05,1e-05,0.033124999958090484,1.6830630999756977,1.7162642999901436,1.9997423999593593,,2.2996812000055797,2.2996812000055797,2.600076299975626,2.6080177999683656,0.30833659996278584,3.7412327000056393,1.4415515000000596,1.1332149000372738,1.69414,-0.12117028304195096,0.08467320983654404,,,,None,,,,,,,,,p15_base2_01,001,2023-05-15_13h40.35.179,expectation_shapes_perceived_time,2022.2.4,119.86340368554725,
,,,,,,,,,,,,,4,0,4,0,testSingleStim,,,,,,red,1.5614840516934771,1.5583333333333333,0.002365000022109598,0.997282600030303,1.3399985618889332e-05,1e-05,0.033750300004612654,1.5583513000165112,1.592110599973239,2.0002148000057787,2.0337269000010565,2.300322299997788,2.300322299997788,2.6002260000095703,2.758617800020147,0.4582955000223592,3.758628499985207,1.458306199987419,1.0000106999650598,1.65405,-0.13084808811345758,0.06877912323912513,,,,None,,,,,,,,,p15_base2_01,001,2023-05-15_13h40.35.179,expectation_shapes_perceived_time,2022.2.4,119.86340368554725,
,,,,,,,,,,,,,5,0,5,0,testSingleStim,,,,,,red,0.9096011788742341,0.9083333333333333,0.0029305999632924795,0.9968186999903992,1.71000137925148e-05,2e-05,,0.9080539999995381,0.9413595999940298,2.0003715000348166,2.033246800012421,2.3000038000172935,2.3000038000172935,2.60014220001176,2.7669324000016786,0.4669285999843851,3.9163246999960393,1.6163208999787457,1.1493922999943607,1.63607,-0.13452233239522982,0.06128239586893802,,,,None,,,,,,,,,p15_base2_01,001,2023-05-15_13h40.35.179,expectation_shapes_perceived_time,2022.2.4,119.86340368554725,
,,,,,,,,,,,,,6,0,6,0,testSingleStim,,,,,,red,1.2661688932239292,1.2666666666666666,0.0036501999711617827,0.99879390001297,1.2699980288743973e-05,1e-05,,1.265886400011368,1.2992253000265919,1.999554599984549,2.032852799980901,2.2994905000086874,2.2994905000086874,2.5995275999885052,2.3080452000140212,0.00855470000533387,3.816236199985724,1.5167456999770366,1.5081909999717027,1.51623,-0.14763148593168557,0.007532218669983956,,,,None,,,,,,,,,p15_base2_01,001,2023-05-15_13h40.35.179,expectation_shapes_perceived_time,2022.2.4,119.86340368554725,
,,,,,,,,,,,,,7,0,7,0,testSingleStim,,,,,,red,0.4453139238271265,0.44166666666666665,0.0021894999663345516,0.9963974999845959,1.279998105019331e-05,1e-05,0.033682200009934604,0.44152609998127446,0.47470760002033785,1.999687500006985,2.0329422000213526,2.2997394999838434,2.2997394999838434,2.6000679000280797,2.2997394999838434,0.0,3.6251231000060216,1.3253836000221781,1.3253836000221781,0.43797,0.14502580592449846,0.028623514327203642,,,,None,,,,,,,,,p15_base2_01,001,2023-05-15_13h40.35.179,expectation_shapes_perceived_time,2022.2.4,119.86340368554725,
,,,,,,,,,,,,,8,0,8,0,testSingleStim,,,,,,green,0.800422191240859,0.8,0.002330699993763119,0.9973059000330977,1.3399985618889332e-05,1e-05,,0.7999563000048511,0.8337720999843441,1.9998742999741808,,2.2997605999698862,2.2997605999698862,2.6001168999937363,2.841558600019198,0.5417980000493117,4.808688200020697,2.5089276000508107,1.967129600001499,0.88174,0.05366439122420998,-0.13773860414213895,,,,None,,,,,,,,,p15_base2_01,001,2023-05-15_13h40.35.179,expectation_shapes_perceived_time,2022.2.4,119.86340368554725,
,,,,,,,,,,,,,9,0,9,0,testSingleStim,,,,,,green,0.6647482554848316,0.6666666666666666,0.002459899988025427,0.9971638999995776,1.4499993994832039e-05,1e-05,0.03316580003593117,0.6667708000168204,0.6999421000364237,1.9997373000369407,2.0332075000042096,2.299503200047184,2.299503200047184,2.599852900020778,2.299503200047184,0.0,3.7082711000111885,1.4087678999640048,1.4087678999640048,0.7601,0.10115772725078669,-0.10779102084100223,,,,None,,,,,,,,,p15_base2_01,001,2023-05-15_13h40.35.179,expectation_shapes_perceived_time,2022.2.4,119.86340368554725,
,,,,,,,,,,,,,10,0,10,0,testSingleStim,,,,,,red,0.9120012385060876,0.9083333333333333,0.002196699962951243,0.9976586999837309,1.4200049918144941e-05,1e-05,0.03307260002475232,0.9083393000182696,0.9414704000228085,1.9994443000177853,2.0326731000095606,2.2998054000199772,2.2998054000199772,2.5995497000403702,2.7165169999934733,0.41671159997349605,4.241647800023202,1.9418424000032246,1.5251308000297286,0.88384,0.0527534974770036,-0.13809003751333296,,,,None,,,,,,,,,p15_base2_01,001,2023-05-15_13h40.35.179,expectation_shapes_perceived_time,2022.2.4,119.86340368554725,
,,,,,,,,,,,,,11,0,11,0,testSingleStim,,,,,,green,0.25029889444467474,0.25,0.002317700011190027,0.9979004000197165,1.3599987141788006e-05,1e-05,0.032669899985194206,0.2492813999997452,0.2829267000197433,1.9995321999886073,2.0329571000183932,2.299579599988647,2.299579599988647,2.5996571999858133,2.357944299990777,0.05836470000213012,4.524357500020415,2.224777900031768,2.1664132000296377,0.47459,0.14735273278157232,0.011788218622525786,,,,None,,,,,,,,,p15_base2_01,001,2023-05-15_13h40.35.179,expectation_shapes_perceived_time,2022.2.4,119.86340368554725,
,,,,,,,,,,,,,12,0,12,0,testSingleStim,,,,,,green,1.5310514694115689,1.5333333333333332,0.002680899982806295,0.997292899992317,1.2699980288743973e-05,1e-05,0.033723699976690114,1.533455899974797,1.5665809999918565,1.9997463999898173,2.0334902000031434,2.3003814999829046,2.3003814999829046,2.600508799951058,2.5752283000038005,0.2748468000208959,3.5084956999635324,1.2081141999806277,0.9332673999597318,1.58384,-0.14272521509630254,0.03848769845293552,,,,None,,,,,,,,,p15_base2_01,001,2023-05-15_13h40.35.179,expectation_shapes_perceived_time,2022.2.4,119.86340368554725,
,,,,,,,,,,,,,13,0,13,0,testSingleStim,,,,,,red,1.0682411573940576,1.0666666666666667,0.002556100022047758,0.997157400008291,1.2899981811642647e-05,1e-05,,1.0663597999955527,1.0997172999777831,2.0000670999870636,2.0332617000094615,2.299991099978797,2.299991099978797,2.5999120000051335,2.516676700033713,0.216685600054916,3.8002810000325553,1.5002899000537582,1.2836042999988422,0.96896,0.01439229275928645,-0.14712121487270596,,,,None,,,,,,,,,p15_base2_01,001,2023-05-15_13h40.35.179,expectation_shapes_perceived_time,2022.2.4,119.86340368554725,
,,,,,,,,,,,,,14,0,14,0,testSingleStim,,,,,,green,0.29836260696779127,0.3,0.0024243000079877675,0.9971636999980547,2.589996438473463e-05,3e-05,,0.2999394999933429,0.33370779996039346,1.9999695000005886,2.0335991999600083,2.2998883999534883,2.2998883999534883,2.6001376999774948,2.3084013999905437,0.008513000037055463,4.075034499983303,1.775146100029815,1.7666330999927595,0.66525,0.12834674835520357,-0.07334099906011632,,,,None,,,,,,,,,p15_base2_01,001,2023-05-15_13h40.35.179,expectation_shapes_perceived_time,2022.2.4,119.86340368554725,
,,,,,,,,,,,,,15,0,15,0,testSingleStim,,,,,,green,0.3469871815942464,0.35,0.002325100009329617,0.9973795000114478,1.5400000847876072e-05,2e-05,0.03328239999245852,0.3501403999980539,0.3833666000282392,2.0004267999902368,2.03339529997902,2.300418200029526,2.300418200029526,2.600057100004051,2.300418200029526,0.0,4.875177200010512,2.574758999980986,2.574758999980986,0.5261,0.14732671510560774,-0.012109045077173239,,,,None,,,,,,,,,p15_base2_01,001,2023-05-15_13h40.35.179,expectation_shapes_perceived_time,2022.2.4,119.86340368554725,
,,,,,,,,,,,,,16,0,16,0,testSingleStim,,,,,,red,0.256503270754318,0.2583333333333333,0.002387200016528368,0.9973002999904566,1.3699987903237343e-05,1e-05,0.03328539995709434,0.2576147000072524,0.2910277000046335,1.9996997999842279,2.033237099996768,2.299920799967367,2.299920799967367,2.599964599998202,2.299920799967367,0.0,3.8750570999691263,1.575136300001759,1.575136300001759,0.25461,0.10603075535990689,0.10300130520676669,,,,None,,,,,,,,,p15_base2_01,001,2023-05-15_13h40.35.179,expectation_shapes_perceived_time,2022.2.4,119.86340368554725,
,,,,,,,,,,,,,17,0,17,0,testSingleStim,,,,,,red,1.4225313324342634,1.425,0.0022947000106796622,0.9966642999788746,1.4699995517730713e-05,1e-05,0.03404260001843795,1.425191399990581,1.4586094000260346,2.000102300022263,2.033236699993722,2.3002600999898277,2.3002600999898277,2.60036660003243,2.3584420999977738,0.058182000007946044,4.5334845000179484,2.2332244000281207,2.1750424000201747,1.36452,-0.13463497680978584,-0.061034522820436254,,,,None,,,,,,,,,p15_base2_01,001,2023-05-15_13h40.35.179,expectation_shapes_perceived_time,2022.2.4,119.86340368554725,
,,,,,,,,,,,,,18,0,18,0,testSingleStim,,,,,,green,1.1582789121518227,1.1583333333333332,0.0024055999820120633,0.9981759999645874,1.4899997040629387e-05,1e-05,,1.1585101000382565,1.192019000009168,2.0002877000370063,,2.300235800037626,2.300235800037626,2.6003275000257418,2.450349799997639,0.15011399996001273,4.2169933000113815,1.9167574999737553,1.7666435000137426,0.90982,0.04132158867758431,-0.14193067415344177,,,,None,,,,,,,,,p15_base2_01,001,2023-05-15_13h40.35.179,expectation_shapes_perceived_time,2022.2.4,119.86340368554725,
,,,,,,,,,,,,,19,0,19,0,testSingleStim,,,,,,green,0.4334172354348633,0.43333333333333335,0.002304700028616935,0.9964681999990717,1.9499973859637976e-05,2e-05,0.033486599975731224,0.4337505999719724,0.46724969998467714,2.000442899996415,2.033518699987326,2.300390599993989,2.300390599993989,2.6007563999737613,2.300390599993989,0.0,3.9419728000066243,1.6415822000126354,1.6415822000126354,0.51026,0.14774665816225824,-0.004766021231040589,,,,None,,,,,,,,,p15_base2_01,001,2023-05-15_13h40.35.179,expectation_shapes_perceived_time,2022.2.4,119.86340368554725,
,,,,,,,,,,,,,20,0,20,0,testSingleStim,,,,,,green,0.5701769518159517,0.5666666666666667,0.002321199979633093,0.997294900007546,3.619998460635543e-05,4e-05,0.03322969999862835,0.5666137000080198,0.5997495999909006,2.000166099984199,,2.300116500002332,2.300116500002332,2.5998968000058085,2.300116500002332,0.0,4.308329000021331,2.008212500018999,2.008212500018999,0.5,0.14782350948509485,0.0,,,,None,,,,,,,,,p15_base2_01,001,2023-05-15_13h40.35.179,expectation_shapes_perceived_time,2022.2.4,119.86340368554725,
,,,,,,,,,,,,,21,0,21,0,testSingleStim,,,,,,green,1.490345577572373,1.4916666666666667,0.0024793000193312764,0.9968984000151977,4.050001734867692e-05,4e-05,0.03328450000844896,1.4922115000081249,1.5252519000205211,2.0002782000228763,2.0337443000171334,2.3003260999685153,2.3003260999685153,2.6004692999995314,2.4254883999819867,0.1251623000134714,4.1588178999954835,1.8584918000269681,1.7333295000134967,1.28685,-0.1159004053690722,-0.09175448758384883,,,,None,,,,,,,,,p15_base2_01,001,2023-05-15_13h40.35.179,expectation_shapes_perceived_time,2022.2.4,119.86340368554725,
,,,,,,,,,,,,,22,0,22,0,testSingleStim,,,,,,red,1.2392475553134368,1.2416666666666667,0.0027478999691084027,0.9967927999678068,1.4100049156695604e-05,1e-05,0.03323270002147183,1.2416963000432588,1.2750570000498556,2.0003479000297375,2.0332492000306956,2.299952600034885,2.299952600034885,2.5999480000464246,2.716780800023116,0.41682819998823106,4.424976900045294,2.125024300010409,1.7081961000221781,1.23554,-0.09967286372791628,-0.10916551741628926,,,,None,,,,,,,,,p15_base2_01,001,2023-05-15_13h40.35.179,expectation_shapes_perceived_time,2022.2.4,119.86340368554725,
,,,,,,,,,,,,,23,0,23,0,testSingleStim,,,,,,green,1.797439504749687,1.7916666666666667,0.0029947999864816666,0.9982171999872662,2.239999594166875e-05,2e-05,,1.7920824000029825,1.82543089997489,2.0003936999710277,,2.3000177000067197,2.3000177000067197,2.5999474999844097,2.3000177000067197,0.0,3.941398599999957,1.641380899993237,1.641380899993237,1.82396,-0.07764713712906618,0.12578836214908723,,,,None,,,,,,,,,p15_base2_01,001,2023-05-15_13h40.35.179,expectation_shapes_perceived_time,2022.2.4,119.86340368554725,
,,,,,,,,,,,,,24,0,24,0,testSingleStim,,,,,,green,0.8122542311432901,0.8083333333333333,0.0024191999691538513,0.9984523999737576,6.890000076964498e-05,7e-05,0.03329930000472814,0.807859200052917,0.841290200012736,2.000028300040867,2.0330169000080787,2.299645100021735,2.299645100021735,2.599707200017292,2.4081912000547163,0.10854610003298149,3.6580445000436157,1.3583994000218809,1.2498532999888994,0.83344,0.07387072684333137,-0.12804259319510772,,,,None,,,,,,,,,p15_base2_01,001,2023-05-15_13h40.35.179,expectation_shapes_perceived_time,2022.2.4,119.86340368554725,
,,,,,,,,,,,,,25,0,25,0,testSingleStim,,,,,,red,1.6199047245121019,1.6166666666666667,0.0021805999567732215,0.997089899959974,1.2699980288743973e-05,1e-05,,1.6173733999603428,1.6505027000093833,2.0005346999969333,,2.300310399965383,2.300310399965383,2.600314099981915,2.300310399965383,0.0,3.5256711000110954,1.2253607000457123,1.2253607000457123,1.4914,-0.14776954945063225,-0.003993771606773845,,,,None,,,,,,,,,p15_base2_01,001,2023-05-15_13h40.35.179,expectation_shapes_perceived_time,2022.2.4,119.86340368554725,
,,,,,,,,,,,,,26,0,26,0,testSingleStim,,,,,,green,1.641390058021464,1.6416666666666666,0.002214799984358251,0.9970945999957621,5.2499992307275534e-05,5e-05,0.032990199979394674,1.6415490999934264,1.6749172999989241,1.9998855000012554,2.03312909998931,2.3000301999854855,2.3000301999854855,2.60021509998478,2.7499631999526173,0.44993299996713176,3.758791900007054,1.4587617000215687,1.008828700054437,1.50876,-0.147767552233595,0.004066996850465917,,,,None,,,,,,,,,p15_base2_01,001,2023-05-15_13h40.35.179,expectation_shapes_perceived_time,2022.2.4,119.86340368554725,
,,,,,,,,,,,,,27,0,27,0,testSingleStim,,,,,,green,1.547209853184824,1.5416666666666667,0.002248200005851686,0.9961835999856703,3.749999450519681e-05,4e-05,0.03333860001293942,1.5422618000302464,1.5756963000167161,2.0000407000188716,2.0338594000204466,2.300279600021895,2.300279600021895,2.6007829000009224,2.725379300012719,0.42509969999082386,3.250340300030075,0.95006070000818,0.5249610000173561,1.41619,-0.14272872007839332,-0.03847469845591472,,,,None,,,,,,,,,p15_base2_01,001,2023-05-15_13h40.35.179,expectation_shapes_perceived_time,2022.2.4,119.86340368554725,
,,,,,,,,,,,,,28,0,28,0,testSingleStim,,,,,,red,0.8001794373500772,0.8,0.0023304999922402203,0.9971666000201367,1.3499986380338669e-05,1e-05,0.03292219998547807,0.7994746000040323,0.832809499988798,1.9997320999973454,2.0331673999899067,2.299960399977863,2.299960399977863,2.599719499994535,2.6497673999983817,0.3498070000205189,3.5913018999854103,1.2913415000075474,0.9415344999870285,1.40131,-0.14077480189796143,-0.04510260643332746,,,,None,,,,,,,,,p15_base2_01,001,2023-05-15_13h40.35.179,expectation_shapes_perceived_time,2022.2.4,119.86340368554725,
,,,,,,,,,,,,,29,0,29,0,testSingleStim,,,,,,green,0.5284601065758365,0.525,0.00236320000840351,0.9976399000152014,1.3899989426136017e-05,1e-05,0.03330760000972077,0.5250478999805637,0.5581550999777392,1.9998894999735057,2.0333858000230975,2.299815699981991,2.299815699981991,2.5996884999913163,2.299815699981991,0.0,3.733215200016275,1.4333995000342838,1.4333995000342838,0.28265,0.11468110891255831,0.0932739685822141,,,,None,,,,,,,,,p15_base2_01,001,2023-05-15_13h40.35.179,expectation_shapes_perceived_time,2022.2.4,119.86340368554725,
,,,,,,,,,,,,,30,0,30,0,testSingleStim,,,,,,red,1.3960729785662773,1.3916666666666666,0.003056099987588823,0.9970860999892466,1.3400043826550245e-05,1e-05,,1.3910437000449747,1.4243723000399768,1.999390900018625,2.0327890000189655,2.300027300021611,2.300027300021611,2.599983100022655,2.774674500047695,0.47464720002608374,4.224585400021169,1.9245580999995582,1.4499108999734744,1.28629,-0.11573948057742278,-0.0919573955272674,,,,None,,,,,,,,,p15_base2_01,001,2023-05-15_13h40.35.179,expectation_shapes_perceived_time,2022.2.4,119.86340368554725,
,,,,,,,,,,,,,31,0,31,0,testSingleStim,,,,,,red,0.7905553925500928,0.7916666666666666,0.0024130999809131026,0.9973820999730378,0.00015760003589093685,0.00016,0.03290380001999438,0.7916024000151083,0.8251346000470221,1.9998416000162251,2.033364800037816,2.30011170002399,2.30011170002399,2.600171700003557,2.333000000042375,0.03288830001838505,3.666632700012997,1.3665209999890067,1.3336326999706216,0.19978,0.08680604694376828,0.11965157821978871,,,,None,,,,,,,,,p15_base2_01,001,2023-05-15_13h40.35.179,expectation_shapes_perceived_time,2022.2.4,119.86340368554725,
,,,,,,,,,,,,,32,0,32,0,testSingleStim,,,,,,green,1.136332370983164,1.1333333333333333,0.0022265000152401626,0.9971181000000797,1.4599994756281376e-05,1e-05,,1.1334734999691136,1.1670660999952815,1.9999102999572642,,2.299775499966927,2.299775499966927,2.6000884999521077,2.299775499966927,0.0,3.5082676999736577,1.2084922000067309,1.2084922000067309,1.03602,-0.016690706341573644,-0.14687821580584806,,,,None,,,,,,,,,p15_base2_01,001,2023-05-15_13h40.35.179,expectation_shapes_perceived_time,2022.2.4,119.86340368554725,
,,,,,,,,,,,,,33,0,33,0,testSingleStim,,,,,,green,1.695733600991185,1.6916666666666667,0.00224910001270473,0.9976617000065744,1.4400051441043615e-05,1e-05,0.032969300053082407,1.6913536000065506,1.7250310000381432,1.9996257000020705,2.032967000035569,2.2999780000536703,2.2999780000536703,2.599635400052648,2.416353300039191,0.11637529998552054,3.5499835000373423,1.250005499983672,1.1336301999981515,1.76895,-0.0981227846348294,0.11056088409558243,,,,None,,,,,,,,,p15_base2_01,001,2023-05-15_13h40.35.179,expectation_shapes_perceived_time,2022.2.4,119.86340368554725,
,,,,,,,,,,,,,34,0,34,0,testSingleStim,,,,,,green,1.050939576222918,1.05,0.0033069999772123992,0.9967269999906421,1.4699995517730713e-05,1e-05,0.03335879999212921,1.049848299997393,1.0835249000228941,1.9999554000096396,2.0332296999986283,2.299921900033951,2.299921900033951,2.599697500001639,2.4663186999969184,0.16639679996296763,3.5331573000294156,1.2332353999954648,1.0668386000324972,0.96978,0.014015012803367718,-0.14715763443536106,,,,None,,,,,,,,,p15_base2_01,001,2023-05-15_13h40.35.179,expectation_shapes_perceived_time,2022.2.4,119.86340368554725,
,,,,,,,,,,,,,35,0,35,0,testSingleStim,,,,,,red,0.9855913301959098,0.9833333333333333,0.004467200022190809,0.996400400006678,1.2899981811642647e-05,1e-05,,0.9836954000056721,1.0167025999980979,1.9999597999849357,2.033302999974694,2.299983599979896,2.299983599979896,2.6000855999882333,2.67521570000099,0.3752321000210941,3.5663556999643333,1.2663720999844372,0.8911399999633431,0.87959,0.05459648759969656,-0.13737180750891392,,,,None,,,,,,,,,p15_base2_01,001,2023-05-15_13h40.35.179,expectation_shapes_perceived_time,2022.2.4,119.86340368554725,
,,,,,,,,,,,,,36,0,36,0,testSingleStim,,,,,,red,1.2531482485284813,1.25,0.0029173000366427004,0.9985255000065081,1.9700033590197563e-05,2e-05,,1.2502859000233002,1.283447600028012,1.9999880000250414,2.033476000011433,2.2999522000318393,2.2999522000318393,2.6003581000259146,2.2999522000318393,0.0,3.508104100008495,1.2081518999766558,1.2081518999766558,1.04194,-0.019421250272809384,-0.1465421611493799,,,,None,,,,,,,,,p15_base2_01,001,2023-05-15_13h40.35.179,expectation_shapes_perceived_time,2022.2.4,119.86340368554725,
,,,,,,,,,,,,,37,0,37,0,testSingleStim,,,,,,red,1.6102297107746983,1.6083333333333334,0.002851800003554672,0.9983495000051335,1.9199971575289965e-05,2e-05,0.03338209999492392,1.6079928999533877,1.6413295999518596,1.9997296999790706,2.0330822999821976,2.2997649999451824,2.2997649999451824,2.599863599985838,2.541318399948068,0.2415534000028856,3.6415920999716036,1.3418271000264212,1.1002737000235356,1.56283,-0.14495287681389743,0.02899057536277949,,,,None,,,,,,,,,p15_base2_01,001,2023-05-15_13h40.35.179,expectation_shapes_perceived_time,2022.2.4,119.86340368554725,
,,,,,,,,,,,,,38,0,38,0,testSingleStim,,,,,,red,1.2088046817794853,1.2083333333333333,0.0022725999588146806,0.9977860999642871,2.529995981603861e-05,3e-05,0.03315709996968508,1.208484899951145,1.2414973999839276,1.9998882999643683,,2.299923599988688,2.299923599988688,2.600063699996099,2.299923599988688,0.0,3.56672719999915,1.266803600010462,1.266803600010462,1.18012,-0.07925367884290824,-0.12478238796542998,,,,None,,,,,,,,,p15_base2_01,001,2023-05-15_13h40.35.179,expectation_shapes_perceived_time,2022.2.4,119.86340368554725,
,,,,,,,,,,,,,39,0,39,0,testSingleStim,,,,,,green,1.1020480403181416,1.1,0.0024109999649226665,0.9972118999576196,3.1400006264448166e-05,3e-05,0.033202000020537525,1.099935700010974,1.1332084000459872,2.000086900021415,2.0331934000132605,2.29988800000865,2.29988800000865,2.600185200048145,2.7582756000338122,0.4583876000251621,3.4418230000301264,1.1419350000214763,0.6835473999963142,1.35581,-0.13291557834142836,-0.06469342308653593,,,,None,,,,,,,,,p15_base2_01,001,2023-05-15_13h40.35.179,expectation_shapes_perceived_time,2022.2.4,119.86340368554725,
,,,,,,,,,0,0,0,0,0,-1,-1,0,fam,0.5412357000168413,0.5412357000168413,270.0,2.5412348000099882,2.5412348000099882,,,,,,,,,,,,,,,,,,,,,,,,,,,,,,,,,,,,p15_base2_01,001,2023-05-15_13h40.35.179,expectation_shapes_perceived_time,2022.2.4,119.86340368554725,
,,,,,,,,,1,0,1,0,0,-1,-1,0,fam,0.49894570000469685,0.49894570000469685,270.0,2.4986058000358753,2.4986058000358753,,,,,,,,,,,,,,,,,,,,,,,,,,,,,,,,,,,,p15_base2_01,001,2023-05-15_13h40.35.179,expectation_shapes_perceived_time,2022.2.4,119.86340368554725,
,,,,,,,,,2,0,2,0,0,-1,-1,0,fam,0.49863129999721423,0.49863129999721423,270.0,2.4982755999662913,2.4982755999662913,,,,,,,,,,,,,,,,,,,,,,,,,,,,,,,,,,,,p15_base2_01,001,2023-05-15_13h40.35.179,expectation_shapes_perceived_time,2022.2.4,119.86340368554725,
,,,,,,,,,3,0,3,0,0,-1,-1,0,fam,0.49858040001709014,0.49858040001709014,270.0,2.498378699994646,2.498378699994646,,,,,,,,,,,,,,,,,,,,,,,,,,,,,,,,,,,,p15_base2_01,001,2023-05-15_13h40.35.179,expectation_shapes_perceived_time,2022.2.4,119.86340368554725,
1,-500,0.5,none,68,red,green,no_Expectation,,,,,,0,0,0,3,train_doubleStim,,,,,,red,0.9910072810599952,0.9916666666666667,2.299806700029876,0.9987829999881797,1e-05,1e-05,0.03348,0.9911543999915011,1.024436899984721,1.9996499000117183,2.033149900031276,2.299806700029876,2.299806700029876,2.499839099997189,3.124675200029742,0.8248684999998659,4.799791200028267,2.4999844999983907,1.6751159999985248,1.41482,-0.14256157854050688,-0.039089465083687366,,,,None,,-0.5,-0.5,0.4576772810599952,0.4583333333333333,training_double_stim.csv,0.4584939000196755,0.49161750002531335,p15_base2_01,001,2023-05-15_13h40.35.179,expectation_shapes_perceived_time,2022.2.4,119.86340368554725,
1,-500,0.5,none,77,green,red,no_Expectation,,,,,,0,1,1,1,train_doubleStim,,,,,,green,1.1507633639913346,1.15,2.300290999992285,0.9956031000474468,1e-05,1e-05,0.0335,1.1499228999600746,1.1832853999803774,1.9999916999950074,2.033523599966429,2.300290999992285,2.300290999992285,2.5000269999727607,2.300290999992285,0.0,4.341580600012094,2.041289600019809,2.041289600019809,0.82051,0.07900583378400837,-0.1249394580770365,,,,None,,-0.5,-0.5,0.6174333639913346,0.6166666666666667,training_double_stim.csv,0.6163228999939747,0.6497758000041358,p15_base2_01,001,2023-05-15_13h40.35.179,expectation_shapes_perceived_time,2022.2.4,119.86340368554725,
1,500,0.5,none,98,red,green,no_Expectation,,,,,,0,2,2,5,train_doubleStim,,,,,,red,0.9197934018804002,0.9166666666666666,2.3002368999877945,0.9970639999955893,5e-05,5e-05,0.03326,0.9169254000298679,0.9501462000189349,2.0006013000383973,2.0339870000025257,2.3002368999877945,2.3002368999877945,2.5001626000157557,3.0002393000177108,0.7000024000299163,5.06663270003628,2.7663958000484854,2.066393400018569,0.79697,0.0880220353953645,-0.11875988902549177,,,,None,,0.5,0.5,1.4531234018804,1.45,training_double_stim.csv,1.450428500014823,1.4840541000012308,p15_base2_01,001,2023-05-15_13h40.35.179,expectation_shapes_perceived_time,2022.2.4,119.86340368554725,
1,-500,0.5,none,46,red,green,no_Expectation,,,,,,0,3,3,4,train_doubleStim,,,,,,red,0.7021315250817951,0.7,2.3004900999949314,0.9983176999958232,3e-05,3e-05,,0.7004326000460424,0.7334683000226505,2.0001169000170194,,2.3004900999949314,2.3004900999949314,2.5005467000300996,2.358835300023202,0.05834520002827048,4.141886900004465,1.8413968000095338,1.7830515999812633,0.44995,0.1460001230488613,0.02314636097116094,,,,None,,-0.5,-0.5,0.16880152508179508,0.16666666666666666,training_double_stim.csv,0.16690350003773347,0.2003129000077024,p15_base2_01,001,2023-05-15_13h40.35.179,expectation_shapes_perceived_time,2022.2.4,119.86340368554725,
1,-500,0.5,none,59,green,red,no_Expectation,,,,,,0,4,4,0,train_doubleStim,,,,,,green,1.2488608764219267,1.25,2.3002886999747716,0.9963618000037968,2e-05,2e-05,0.03358,1.2503663999959826,1.2835349999950267,2.0003195999888703,2.033491599955596,2.3002886999747716,2.3002886999747716,2.5006142999627627,3.4920229999697767,1.1917342999950051,4.950242999999318,2.6499543000245467,1.4582200000295416,0.65498,0.13064463143494212,-0.0691648048773223,,,,None,,-0.5,-0.5,0.7155308764219266,0.7166666666666667,training_double_stim.csv,0.7172809999901801,0.7503913000109605,p15_base2_01,001,2023-05-15_13h40.35.179,expectation_shapes_perceived_time,2022.2.4,119.86340368554725,
1,500,0.5,none,33,green,red,no_Expectation,,,,,,0,5,5,7,train_doubleStim,,,,,,green,0.7539026863137658,0.75,2.3001259999582544,0.997033299994655,1e-05,1e-05,0.03314,0.7499323999509215,0.7831919999443926,2.000044299988076,2.033530199958477,2.3001259999582544,2.3001259999582544,2.499799899989739,3.874863999953959,1.5747379999957047,5.699989999993704,3.39986400003545,1.8251260000397451,0.6748,0.12608857291427994,-0.07715867894754444,,,,None,,0.5,0.5,1.2872326863137658,1.2833333333333332,training_double_stim.csv,1.283513599948492,1.3167073999647982,p15_base2_01,001,2023-05-15_13h40.35.179,expectation_shapes_perceived_time,2022.2.4,119.86340368554725,
1,500,0.5,none,60,red,green,no_Expectation,,,,,,0,6,6,8,train_doubleStim,,,,,,red,0.5274321580986904,0.525,2.299748199991882,0.9984756999765523,1e-05,1e-05,0.03335,0.525155299983453,0.558169000025373,1.9998389999964274,2.0329626000020653,2.299748199991882,2.299748199991882,2.499822099984158,2.299748199991882,0.0,4.949763800017536,2.650015600025654,2.650015600025654,0.96719,0.015210913636496399,-0.14703883181946517,,,,None,,0.5,0.5,1.0607621580986901,1.0583333333333333,training_double_stim.csv,1.0578630000236444,1.091177600028459,p15_base2_01,001,2023-05-15_13h40.35.179,expectation_shapes_perceived_time,2022.2.4,119.86340368554725,
1,500,0.5,none,88,red,green,no_Expectation,,,,,,0,7,7,9,train_doubleStim,,,,,,red,0.8491246668321792,0.85,2.2999777999939397,0.9973031000117771,2e-05,2e-05,0.03339,0.8498953999951482,0.8832186000072397,2.0002004000125453,2.03332310001133,2.2999777999939397,2.2999777999939397,2.5003488000365905,3.5670618999865837,1.267084099992644,5.425187200016808,3.125209400022868,1.858125300030224,1.06483,-0.029897835813351738,-0.14476846814886105,,,,None,,0.5,0.5,1.382454666832179,1.3833333333333333,training_double_stim.csv,1.3835805000271648,1.4171409000409767,p15_base2_01,001,2023-05-15_13h40.35.179,expectation_shapes_perceived_time,2022.2.4,119.86340368554725,
1,-500,0.5,none,23,green,red,no_Expectation,,,,,,0,8,8,2,train_doubleStim,,,,,,green,0.8397727689119963,0.8416666666666667,2.300343699986115,0.9974609999917448,1e-05,1e-05,0.03347,0.8418812999734655,0.874948900018353,1.9999612999963574,2.033576700021513,2.300343699986115,2.300343699986115,2.499665900017135,3.4250553000019863,1.1247116000158712,5.291649600025266,2.9913059000391513,1.86659430002328,1.11713,-0.0531768862887374,-0.13792754881141261,,,,None,,-0.5,-0.5,0.30644276891199634,0.30833333333333335,training_double_stim.csv,0.30860490002669394,0.3418864000122994,p15_base2_01,001,2023-05-15_13h40.35.179,expectation_shapes_perceived_time,2022.2.4,119.86340368554725,
1,500,0.5,none,25,green,red,no_Expectation,,,,,,0,9,9,6,train_doubleStim,,,,,,green,0.6104899341853506,0.6083333333333333,2.2995320000336505,0.9976982999942265,2e-05,2e-05,,0.6083105000434443,0.6413755000103265,2.0002172000240535,,2.2995320000336505,2.2995320000336505,2.499552500026766,3.924666500010062,1.6251344999764115,5.3831851000431925,3.083653100009542,1.4585186000331305,1.30137,-0.11996385442103516,-0.08637397518314532,,,,None,,0.5,0.5,1.1438199341853506,1.1416666666666666,training_double_stim.csv,1.1414143000147305,1.1745345999952406,p15_base2_01,001,2023-05-15_13h40.35.179,expectation_shapes_perceived_time,2022.2.4,119.86340368554725,
1,500,0.5,none,60,red,green,no_Expectation,,,,,,1,0,10,8,train_doubleStim,,,,,,red,0.2490409647983519,0.25,2.300160799990408,0.9974000999936834,1e-05,1e-05,0.03349,0.25030639994656667,0.2839442999684252,2.000381199992262,2.033480599988252,2.300160799990408,2.300160799990408,2.5001460999483243,2.7917021999601275,0.49154139996971935,3.88382529997034,1.5836644999799319,1.0921231000102125,0.41726,0.14285743266856996,0.03799399805015159,,,,None,,0.5,0.5,0.7823709647983519,0.7833333333333333,training_double_stim.csv,0.7838827999657951,0.8170148999779485,p15_base2_01,001,2023-05-15_13h40.35.179,expectation_shapes_perceived_time,2022.2.4,119.86340368554725,
1,-500,0.5,none,59,green,red,no_Expectation,,,,,,1,1,11,0,train_doubleStim,,,,,,green,0.9764273545593324,0.975,2.299842099950183,0.997254999994766,1e-05,1e-05,0.03322,0.9752487999503501,1.0079128999495879,2.0000969999819063,2.033125299960375,2.299842099950183,2.299842099950183,2.4999297999893315,3.2753786999965087,0.9755366000463255,4.783718799997587,2.4838767000474036,1.508340100001078,0.57426,0.14381889281396945,-0.03417478641124026,,,,None,,-0.5,-0.5,0.44309735455933236,0.44166666666666665,training_double_stim.csv,0.44182159996125847,0.4748464999720454,p15_base2_01,001,2023-05-15_13h40.35.179,expectation_shapes_perceived_time,2022.2.4,119.86340368554725,
1,-500,0.5,none,77,green,red,no_Expectation,,,,,,1,2,12,1,train_doubleStim,,,,,,green,1.0656866160489133,1.0666666666666667,2.3005633000284433,0.9967696000239812,1e-05,1e-05,,1.0666503999964334,1.100002699997276,2.0003431999939494,,2.3005633000284433,2.3005633000284433,2.5003459000145085,3.117327200016007,0.8167638999875635,5.42507850000402,3.1245151999755763,2.3077512999880128,0.56356,0.1448861574803017,-0.02932219853768011,,,,None,,-0.5,-0.5,0.5323566160489133,0.5333333333333333,training_double_stim.csv,0.5333288999972865,0.5666584999999031,p15_base2_01,001,2023-05-15_13h40.35.179,expectation_shapes_perceived_time,2022.2.4,119.86340368554725,
1,-500,0.5,none,23,green,red,no_Expectation,,,,,,1,3,13,2,train_doubleStim,,,,,,green,1.0832518364409283,1.0833333333333333,2.3000080000492744,0.9991578999906778,6e-05,6e-05,0.03303,1.0833950000233017,1.1167579000466503,1.9997219000360928,2.033131100004539,2.3000080000492744,2.3000080000492744,2.499975200043991,3.4243852000217885,1.124377199972514,5.241224099998362,2.941216099949088,1.8168388999765739,0.691,0.12199981576148215,-0.08347355815259305,,,,None,,-0.5,-0.5,0.5499218364409282,0.55,training_double_stim.csv,0.5497213000198826,0.5829442000249401,p15_base2_01,001,2023-05-15_13h40.35.179,expectation_shapes_perceived_time,2022.2.4,119.86340368554725,
1,-500,0.5,none,68,red,green,no_Expectation,,,,,,1,4,14,3,train_doubleStim,,,,,,red,1.0034006469208863,1.0,2.299696500005666,0.9977277999860235,2e-05,2e-05,0.03328,0.999984800000675,1.033216000010725,1.9997199000208639,2.0331705000135116,2.299696500005666,2.299696500005666,2.4995158000383526,3.7496561000007205,1.4499595999950543,5.116359799983911,2.816663299978245,1.3667036999831907,1.18186,-0.07993668492866803,-0.12434595433348358,,,,None,,-0.5,-0.5,0.4700706469208863,0.4666666666666667,training_double_stim.csv,0.4662838000222109,0.49981960002332926,p15_base2_01,001,2023-05-15_13h40.35.179,expectation_shapes_perceived_time,2022.2.4,119.86340368554725,
1,-500,0.5,none,46,red,green,no_Expectation,,,,,,1,5,15,4,train_doubleStim,,,,,,red,1.2525095658097252,1.25,2.2995854999753647,0.9976855000131764,1e-05,1e-05,0.03312,1.2498798999586143,1.2833202999900095,1.9998795000137761,2.0331448999932036,2.2995854999753647,2.2995854999753647,2.500087899970822,3.3582795999827795,1.0586941000074148,3.4997062999755144,1.2001208000001498,0.14142669999273494,1.29985,-0.11955020622893084,-0.08694560453013153,,,,None,,-0.5,-0.5,0.7191795658097252,0.7166666666666667,training_double_stim.csv,0.7167379999882542,0.749711699958425,p15_base2_01,001,2023-05-15_13h40.35.179,expectation_shapes_perceived_time,2022.2.4,119.86340368554725,
1,500,0.5,none,98,red,green,no_Expectation,,,,,,1,6,16,5,train_doubleStim,,,,,,red,1.0814118593763802,1.0833333333333333,2.2994223999558017,0.9974808999686502,2e-05,2e-05,0.03299,1.0834049999830313,1.1166299999458715,1.9993852999759838,,2.2994223999558017,2.2994223999558017,2.4996132999658585,2.665984599967487,0.3665622000116855,8.307718799973372,6.008296400017571,5.641734200005885,1.13236,-0.05971074618153529,-0.13522727811700638,,,,None,,0.5,0.5,1.61474185937638,1.6166666666666667,training_double_stim.csv,1.61636039998848,1.6498146999510936,p15_base2_01,001,2023-05-15_13h40.35.179,expectation_shapes_perceived_time,2022.2.4,119.86340368554725,
1,500,0.5,none,33,green,red,no_Expectation,,,,,,1,7,17,7,train_doubleStim,,,,,,green,0.8717117936156312,0.8666666666666667,2.3002959999721497,0.9966630999697372,1e-05,1e-05,,0.8670170999830589,0.9000655999989249,2.000599199964199,,2.3002959999721497,2.3002959999721497,2.5006130000110716,3.4082347999792546,1.1079388000071049,4.816894499992486,2.5165985000203364,1.4086597000132315,0.71899,0.11419969849582154,-0.0938627658869766,,,,None,,0.5,0.5,1.4050417936156312,1.4,training_double_stim.csv,1.4004155999864452,1.4337368999840692,p15_base2_01,001,2023-05-15_13h40.35.179,expectation_shapes_perceived_time,2022.2.4,119.86340368554725,
1,500,0.5,none,25,green,red,no_Expectation,,,,,,1,8,18,6,train_doubleStim,,,,,,green,0.7415957154341738,0.7416666666666667,2.299933400005102,0.9977101000258699,2e-05,2e-05,0.03329,0.7418340000440367,0.7748236000188626,1.9996529000345618,2.0330175000126474,2.299933400005102,2.299933400005102,2.499820000026375,2.8498391000321135,0.5499057000270113,4.791362699994352,2.4914292999892496,1.9415235999622382,0.70811,0.11733820010658871,-0.08990849099076277,,,,None,,0.5,0.5,1.2749257154341738,1.275,training_double_stim.csv,1.27535720000742,1.3086364000337198,p15_base2_01,001,2023-05-15_13h40.35.179,expectation_shapes_perceived_time,2022.2.4,119.86340368554725,
1,500,0.5,none,88,red,green,no_Expectation,,,,,,1,9,19,9,train_doubleStim,,,,,,red,0.9303208602264823,0.9333333333333333,2.300170500006061,0.9982821000157855,1e-05,1e-05,,0.933429500029888,0.9670647000311874,1.9996703999931924,,2.300170500006061,2.300170500006061,2.499935700034257,3.1416591000161134,0.8414886000100523,4.724984700034838,2.424814200028777,1.5833256000187248,1.27975,-0.11382728951225092,-0.09431403988157933,,,,None,,0.5,0.5,1.4636508602264822,1.4583333333333333,training_double_stim.csv,1.4579913000343367,1.491390399984084,p15_base2_01,001,2023-05-15_13h40.35.179,expectation_shapes_perceived_time,2022.2.4,119.86340368554725,
,,,,,,,,,0,0,0,0,0,-1,-1,0,fam,0.5321497999830171,0.5321497999830171,270.0,2.532205099996645,2.532205099996645,,,,,,,,,,,,,,,,,,,,,,,,,,,,,,,,,,,,p15_base2_01,001,2023-05-15_13h40.35.179,expectation_shapes_perceived_time,2022.2.4,119.86340368554725,
,,,,,,,,,1,0,1,0,0,-1,-1,0,fam,0.4991579999914393,0.4991579999914393,270.0,2.499100900022313,2.499100900022313,,,,,,,,,,,,,,,,,,,,,,,,,,,,,,,,,,,,p15_base2_01,001,2023-05-15_13h40.35.179,expectation_shapes_perceived_time,2022.2.4,119.86340368554725,
,,,,,,,,,2,0,2,0,0,-1,-1,0,fam,0.49851820000912994,0.49851820000912994,270.0,2.4986127000302076,2.4986127000302076,,,,,,,,,,,,,,,,,,,,,,,,,,,,,,,,,,,,p15_base2_01,001,2023-05-15_13h40.35.179,expectation_shapes_perceived_time,2022.2.4,119.86340368554725,
,,,,,,,,,3,0,3,0,0,-1,-1,0,fam,0.49871180002810434,0.49871180002810434,270.0,2.4986689000506885,2.4986689000506885,,,,,,,,,,,,,,,,,,,,,,,,,,,,,,,,,,,,p15_base2_01,001,2023-05-15_13h40.35.179,expectation_shapes_perceived_time,2022.2.4,119.86340368554725,
,-100,0.5,none,,green,red,,378.9362495330236,,,,,0,0,0,369,trial,,,,,,green,0.37893624953302363,0.375,2.3001431000302546,0.9985218999790959,1e-05,1e-05,,0.3750014000106603,0.40881450002780184,1.9999560000142083,,2.3001431000302546,2.3001431000302546,2.500227000040468,2.7082989999908023,0.4081558999605477,4.4247528000269085,2.124609699996654,1.7164538000361063,0.31369,0.12321657338450084,0.08166679863856452,,,,None,,-0.1,-0.1,0.24560624953302362,0.24166666666666667,trial_list_0.5_red.csv,0.2414513000403531,0.27547920000506565,p15_base2_01,001,2023-05-15_13h40.35.179,expectation_shapes_perceived_time,2022.2.4,119.86340368554725,
,300,0.5,none,,green,red,,897.6737797580945,,,,,0,1,1,379,trial,,,,,,green,0.8976737797580945,0.9,2.300145799992606,0.9975768000003882,4e-05,4e-05,0.0333,0.8999995999620296,0.9338093999540433,2.000173399981577,2.0334909999510273,2.300145799992606,2.300145799992606,2.5001624999567866,2.7915464999969117,0.4914007000043057,4.625017399957869,2.324871599965263,1.8334708999609575,0.79739,0.08786497265597755,-0.11887613947573435,,,,None,,0.3,0.3,1.2310037797580944,1.2333333333333334,trial_list_0.5_red.csv,1.2334034999948926,1.2671180999604985,p15_base2_01,001,2023-05-15_13h40.35.179,expectation_shapes_perceived_time,2022.2.4,119.86340368554725,
,233,0.5,none,,green,red,,285.4047269543619,,,,,0,2,2,239,trial,,,,,,green,0.28540472695436186,0.2833333333333333,2.300117600010708,0.9983656999538653,2e-05,2e-05,,0.2831026000203565,0.3166956000495702,2.0000387000036426,,2.300117600010708,2.300117600010708,2.4996645000064746,2.6996584000298753,0.39954080001916736,4.408350400044583,2.108232800033875,1.7086920000147074,0.59239,0.14163977020881072,-0.042307983309125274,,,,None,,0.233,0.23333333333333334,0.5517347269543619,0.55,trial_list_0.5_red.csv,0.5499370000325143,0.5830226000398397,p15_base2_01,001,2023-05-15_13h40.35.179,expectation_shapes_perceived_time,2022.2.4,119.86340368554725,
,233,0.5,none,,green,red,,305.44815187868494,,,,,0,3,3,469,trial,,,,,,green,0.30544815187868496,0.30833333333333335,2.299715000030119,0.9968804999953136,1e-05,1e-05,,0.3086261000134982,0.3417749000363983,1.9999571000225842,,2.299715000030119,2.299715000030119,2.5002004000125453,2.8414718999993056,0.5417568999691866,4.200379400048405,1.900664400018286,1.3589075000490993,0.61346,0.13853221804114219,-0.05158114501531891,,,,None,,0.233,0.23333333333333334,0.571778151878685,0.575,trial_list_0.5_red.csv,0.5749808000400662,0.6083761000190862,p15_base2_01,001,2023-05-15_13h40.35.179,expectation_shapes_perceived_time,2022.2.4,119.86340368554725,
,167,0.5,none,,red,green,,863.5685128612063,,,,,0,4,4,472,trial,,,,,,red,0.8635685128612063,0.8666666666666667,2.2998601000290364,0.9979044999927282,1e-05,1e-05,,0.8666023000259884,0.8999084000242874,1.999344200012274,,2.2998601000290364,2.2998601000290364,2.4992721000453457,3.257740000030026,0.9578799000009894,5.425024500000291,3.125164399971254,2.1672844999702647,0.75243,0.10372606779837204,-0.10532185345680853,,,,None,,0.167,0.16666666666666666,1.0638985128612062,1.0666666666666667,trial_list_0.5_red.csv,1.0664121000445448,1.0998122000019066,p15_base2_01,001,2023-05-15_13h40.35.179,expectation_shapes_perceived_time,2022.2.4,119.86340368554725,
,-300,0.5,none,,red,green,,1383.519957874464,,,,,0,5,5,46,trial,,,,,,red,1.383519957874464,1.3833333333333333,2.3004470000159927,0.9978084999602288,2e-05,2e-05,0.0337,1.3833019000012428,1.4166043000295758,2.000198099995032,2.0337299000239,2.3004470000159927,2.3004470000159927,2.4999448000453413,2.417041400040034,0.11659440002404153,4.084101999993436,1.7836549999774434,1.6670605999534018,1.37511,-0.1365914109919047,-0.056520583858719185,,,,None,,-0.3,-0.3,1.050189957874464,1.05,trial_list_0.5_red.csv,1.0502599000465125,1.0832861000089906,p15_base2_01,001,2023-05-15_13h40.35.179,expectation_shapes_perceived_time,2022.2.4,119.86340368554725,
,167,0.5,none,,green,red,,1476.9038168940533,,,,,0,6,6,411,trial,,,,,,green,1.4769038168940534,1.475,2.3006641000392847,0.9969066000194289,2e-05,2e-05,0.03341,1.4750411999993958,1.508507999998983,2.0007287000189535,2.033752600022126,2.3006641000392847,2.3006641000392847,2.5007332999957725,3.1084778000367805,0.8078136999974959,4.7338985000387765,2.433234399999492,1.625420700001996,0.98448,0.007202338880992245,-0.14764794706034104,,,,None,,0.167,0.16666666666666666,1.6772338168940533,1.675,trial_list_0.5_red.csv,1.6749126000213437,1.7090457000304013,p15_base2_01,001,2023-05-15_13h40.35.179,expectation_shapes_perceived_time,2022.2.4,119.86340368554725,
,33,0.5,none,,red,green,,187.8328257418189,,,,,0,7,7,380,trial,,,,,,red,0.18783282574181892,0.19166666666666665,2.300241000019014,0.9972612000419758,1e-05,1e-05,,0.19163740001386032,0.2252664000261575,2.000713200017344,,2.300241000019014,2.300241000019014,2.5004325000336394,2.450427400006447,0.1501863999874331,3.6338407000293955,1.3335997000103816,1.1834133000229485,0.45047,0.14603773147956034,0.02290787944777417,,,,None,,0.033,0.03333333333333333,0.25416282574181887,0.25,trial_list_0.5_red.csv,0.25015500001609325,0.2832870000274852,p15_base2_01,001,2023-05-15_13h40.35.179,expectation_shapes_perceived_time,2022.2.4,119.86340368554725,
,33,0.5,none,,green,red,,953.643600811724,,,,,0,8,8,179,trial,,,,,,green,0.9536436008117241,0.95,2.3001731000258587,0.9972302000387572,1e-05,1e-05,0.033,0.9497077999985777,0.9829802999738604,1.9998546999995597,2.0336767000262626,2.3001731000258587,2.3001731000258587,2.4999529999913648,2.916972299979534,0.6167991999536753,4.125220499990974,1.825047399965115,1.2082482000114396,0.89517,0.0478069330952866,-0.13987954498250527,,,,None,,0.033,0.03333333333333333,1.019973600811724,1.0166666666666666,trial_list_0.5_red.csv,1.0163478999747895,1.0499474999960512,p15_base2_01,001,2023-05-15_13h40.35.179,expectation_shapes_perceived_time,2022.2.4,119.86340368554725,
,233,0.5,none,,green,red,,1367.7788638588097,,,,,0,9,9,233,trial,,,,,,green,1.3677788638588098,1.3666666666666667,2.300433599972166,0.9981148999650031,4e-05,4e-05,,1.3668637999799103,1.4004087999928743,2.000271899974905,,2.300433599972166,2.300433599972166,2.5006563999922946,2.9086228999658488,0.6081892999936827,4.90828109998256,2.6078475000103936,1.999658200016711,1.40475,-0.14125407702679466,-0.04357838546571324,,,,None,,0.233,0.23333333333333334,1.6341088638588097,1.6333333333333333,trial_list_0.5_red.csv,1.6334739999729209,1.6670326999737881,p15_base2_01,001,2023-05-15_13h40.35.179,expectation_shapes_perceived_time,2022.2.4,119.86340368554725,
,-300,0.5,none,,green,red,,897.2780234932461,,,,,0,10,10,55,trial,,,,,,green,0.8972780234932461,0.9,2.300238099996932,0.9974360999767669,5e-05,5e-05,0.03354,0.9003716000006534,0.9337572999647819,2.00029729999369,2.033828299958259,2.300238099996932,2.300238099996932,2.5003962999908254,3.300251999986358,1.0000138999894261,4.883314799983054,2.5830766999861225,1.5830627999966964,1.10371,-0.04731327435969042,-0.14004729210468364,,,,None,,-0.3,-0.3,0.563948023493246,0.5666666666666667,trial_list_0.5_red.csv,0.566859399958048,0.6001914999797009,p15_base2_01,001,2023-05-15_13h40.35.179,expectation_shapes_perceived_time,2022.2.4,119.86340368554725,
,33,0.5,none,,red,green,,1266.3560446129866,,,,,0,11,11,12,trial,,,,,,red,1.2663560446129867,1.2666666666666666,2.299900400044862,0.998458500020206,2e-05,2e-05,,1.2665507000056095,1.2999688000418246,2.0001088000135496,,2.299900400044862,2.299900400044862,2.500184900010936,3.6999282999895513,1.4000278999446891,6.699906199995894,4.400005799951032,2.9999779000063427,0.89875,0.046231896821154694,-0.14040798293832166,,,,None,,0.033,0.03333333333333333,1.3326860446129865,1.3333333333333333,trial_list_0.5_red.csv,1.333152900042478,1.366940500040073,p15_base2_01,001,2023-05-15_13h40.35.179,expectation_shapes_perceived_time,2022.2.4,119.86340368554725,
,233,0.5,none,,red,green,,1082.7015515328424,,,,,0,12,12,244,trial,,,,,,red,1.0827015515328424,1.0833333333333333,2.3002130999811925,0.9972896000253968,2e-05,2e-05,,1.0829817000194453,1.116368799994234,1.9999810999725014,,2.3002130999811925,2.3002130999811925,2.4999342000228353,3.200017100025434,0.8998040000442415,4.317015299980994,2.016802199999802,1.1169981999555603,0.89629,0.04731327435969042,-0.14004729210468364,,,,None,,0.233,0.23333333333333334,1.3490315515328424,1.35,trial_list_0.5_red.csv,1.349542299984023,1.3828451000154018,p15_base2_01,001,2023-05-15_13h40.35.179,expectation_shapes_perceived_time,2022.2.4,119.86340368554725,
,167,0.5,none,,red,green,,1427.9524980308606,,,,,0,13,13,324,trial,,,,,,red,1.4279524980308607,1.425,2.2997013000422157,0.9983116000075825,1e-05,1e-05,0.03323,1.4246743000112474,1.458225600013975,2.0001968000433408,2.0333529000054114,2.2997013000422157,2.2997013000422157,2.4999399000080302,3.024700900015887,0.7249995999736711,4.483378700038884,2.183677399996668,1.458677800022997,1.57645,-0.143580577358876,0.03516259037360228,,,,None,,0.167,0.16666666666666666,1.6282824980308606,1.625,trial_list_0.5_red.csv,1.6246347000123933,1.6580964000313543,p15_base2_01,001,2023-05-15_13h40.35.179,expectation_shapes_perceived_time,2022.2.4,119.86340368554725,
,-167,0.5,none,,red,green,,849.6419460954805,,,,,0,14,14,432,trial,,,,,,red,0.8496419460954805,0.85,2.300730700022541,0.9978716999758035,1e-05,1e-05,,0.8501900000264868,0.8839064000057988,2.0006906000198796,,2.300730700022541,2.300730700022541,2.5007972000166774,2.459184399980586,0.15845369995804504,3.4920072000240907,1.1912765000015497,1.0328228000435047,0.75497,0.10288121353187911,-0.10614728380273242,,,,None,,-0.167,-0.16666666666666666,0.6493119460954805,0.65,trial_list_0.5_red.csv,0.649992500024382,0.6836364000337198,p15_base2_01,001,2023-05-15_13h40.35.179,expectation_shapes_perceived_time,2022.2.4,119.86340368554725,
,100,0.5,none,,green,red,,911.4130380090962,,,,,0,15,15,13,trial,,,,,,green,0.9114130380090962,0.9083333333333333,2.299860999977682,0.9970612999750301,2e-05,2e-05,0.03349,0.9082211999921128,0.9414763000095263,2.000342699990142,2.033254800015129,2.299860999977682,2.299860999977682,2.5001557000214234,2.4584424999775365,0.1585814999998547,4.55049210001016,2.2506311000324786,2.092049600032624,0.94027,0.027575088667746116,-0.14522880031679622,,,,None,,0.1,0.1,1.044743038009096,1.0416666666666667,trial_list_0.5_red.csv,1.0414938000030816,1.0748640000238083,p15_base2_01,001,2023-05-15_13h40.35.179,expectation_shapes_perceived_time,2022.2.4,119.86340368554725,
,-167,0.5,none,,green,red,,710.2915798632205,,,,,0,16,16,425,trial,,,,,,green,0.7102915798632204,0.7083333333333334,2.3004098999663256,0.9957570999977179,3e-05,3e-05,0.0333,0.7086718999780715,0.7418926999671385,2.000272599980235,2.033547799976077,2.3004098999663256,2.3004098999663256,2.500229199999012,3.0335544999688864,0.7331446000025608,4.525158999953419,2.2247490999870934,1.4916044999845326,0.89879,0.046212340943568644,-0.1404144205593047,,,,None,,-0.167,-0.16666666666666666,0.5099615798632204,0.5083333333333333,trial_list_0.5_red.csv,0.5083183000097051,0.5416003999998793,p15_base2_01,001,2023-05-15_13h40.35.179,expectation_shapes_perceived_time,2022.2.4,119.86340368554725,
,-167,0.5,none,,green,red,,666.5274690167037,,,,,0,17,17,321,trial,,,,,,green,0.6665274690167037,0.6666666666666666,2.300274699984584,0.9962205999763682,3e-05,3e-05,0.03331,0.6669848000165075,0.6999791000271216,2.0005747000104748,2.033788100001402,2.300274699984584,2.300274699984584,2.500419799995143,2.300274699984584,0.0,3.9339209999889135,1.6336463000043295,1.6336463000043295,0.78829,0.09122779106187441,-0.11631543360388988,,,,None,,-0.167,-0.16666666666666666,0.46619746901670367,0.4666666666666667,trial_list_0.5_red.csv,0.4669632000150159,0.5003065000055358,p15_base2_01,001,2023-05-15_13h40.35.179,expectation_shapes_perceived_time,2022.2.4,119.86340368554725,
,-300,0.5,none,,green,red,,987.7438944041012,,,,,0,18,18,175,trial,,,,,,green,0.9877438944041012,0.9833333333333333,2.300408700015396,0.9967717000399716,2e-05,2e-05,,0.9840146999922581,1.0169068000395782,2.0001912000006996,,2.300408700015396,2.300408700015396,2.5005213000113145,2.725307899992913,0.42489919997751713,4.474979699996766,2.17457099998137,1.7496718000038527,0.8237,0.07775062814580846,-0.12572441998045622,,,,None,,-0.3,-0.3,0.6544138944041011,0.65,trial_list_0.5_red.csv,0.6507209000410512,0.6836186000145972,p15_base2_01,001,2023-05-15_13h40.35.179,expectation_shapes_perceived_time,2022.2.4,119.86340368554725,
,-233,0.5,none,,red,green,,1424.6475598515945,,,,,0,19,19,72,trial,,,,,,red,1.4246475598515944,1.425,2.300195200019516,0.9986204999731854,2e-05,2e-05,0.03321,1.4250840000458993,1.4582194000249729,2.0001606000005268,2.033314000000246,2.300195200019516,2.300195200019516,2.5002734000445344,2.391917300003115,0.09172209998359904,3.5417109000263736,1.2415157000068575,1.1497936000232585,1.30884,-0.12195882239180007,-0.0835334399943836,,,,None,,-0.233,-0.23333333333333334,1.1583175598515945,1.1583333333333332,trial_list_0.5_red.csv,1.1584793000365607,1.191674800007604,p15_base2_01,001,2023-05-15_13h40.35.179,expectation_shapes_perceived_time,2022.2.4,119.86340368554725,
,-33,0.5,none,,green,red,,884.0618290376925,,,,,0,20,20,123,trial,,,,,,green,0.8840618290376925,0.8833333333333333,2.3003004000056535,0.9971774999867193,3e-05,3e-05,0.03309,0.8834308999939822,0.9168386000092141,2.000517199980095,2.0338041000068188,2.3003004000056535,2.3003004000056535,2.5000101999612525,2.9666688999859616,0.6663684999803081,4.816870499984361,2.5165700999787077,1.8502015999983996,1.20915,-0.09029111021903573,-0.1170440317654167,,,,None,,-0.033,-0.03333333333333333,0.8177318290376925,0.8166666666666667,trial_list_0.5_red.csv,0.816764899995178,0.8500524999690242,p15_base2_01,001,2023-05-15_13h40.35.179,expectation_shapes_perceived_time,2022.2.4,119.86340368554725,
,-100,0.5,none,,green,red,,1522.051429866793,,,,,0,21,21,33,trial,,,,,,green,1.5220514298667929,1.5166666666666666,2.3000073000439443,0.997357300017029,2e-05,2e-05,0.03328,1.5166164000402205,1.5503076000022702,2.0002998000127263,2.033647100033704,2.3000073000439443,2.3000073000439443,2.499888700025622,2.6166261000325903,0.31661879998864606,3.6579126000287943,1.35790529998485,1.041286499996204,1.36688,-0.1350828301250558,-0.06003681338891368,,,,None,,-0.1,-0.1,1.388721429866793,1.3833333333333333,trial_list_0.5_red.csv,1.3835547000053339,1.4167563000228256,p15_base2_01,001,2023-05-15_13h40.35.179,expectation_shapes_perceived_time,2022.2.4,119.86340368554725,
,-300,0.5,none,,green,red,,676.3476827068531,,,,,0,22,22,289,trial,,,,,,green,0.6763476827068531,0.675,2.3002833999926224,0.9987581000314094,3e-05,3e-05,0.03335,0.6753589999862015,0.708675800007768,1.9998272000229917,2.033606300014071,2.3002833999926224,2.3002833999926224,2.5001501999795437,3.008414999989327,0.7081315999967046,4.166887199971825,1.8666037999792024,1.1584721999824978,0.691,0.12199981576148215,-0.08347355815259305,,,,None,,-0.3,-0.3,0.3430176827068531,0.3416666666666667,trial_list_0.5_red.csv,0.3417895999737084,0.3751674999948591,p15_base2_01,001,2023-05-15_13h40.35.179,expectation_shapes_perceived_time,2022.2.4,119.86340368554725,
,-33,0.5,none,,green,red,,1518.836712841097,,,,,0,23,23,435,trial,,,,,,green,1.5188367128410971,1.5166666666666666,2.2999918999848887,0.9964044999796897,3e-05,3e-05,,1.5166748000192456,1.5502459999988787,2.0003629000275396,,2.2999918999848887,2.2999918999848887,2.500359900004696,2.2999918999848887,0.0,4.266328300000168,1.9663364000152797,1.9663364000152797,1.62179,-0.13713504358894035,0.05518849315164672,,,,None,,-0.033,-0.03333333333333333,1.4525067128410971,1.45,trial_list_0.5_red.csv,1.4500409999745898,1.483602599997539,p15_base2_01,001,2023-05-15_13h40.35.179,expectation_shapes_perceived_time,2022.2.4,119.86340368554725,
,233,0.5,none,,red,green,,1172.827184632412,,,,,0,24,24,340,trial,,,,,,red,1.1728271846324119,1.175,2.3000444999779575,0.9990361999953166,2e-05,2e-05,0.03338,1.1750815999694169,1.2084638000233099,1.9999297999893315,2.0335218000109307,2.3000444999779575,2.3000444999779575,2.5002351999864914,3.7079752999707125,1.407930799992755,4.966571600001771,2.6665271000238135,1.2585963000310585,1.51742,-0.14760209238348912,0.008087785884026802,,,,None,,0.233,0.23333333333333334,1.4391571846324118,1.4416666666666667,trial_list_0.5_red.csv,1.4419586000149138,1.4750534999766387,p15_base2_01,001,2023-05-15_13h40.35.179,expectation_shapes_perceived_time,2022.2.4,119.86340368554725,
,167,0.5,none,,red,green,,768.8323120062184,0,0,0,0,0,25,25,314,fam,0.540279200009536,0.540279200009536,270.0,2.5400056000216864,2.5400056000216864,,,,,,,,,,,,,,,,,,,,,,,,,,,,,,,,,,,,p15_base2_01,001,2023-05-15_13h40.35.179,expectation_shapes_perceived_time,2022.2.4,119.86340368554725,
,167,0.5,none,,red,green,,768.8323120062184,1,0,1,0,0,25,25,314,fam,0.49867130001075566,0.49867130001075566,270.0,2.499014900007751,2.499014900007751,,,,,,,,,,,,,,,,,,,,,,,,,,,,,,,,,,,,p15_base2_01,001,2023-05-15_13h40.35.179,expectation_shapes_perceived_time,2022.2.4,119.86340368554725,
,167,0.5,none,,red,green,,768.8323120062184,2,0,2,0,0,25,25,314,fam,0.4990556000266224,0.4990556000266224,270.0,2.498542900022585,2.498542900022585,,,,,,,,,,,,,,,,,,,,,,,,,,,,,,,,,,,,p15_base2_01,001,2023-05-15_13h40.35.179,expectation_shapes_perceived_time,2022.2.4,119.86340368554725,
,167,0.5,none,,red,green,,768.8323120062184,3,0,3,0,0,25,25,314,fam,0.49851639999542385,0.49851639999542385,270.0,2.4986000999924727,2.4986000999924727,,,,,,,,,,,,,,,,,,,,,,,,,,,,,,,,,,,,p15_base2_01,001,2023-05-15_13h40.35.179,expectation_shapes_perceived_time,2022.2.4,119.86340368554725,
,167,0.5,none,,red,green,,768.8323120062184,,,,,0,25,25,314,trial,,,,,,red,0.7688323120062185,0.7666666666666666,2.299585799977649,0.9987906999886036,1e-05,1e-05,0.03273,0.7664408999844454,0.799344899947755,1.9997446999768727,2.032907199987676,2.299585799977649,2.299585799977649,2.499794999952428,2.699611699965317,0.4000258999876678,4.2245516999973916,1.9249659000197425,1.5249400000320747,1.09502,-0.043472802265065766,-0.14128660736146373,,,,None,,0.167,0.16666666666666666,0.9691623120062185,0.9666666666666667,trial_list_0.5_red.csv,0.9660422999877483,0.9993579000001773,p15_base2_01,001,2023-05-15_13h40.35.179,expectation_shapes_perceived_time,2022.2.4,119.86340368554725,
,33,0.5,none,,red,green,,217.65943018127217,,,,,0,26,26,204,trial,,,,,,red,0.21765943018127218,0.21666666666666667,2.300300100003369,0.9982344000018202,4e-05,4e-05,0.03336,0.2166352000203915,0.25016039999900386,2.0000114000285976,2.0335900000063702,2.300300100003369,2.300300100003369,2.500484000018332,2.300300100003369,0.0,3.7168992000515573,1.4165991000481881,1.4165991000481881,0.16888,0.07480085570535057,0.12750145858866574,,,,None,,0.033,0.03333333333333333,0.28398943018127215,0.2833333333333333,trial_list_0.5_red.csv,0.2835194000508636,0.31691150000551715,p15_base2_01,001,2023-05-15_13h40.35.179,expectation_shapes_perceived_time,2022.2.4,119.86340368554725,
,-100,0.5,none,,green,red,,499.03047230488687,,,,,0,27,27,391,trial,,,,,,green,0.4990304723048869,0.5,2.30047930002911,0.9970898000174202,1e-05,1e-05,0.0336,0.5000128000392579,0.5335910000139847,2.000299900013488,2.0338224000297487,2.30047930002911,2.30047930002911,2.500493900035508,3.0083828000351787,0.7079035000060685,4.700211899995338,2.399732599966228,1.6918290999601595,0.20214,0.08768876362771115,0.11900617920903656,,,,None,,-0.1,-0.1,0.3657004723048869,0.36666666666666664,trial_list_0.5_red.csv,0.3666361999930814,0.3999610000173561,p15_base2_01,001,2023-05-15_13h40.35.179,expectation_shapes_perceived_time,2022.2.4,119.86340368554725,
,-300,0.5,none,,red,green,,719.2073084062396,,,,,0,28,28,150,trial,,,,,,red,0.7192073084062396,0.7166666666666667,2.300351399986539,0.997514599992428,2e-05,2e-05,0.03343,0.7165696999873035,0.7501175999641418,2.0000381999998353,2.033641699992586,2.300351399986539,2.300351399986539,2.5000389000051655,2.7332504999940284,0.4328991000074893,4.1586284000077285,1.8582770000211895,1.4253779000137001,0.21753,0.0933396580345782,0.11462765021790304,,,,None,,-0.3,-0.3,0.38587730840623957,0.3833333333333333,trial_list_0.5_red.csv,0.3830080999759957,0.41633290000027046,p15_base2_01,001,2023-05-15_13h40.35.179,expectation_shapes_perceived_time,2022.2.4,119.86340368554725,
,300,0.5,none,,red,green,,1010.7287665074036,,,,,0,29,29,462,trial,,,,,,red,1.0107287665074036,1.0083333333333333,2.300626300042495,0.9970609999727458,3e-05,3e-05,0.03319,1.0088824999984354,1.0421338999876752,2.0001419000327587,2.033962399989832,2.300626300042495,2.300626300042495,2.500307700014673,3.75895520002814,1.458328899985645,4.499861299991608,2.1992349999491125,0.7409060999634676,1.02585,-0.0119924853786228,-0.14733624893736585,,,,None,,0.3,0.3,1.3440587665074035,1.3416666666666666,trial_list_0.5_red.csv,1.3422684000106528,1.374831399996765,p15_base2_01,001,2023-05-15_13h40.35.179,expectation_shapes_perceived_time,2022.2.4,119.86340368554725,
,167,0.5,none,,red,green,,388.4944868693156,,,,,0,30,30,416,trial,,,,,,red,0.3884944868693156,0.39166666666666666,2.2996676999609917,0.9988779000123031,2e-05,2e-05,0.03343,0.3919874999555759,0.424632299982477,2.0001509999856353,2.0332479999633506,2.2996676999609917,2.2996676999609917,2.4997273999615572,2.541695899970364,0.24202820000937209,3.86659549997421,1.566927800013218,1.324899600003846,0.51544,0.14764964441412642,-0.0071674584667051665,,,,None,,0.167,0.16666666666666666,0.5888244868693155,0.5916666666666667,trial_list_0.5_red.csv,0.5916250000009313,0.6253515999997035,p15_base2_01,001,2023-05-15_13h40.35.179,expectation_shapes_perceived_time,2022.2.4,119.86340368554725,
,300,0.5,none,,green,red,,631.3592855986133,,,,,0,31,31,231,trial,,,,,,green,0.6313592855986133,0.6333333333333333,2.3000192000181414,0.9985787000041455,5e-05,5e-05,,0.6331854999880306,0.666437899984885,1.9998380999895744,,2.3000192000181414,2.3000192000181414,2.5001725999754854,2.4499456000048667,0.1499263999867253,3.8164085000171326,1.5163892999989912,1.366462900012266,1.01368,-0.006352127643370625,-0.14768696770836706,,,,None,,0.3,0.3,0.9646892855986133,0.9666666666666667,trial_list_0.5_red.csv,0.9666007999912836,0.9996985999750905,p15_base2_01,001,2023-05-15_13h40.35.179,expectation_shapes_perceived_time,2022.2.4,119.86340368554725,
,-233,0.5,none,,green,red,,1395.46030578706,,,,,0,32,32,115,trial,,,,,,green,1.39546030578706,1.3916666666666666,2.3005700999638066,0.9972102000028826,4e-05,4e-05,0.0333,1.3925821000011638,1.4253966999822296,2.0004661999992095,2.033909299992956,2.3005700999638066,2.3005700999638066,2.5007870999979787,2.6002603999804705,0.29969030001666397,3.7588589999941178,1.4582889000303112,1.1585986000136472,1.25802,-0.10712810344334271,-0.1018595081920308,,,,None,,-0.233,-0.23333333333333334,1.12913030578706,1.125,trial_list_0.5_red.csv,1.1255812000017613,1.1584361999994144,p15_base2_01,001,2023-05-15_13h40.35.179,expectation_shapes_perceived_time,2022.2.4,119.86340368554725,
,233,0.5,none,,red,green,,715.1762546087406,,,,,0,33,33,28,trial,,,,,,red,0.7151762546087406,0.7166666666666667,2.300224900012836,0.9962712000124156,2e-05,2e-05,0.03329,0.7170253000222147,0.7502961000427604,2.0006806000019424,2.033806200022809,2.300224900012836,2.300224900012836,2.500529400014784,2.7835582999978215,0.4833333999849856,4.683332100044936,2.3831072000321,1.8997738000471145,1.14216,-0.06384570363613878,-0.13332485171076042,,,,None,,0.233,0.23333333333333334,0.9815062546087406,0.9833333333333333,trial_list_0.5_red.csv,0.9838198000215925,1.017091799993068,p15_base2_01,001,2023-05-15_13h40.35.179,expectation_shapes_perceived_time,2022.2.4,119.86340368554725,
,-167,0.5,none,,red,green,,1414.8879683986693,,,,,0,34,34,248,trial,,,,,,red,1.4148879683986693,1.4166666666666667,2.299979400006123,0.9984472999931313,3e-05,3e-05,0.03318,1.4167947999667376,1.4502612999640405,2.000367800006643,2.033238700008951,2.299979400006123,2.299979400006123,2.500171899970155,3.417085299966857,1.117105899960734,4.166430399985984,1.866450999979861,0.7493451000191271,1.14758,-0.06610868317625139,-0.13221736635250278,,,,None,,-0.167,-0.16666666666666666,1.2145579683986694,1.2166666666666666,trial_list_0.5_red.csv,1.2166175000020303,1.250273699988611,p15_base2_01,001,2023-05-15_13h40.35.179,expectation_shapes_perceived_time,2022.2.4,119.86340368554725,
,-233,0.5,none,,green,red,,665.5552229416375,,,,,0,35,35,337,trial,,,,,,green,0.6655552229416375,0.6666666666666666,2.2999119000160135,0.9971067000296898,6e-05,6e-05,0.03322,0.6664027000078931,0.6996427999692969,2.000000200001523,2.0333551000221632,2.2999119000160135,2.2999119000160135,2.4994809000054374,2.2999119000160135,0.0,3.9411419999669306,1.641230099950917,1.641230099950917,1.08645,-0.03965701715343671,-0.14240474341461368,,,,None,,-0.233,-0.23333333333333334,0.3992252229416375,0.4,trial_list_0.5_red.csv,0.3993408000096679,0.43286830000579357,p15_base2_01,001,2023-05-15_13h40.35.179,expectation_shapes_perceived_time,2022.2.4,119.86340368554725,
,33,0.5,none,,red,green,,1799.3057040072672,,,,,0,36,36,444,trial,,,,,,red,1.7993057040072673,1.8,2.3002629000111483,0.996730100014247,2e-05,2e-05,0.0333,1.7999909999780357,1.8337002999614924,2.0002168999635614,2.033638799970504,2.3002629000111483,2.3002629000111483,2.500103999977,3.1585813999990933,0.858318499987945,4.474701199971605,2.174438299960457,1.3161197999725118,1.69321,-0.12141779091147845,0.08431791035519336,,,,None,,0.033,0.03333333333333333,1.865635704007267,1.8666666666666667,trial_list_0.5_red.csv,1.8670433000079356,1.90034769999329,p15_base2_01,001,2023-05-15_13h40.35.179,expectation_shapes_perceived_time,2022.2.4,119.86340368554725,
,300,0.5,none,,green,red,,1067.8333685067714,,,,,0,37,37,245,trial,,,,,,green,1.0678333685067714,1.0666666666666667,2.2999005999881774,0.9990298000047915,2e-05,2e-05,,1.06656569999177,1.1001704999944195,1.9998924999963492,,2.2999005999881774,2.2999005999881774,2.499609899998177,2.8999007999664173,0.6000001999782398,4.1746625999803655,1.874761999992188,1.2747618000139482,1.11378,-0.05172141217596469,-0.13847991001951837,,,,None,,0.3,0.3,1.4011633685067713,1.4,trial_list_0.5_red.csv,1.4001014999812469,1.4329977000015788,p15_base2_01,001,2023-05-15_13h40.35.179,expectation_shapes_perceived_time,2022.2.4,119.86340368554725,
,-167,0.5,none,,green,red,,670.2939719235442,,,,,0,38,38,95,trial,,,,,,green,0.6702939719235442,0.6666666666666666,2.300210800021887,0.998412000015378,2e-05,2e-05,0.03334,0.6666219999897294,0.6999218999990262,1.9999806000269018,2.0333871000329964,2.300210800021887,2.300210800021887,2.5000509999808855,2.5915319999912754,0.29132119996938854,3.824782999989111,1.5245721999672242,1.2332509999978356,0.44241,0.14541064646065918,0.02659950849890107,,,,None,,-0.167,-0.16666666666666666,0.46996397192354417,0.4666666666666667,trial_list_0.5_red.csv,0.46666400000685826,0.49989279999863356,p15_base2_01,001,2023-05-15_13h40.35.179,expectation_shapes_perceived_time,2022.2.4,119.86340368554725,
,-33,0.5,none,,green,red,,1718.6580890384073,,,,,0,39,39,253,trial,,,,,,green,1.7186580890384073,1.7166666666666666,2.300312999985181,0.9977212999947369,1e-05,1e-05,,1.7168524999869987,1.7500172999571078,2.0003112999838777,,2.300312999985181,2.300312999985181,2.5004123999970034,2.5425578999565914,0.24224489997141063,3.6167558999732137,1.3164428999880329,1.0741980000166222,1.70557,-0.11805318087248784,0.08896761457057054,,,,None,,-0.033,-0.03333333333333333,1.6523280890384073,1.65,trial_list_0.5_red.csv,1.6506976999808103,1.6839738999842666,p15_base2_01,001,2023-05-15_13h40.35.179,expectation_shapes_perceived_time,2022.2.4,119.86340368554725,
,300,0.5,none,,red,green,,512.0122423119099,,,,,0,40,40,348,trial,,,,,,red,0.5120122423119099,0.5083333333333333,2.3000863999477588,0.9960937000578269,3e-05,3e-05,0.03342,0.5084794999565929,0.541657599969767,2.0005289999535307,2.0335809999960475,2.3000863999477588,2.3000863999477588,2.500395299983211,2.450060799950734,0.14997440000297502,3.5582079999730922,1.2581216000253335,1.1081472000223584,0.92487,0.03456681375089339,-0.14372517296424092,,,,None,,0.3,0.3,0.8453422423119099,0.8416666666666667,trial_list_0.5_red.csv,0.8413897999562323,0.8747765999869443,p15_base2_01,001,2023-05-15_13h40.35.179,expectation_shapes_perceived_time,2022.2.4,119.86340368554725,
,233,0.5,none,,green,red,,1324.7397548353565,,,,,0,41,41,1,trial,,,,,,green,1.3247397548353566,1.325,2.3003344999742694,0.9963549000094645,1e-05,1e-05,0.03328,1.3256548999925144,1.3584891999489628,2.0006748999585398,2.033692399971187,2.3003344999742694,2.3003344999742694,2.5003515999997035,2.3003344999742694,0.0,4.433504599961452,2.1331700999871828,2.1331700999871828,1.46642,-0.1470017823447834,-0.015564894601212359,,,,None,,0.233,0.23333333333333334,1.5910697548353565,1.5916666666666666,trial_list_0.5_red.csv,1.5916535999858752,1.625241299974732,p15_base2_01,001,2023-05-15_13h40.35.179,expectation_shapes_perceived_time,2022.2.4,119.86340368554725,
,33,0.5,none,,red,green,,905.4758949136508,,,,,0,42,42,88,trial,,,,,,red,0.9054758949136508,0.9083333333333333,2.2997846999787726,0.9966490999795496,1e-05,1e-05,,0.908144099987112,0.9415005000191741,1.999918700021226,,2.2997846999787726,2.2997846999787726,2.4998013000003994,3.1666823999839835,0.8668977000052109,4.682956999982707,2.3831723000039347,1.5162745999987237,1.46292,-0.14682164146217067,-0.01718125591578593,,,,None,,0.033,0.03333333333333333,0.9718058949136509,0.9666666666666667,trial_list_0.5_red.csv,0.966455899993889,0.9996598000288941,p15_base2_01,001,2023-05-15_13h40.35.179,expectation_shapes_perceived_time,2022.2.4,119.86340368554725,
,-33,0.5,none,,green,red,,1367.1864954161326,,,,,0,43,43,455,trial,,,,,,green,1.3671864954161326,1.3666666666666667,2.299947899999097,0.9978378000087105,1e-05,1e-05,0.03333,1.3664988999953493,1.3999249000335112,1.9999401000095531,2.0331429000361823,2.299947899999097,2.299947899999097,2.4999256000155583,3.3998856000253,1.099937700026203,3.5996764000155963,1.2997285000164993,0.19979079999029636,0.99104,0.0041623914332031674,-0.14776489587871242,,,,None,,-0.033,-0.03333333333333333,1.3008564954161328,1.3,trial_list_0.5_red.csv,1.2999584000208415,1.333217200008221,p15_base2_01,001,2023-05-15_13h40.35.179,expectation_shapes_perceived_time,2022.2.4,119.86340368554725,
,-300,0.5,none,,red,green,,1762.950391832173,,,,,0,44,44,282,trial,,,,,,red,1.762950391832173,1.7583333333333333,2.3003086999524385,0.9977871000301093,2e-05,2e-05,0.03336,1.7580190999433398,1.792036399943754,2.0002940999693237,2.03325539996149,2.3003086999524385,2.3003086999524385,2.4997682999819517,2.708298699988518,0.40799000003607944,3.741417499957606,1.4411088000051677,1.0331187999690883,1.55535,-0.1455939253797442,0.025577311215360464,,,,None,,-0.3,-0.3,1.429620391832173,1.425,trial_list_0.5_red.csv,1.4253000999451615,1.4585736999870278,p15_base2_01,001,2023-05-15_13h40.35.179,expectation_shapes_perceived_time,2022.2.4,119.86340368554725,
,300,0.5,none,,red,green,,1417.0763279845166,,,,,0,45,45,24,trial,,,,,,red,1.4170763279845167,1.4166666666666667,2.3000281000277027,0.9966406999737956,2e-05,2e-05,0.03318,1.4166018000105396,1.4501808000495657,2.0002943000290543,2.033634899999015,2.3000281000277027,2.3000281000277027,2.500146800011862,2.583665100042708,0.28363700001500547,3.116445899999235,0.8164177999715321,0.5327807999565266,1.72425,-0.11263254396588214,0.09573766237099982,,,,None,,0.3,0.3,1.7504063279845166,1.75,trial_list_0.5_red.csv,1.7502304000081494,1.7836304000229575,p15_base2_01,001,2023-05-15_13h40.35.179,expectation_shapes_perceived_time,2022.2.4,119.86340368554725,
,-33,0.5,none,,green,red,,914.538131168526,,,,,0,46,46,129,trial,,,,,,green,0.914538131168526,0.9166666666666666,2.2999757999787107,0.9989961000392213,6e-05,6e-05,,0.9167821999872103,0.9501386999618262,1.9998081999947317,,2.2999757999787107,2.2999757999787107,2.500091499998234,2.407623599981889,0.10764780000317842,3.4500163999618962,1.1500405999831855,1.0423927999800071,1.10242,-0.046745898169240394,-0.1402376945077212,,,,None,,-0.033,-0.03333333333333333,0.8482081311685259,0.85,trial_list_0.5_red.csv,0.8492959999712184,0.8829768999712542,p15_base2_01,001,2023-05-15_13h40.35.179,expectation_shapes_perceived_time,2022.2.4,119.86340368554725,
,-167,0.5,none,,green,red,,821.8630687947602,,,,,0,47,47,183,trial,,,,,,green,0.8218630687947602,0.825,2.299836099962704,0.9972875999519601,1e-05,1e-05,,0.8243402999942191,0.8577370999846607,1.9999162000021897,,2.299836099962704,2.299836099962704,2.499589399958495,2.299836099962704,0.0,3.466309599985834,1.1664735000231303,1.1664735000231303,1.12112,-0.05490027316870664,-0.1372506829217666,,,,None,,-0.167,-0.16666666666666666,0.6215330687947602,0.6166666666666667,trial_list_0.5_red.csv,0.6162974999751896,0.6496204999857582,p15_base2_01,001,2023-05-15_13h40.35.179,expectation_shapes_perceived_time,2022.2.4,119.86340368554725,
,300,0.5,none,,red,green,,935.956049693788,,,,,0,48,48,4,trial,,,,,,red,0.935956049693788,0.9333333333333333,2.2999264000100084,0.9970324999885634,1e-05,1e-05,0.03359,0.9330221000127494,0.9667507000267506,1.999996199971065,2.0336295000161044,2.2999264000100084,2.2999264000100084,2.50001900002826,3.0835504999849945,0.7836240999749862,4.400499799987301,2.100573399977293,1.3169493000023067,0.91395,0.039475526420384946,-0.1424551605605196,,,,None,,0.3,0.3,1.2692860496937879,1.2666666666666666,trial_list_0.5_red.csv,1.2664802999934182,1.2997298000263982,p15_base2_01,001,2023-05-15_13h40.35.179,expectation_shapes_perceived_time,2022.2.4,119.86340368554725,
,100,0.5,none,,green,red,,1158.1480953980486,,,,,0,49,49,433,trial,,,,,,green,1.1581480953980485,1.1583333333333332,2.3003728999756277,0.9966820999979973,1e-05,1e-05,0.03396,1.1582600999972783,1.1916363999480382,2.000672099995427,2.033850399951916,2.3003728999756277,2.3003728999756277,2.5002208999940194,2.8589194999658503,0.5585465999902226,3.8838042999850586,1.583431400009431,1.0248848000192083,1.55829,-0.14535219679034342,0.026917073479693226,,,,None,,0.1,0.1,1.2914780953980485,1.2916666666666667,trial_list_0.5_red.csv,1.2918853999581188,1.3253658999456093,p15_base2_01,001,2023-05-15_13h40.35.179,expectation_shapes_perceived_time,2022.2.4,119.86340368554725,
,300,0.5,none,,green,red,,298.0683694612284,0,0,0,0,0,50,50,17,fam,0.532167199999094,0.532167199999094,270.0,2.5324854999780655,2.5324854999780655,,,,,,,,,,,,,,,,,,,,,,,,,,,,,,,,,,,,p15_base2_01,001,2023-05-15_13h40.35.179,expectation_shapes_perceived_time,2022.2.4,119.86340368554725,
,300,0.5,none,,green,red,,298.0683694612284,1,0,1,0,0,50,50,17,fam,0.49875189998419955,0.49875189998419955,270.0,2.4993030999903567,2.4993030999903567,,,,,,,,,,,,,,,,,,,,,,,,,,,,,,,,,,,,p15_base2_01,001,2023-05-15_13h40.35.179,expectation_shapes_perceived_time,2022.2.4,119.86340368554725,
,300,0.5,none,,green,red,,298.0683694612284,2,0,2,0,0,50,50,17,fam,0.49886570003582165,0.49886570003582165,270.0,2.4990248000249267,2.4990248000249267,,,,,,,,,,,,,,,,,,,,,,,,,,,,,,,,,,,,p15_base2_01,001,2023-05-15_13h40.35.179,expectation_shapes_perceived_time,2022.2.4,119.86340368554725,
,300,0.5,none,,green,red,,298.0683694612284,3,0,3,0,0,50,50,17,fam,0.4984602000331506,0.4984602000331506,270.0,2.498023000021931,2.498023000021931,,,,,,,,,,,,,,,,,,,,,,,,,,,,,,,,,,,,p15_base2_01,001,2023-05-15_13h40.35.179,expectation_shapes_perceived_time,2022.2.4,119.86340368554725,
,300,0.5,none,,green,red,,298.0683694612284,,,,,0,50,50,17,trial,,,,,,green,0.2980683694612284,0.3,2.300064599956386,0.9989533000043593,4e-05,4e-05,0.03313,0.299858599959407,0.33315640001092106,2.000506000011228,2.033526499988511,2.300064599956386,2.300064599956386,2.499976399994921,2.300064599956386,0.0,3.242041199991945,0.9419766000355594,0.9419766000355594,0.28958,0.11668481499240999,0.09075485610520777,,,,None,,0.3,0.3,0.6313983694612284,0.6333333333333333,trial_list_0.5_red.csv,0.633337399980519,0.6668488999712281,p15_base2_01,001,2023-05-15_13h40.35.179,expectation_shapes_perceived_time,2022.2.4,119.86340368554725,
,33,0.5,none,,red,green,,548.6900104158854,,,,,0,51,51,50,trial,,,,,,red,0.5486900104158854,0.55,2.300008600053843,0.9963654999737628,1e-05,1e-05,0.03306,0.5501207000343129,0.5833115000277758,1.9998018000042066,2.033322600007523,2.300008600053843,2.300008600053843,2.499627400015015,2.300008600053843,0.0,2.9333976000198163,0.6333889999659732,0.6333889999659732,0.25729,0.10689272820178594,0.10210648664051195,,,,None,,0.033,0.03333333333333333,0.6150200104158854,0.6166666666666667,trial_list_0.5_red.csv,0.6164645000244491,0.6499393000267446,p15_base2_01,001,2023-05-15_13h40.35.179,expectation_shapes_perceived_time,2022.2.4,119.86340368554725,
,-167,0.5,none,,green,red,,644.5391584409343,,,,,0,52,52,419,trial,,,,,,green,0.6445391584409343,0.6416666666666666,2.3002910999930464,0.9965868000290357,1e-05,1e-05,,0.6416912999702618,0.6750794000108726,2.000000400003046,,2.3002910999930464,2.3002910999930464,2.502099899982568,2.3002910999930464,0.0,3.4258100999868475,1.1255189999938011,1.1255189999938011,0.24211,0.10190411128137378,0.10708567626178263,,,,None,,-0.167,-0.16666666666666666,0.44420915844093434,0.44166666666666665,trial_list_0.5_red.csv,0.44195780000882223,0.47539719997439533,p15_base2_01,001,2023-05-15_13h40.35.179,expectation_shapes_perceived_time,2022.2.4,119.86340368554725,
,-33,0.5,none,,red,green,,1786.38331194824,,,,,0,53,53,238,trial,,,,,,red,1.78638331194824,1.7833333333333332,2.3000789000070654,0.9972551999962889,1e-05,1e-05,0.03298,1.7831425000331365,1.8161738000344485,1.999580200004857,2.0329006999963894,2.3000789000070654,2.3000789000070654,2.499715100042522,2.4411240000044927,0.14104509999742731,3.5248383000143804,1.224759400007315,1.0837143000098877,1.57266,-0.1439887436991443,0.033451930354346654,,,,None,,-0.033,-0.03333333333333333,1.72005331194824,1.7166666666666666,trial_list_0.5_red.csv,1.7166143000358716,1.749898000038229,p15_base2_01,001,2023-05-15_13h40.35.179,expectation_shapes_perceived_time,2022.2.4,119.86340368554725,
,-33,0.5,none,,green,red,,309.406431751549,,,,,0,54,54,357,trial,,,,,,green,0.309406431751549,0.30833333333333335,2.2998954000067897,0.9963656000327319,1e-05,1e-05,,0.30836769996676594,0.34184730000561103,2.000155200017616,,2.2998954000067897,2.2998954000067897,2.499780500016641,2.2998954000067897,0.0,3.424882199964486,1.1249867999576963,1.1249867999576963,0.33528,0.12846819856237152,0.07312805148934994,,,,None,,-0.033,-0.03333333333333333,0.24307643175154903,0.24166666666666667,trial_list_0.5_red.csv,0.24176760000409558,0.27497099997708574,p15_base2_01,001,2023-05-15_13h40.35.179,expectation_shapes_perceived_time,2022.2.4,119.86340368554725,
,167,0.5,none,,red,green,,1215.8561905640863,,,,,0,55,55,362,trial,,,,,,red,1.2158561905640863,1.2166666666666666,2.300272800028324,0.9984362999675795,1e-05,1e-05,0.03352,1.2166176000027917,1.2499978000414558,2.0000452999956906,2.0334453000104986,2.300272800028324,2.300272800028324,2.499943000031635,2.300272800028324,0.0,3.2913191000116058,0.9910462999832816,0.9910462999832816,1.09993,-0.04564889810834075,-0.14059860617368952,,,,None,,0.167,0.16666666666666666,1.4161861905640862,1.4166666666666667,trial_list_0.5_red.csv,1.4162172000505961,1.4499379000044428,p15_base2_01,001,2023-05-15_13h40.35.179,expectation_shapes_perceived_time,2022.2.4,119.86340368554725,
,-167,0.5,none,,red,green,,906.4313946657076,,,,,0,56,56,200,trial,,,,,,red,0.9064313946657075,0.9083333333333333,2.2996503000031225,0.9968677000142634,6e-05,6e-05,0.03308,0.9081199999782257,0.941542099986691,1.9999134999816306,2.033082799986005,2.2996503000031225,2.2996503000031225,2.4997430000221357,2.6830364000052214,0.38338610000209883,3.5829749000258744,1.2833246000227518,0.899938500020653,1.06798,-0.03132983067331201,-0.14446533032693873,,,,None,,-0.167,-0.16666666666666666,0.7061013946657075,0.7083333333333334,trial_list_0.5_red.csv,0.7080098000005819,0.7411065999767743,p15_base2_01,001,2023-05-15_13h40.35.179,expectation_shapes_perceived_time,2022.2.4,119.86340368554725,
,300,0.5,none,,red,green,,488.16463596578063,,,,,0,57,57,492,trial,,,,,,red,0.48816463596578064,0.49166666666666664,2.3005890999920666,0.9970775000401773,4e-05,4e-05,,0.49185759999090806,0.5250962999998592,2.000178899965249,,2.3005890999920666,2.3005890999920666,2.500262399960775,2.3005890999920666,0.0,3.8003151000011712,1.4997260000091046,1.4997260000091046,0.86037,0.06278363219702668,-0.1338282686305042,,,,None,,0.3,0.3,0.8214946359657808,0.8166666666666667,trial_list_0.5_red.csv,0.8167482999851927,0.850271100003738,p15_base2_01,001,2023-05-15_13h40.35.179,expectation_shapes_perceived_time,2022.2.4,119.86340368554725,
,-300,0.5,none,,red,green,,722.1178753229146,,,,,0,58,58,226,trial,,,,,,red,0.7221178753229146,0.725,2.300599499954842,0.9971531999763101,2e-05,2e-05,,0.7255884999758564,0.7590118999942206,2.0002701999619603,,2.300599499954842,2.300599499954842,2.5002113999798894,2.375606199959293,0.07500670000445098,3.508661799947731,1.2080622999928892,1.1330555999884382,0.37749,0.13701016541046246,0.05549778852069366,,,,None,,-0.3,-0.3,0.38878787532291464,0.39166666666666666,trial_list_0.5_red.csv,0.3921942999586463,0.4253173999604769,p15_base2_01,001,2023-05-15_13h40.35.179,expectation_shapes_perceived_time,2022.2.4,119.86340368554725,
,33,0.5,none,,green,red,,1117.651872292552,,,,,0,59,59,227,trial,,,,,,green,1.1176518722925521,1.1166666666666667,2.300610799982678,0.996956399991177,2e-05,2e-05,0.03325,1.116910899989307,1.1502699999837205,2.0001875999732874,2.0339567000046372,2.300610799982678,2.300610799982678,2.5004996999632567,2.791912399989087,0.491301600006409,3.7833084000158124,1.4826976000331342,0.9913960000267252,1.05641,-0.026061151722912394,-0.14550809711959423,,,,None,,0.033,0.03333333333333333,1.183981872292552,1.1833333333333333,trial_list_0.5_red.csv,1.183636799978558,1.216947800014168,p15_base2_01,001,2023-05-15_13h40.35.179,expectation_shapes_perceived_time,2022.2.4,119.86340368554725,
,233,0.5,none,,green,red,,1403.7706712498325,,,,,0,60,60,493,trial,,,,,,green,1.4037706712498326,1.4,2.300285800010897,0.9979068000102416,1e-05,1e-05,,1.4000280000036582,1.4332594000152312,2.0003777999663725,,2.300285800010897,2.300285800010897,2.5000792000209913,2.9832425999920815,0.6829567999811843,4.074677500000689,1.774391699989792,1.0914349000086077,1.65405,-0.13084808811345758,0.06877912323912513,,,,None,,0.233,0.23333333333333334,1.6701006712498325,1.6666666666666667,trial_list_0.5_red.csv,1.6665729000233114,1.6998180000227876,p15_base2_01,001,2023-05-15_13h40.35.179,expectation_shapes_perceived_time,2022.2.4,119.86340368554725,
,233,0.5,none,,green,red,,1616.0028904419073,,,,,0,61,61,359,trial,,,,,,green,1.6160028904419073,1.6166666666666667,2.3002945999614894,0.9981876999954693,4e-05,4e-05,0.03321,1.617235100013204,1.650516499998048,2.0000300999963656,2.033945099974517,2.3002945999614894,2.3002945999614894,2.5001995000056922,2.7418137000058778,0.4415191000443883,3.900131299975328,1.5998367000138387,1.1583175999694504,1.74332,-0.10669640323554297,0.10231161954093163,,,,None,,0.233,0.23333333333333334,1.8823328904419072,1.8833333333333333,trial_list_0.5_red.csv,1.8839067000080831,1.9172244999790564,p15_base2_01,001,2023-05-15_13h40.35.179,expectation_shapes_perceived_time,2022.2.4,119.86340368554725,
