id,delay,expectation,congruency,trial_num,stim_color,distractor_color,block,targetTimeMs,famLoop.thisRepN,famLoop.thisTrialN,famLoop.thisN,famLoop.thisIndex,trialss.thisRepN,trialss.thisTrialN,trialss.thisN,trialss.thisIndex,isTrial,handMove.started,audioCue2Start.started,handOri,handMove.ended,audioCue2End.started,target_color,expected_target_onset,expected_target_onset_in_frames,fixationPoint.started,fixationPoint.stopped,audCueStart.started,placeholder.started,target.started,target.stopped,audCueEnd.started,responsePointer.started,cueForRep.started,space2pass.started,responseStarted,rtUntillMotionTreshold,responsePointer.stopped,rTAfterMotionTreshold,rtDurationBtwRespMotion,perceivedTime,resp_x_coord,resp_y_coord,feedbackPointer.stopped,actualTime_x_coord,actualTime_y_coord,space2pass.keys,space2pass.rt,audCueStart.stopped,audCueEnd.stopped,expected_delay,expected_delays_frame,expected_distractor,expected_distractor_frame,expBlockFiles,distractor.started,distractor.stopped,participant,session,date,expName,psychopyVersion,frameRate,
,,,,,,,,,0,0,0,0,,,,,fam,1.1989727999316528,1.1989727999316528,270.0,3.198915799963288,3.198915799963288,,,,,,,,,,,,,,,,,,,,,,,,,,,,,,,,,,,,p1_base_01,001,2023-05-10_16h48.41.181,expectation_shapes_perceived_time,2022.2.4,120.01819478509763,
,,,,,,,,,1,0,1,0,,,,,fam,0.4988871000241488,0.4988871000241488,270.0,2.4992337999865413,2.4992337999865413,,,,,,,,,,,,,,,,,,,,,,,,,,,,,,,,,,,,p1_base_01,001,2023-05-10_16h48.41.181,expectation_shapes_perceived_time,2022.2.4,120.01819478509763,
,,,,,,,,,2,0,2,0,,,,,fam,0.49894690001383424,0.49894690001383424,270.0,2.4989878999767825,2.4989878999767825,,,,,,,,,,,,,,,,,,,,,,,,,,,,,,,,,,,,p1_base_01,001,2023-05-10_16h48.41.181,expectation_shapes_perceived_time,2022.2.4,120.01819478509763,
,,,,,,,,,3,0,3,0,,,,,fam,0.4983619999838993,0.4983619999838993,270.0,2.498308799928054,2.498308799928054,,,,,,,,,,,,,,,,,,,,,,,,,,,,,,,,,,,,p1_base_01,001,2023-05-10_16h48.41.181,expectation_shapes_perceived_time,2022.2.4,120.01819478509763,
,,,,,,,,,4,0,4,0,,,,,fam,0.49822340009268373,0.49822340009268373,270.0,2.4985177000053227,2.4985177000053227,,,,,,,,,,,,,,,,,,,,,,,,,,,,,,,,,,,,p1_base_01,001,2023-05-10_16h48.41.181,expectation_shapes_perceived_time,2022.2.4,120.01819478509763,
,,,,,,,,,5,0,5,0,,,,,fam,0.49862169998232275,0.49862169998232275,270.0,2.4979752999497578,2.4979752999497578,,,,,,,,,,,,,,,,,,,,,,,,,,,,,,,,,,,,p1_base_01,001,2023-05-10_16h48.41.181,expectation_shapes_perceived_time,2022.2.4,120.01819478509763,
,,,,,,,,,6,0,6,0,,,,,fam,0.4979913999559358,0.4979913999559358,270.0,2.4986806999659166,2.4986806999659166,,,,,,,,,,,,,,,,,,,,,,,,,,,,,,,,,,,,p1_base_01,001,2023-05-10_16h48.41.181,expectation_shapes_perceived_time,2022.2.4,120.01819478509763,
,,,,,,,,,7,0,7,0,,,,,fam,0.4988154999446124,0.4988154999446124,270.0,2.4986118000233546,2.4986118000233546,,,,,,,,,,,,,,,,,,,,,,,,,,,,,,,,,,,,p1_base_01,001,2023-05-10_16h48.41.181,expectation_shapes_perceived_time,2022.2.4,120.01819478509763,
,,,,,,,,,8,0,8,0,,,,,fam,0.4984702999936417,0.4984702999936417,270.0,2.4980950999306515,2.4980950999306515,,,,,,,,,,,,,,,,,,,,,,,,,,,,,,,,,,,,p1_base_01,001,2023-05-10_16h48.41.181,expectation_shapes_perceived_time,2022.2.4,120.01819478509763,
,,,,,,,,,9,0,9,0,,,,,fam,0.4985268999589607,0.4985268999589607,270.0,2.4985972000285983,2.4985972000285983,,,,,,,,,,,,,,,,,,,,,,,,,,,,,,,,,,,,p1_base_01,001,2023-05-10_16h48.41.181,expectation_shapes_perceived_time,2022.2.4,120.01819478509763,
,,,,,,,,,10,0,10,0,,,,,fam,0.4986685999901965,0.4986685999901965,270.0,2.4988700000103563,2.4988700000103563,,,,,,,,,,,,,,,,,,,,,,,,,,,,,,,,,,,,p1_base_01,001,2023-05-10_16h48.41.181,expectation_shapes_perceived_time,2022.2.4,120.01819478509763,
,,,,,,,,,11,0,11,0,,,,,fam,0.49849660007748753,0.49849660007748753,270.0,2.4981435000663623,2.4981435000663623,,,,,,,,,,,,,,,,,,,,,,,,,,,,,,,,,,,,p1_base_01,001,2023-05-10_16h48.41.181,expectation_shapes_perceived_time,2022.2.4,120.01819478509763,
,,,,,,,,,12,0,12,0,,,,,fam,0.4987486000172794,0.4987486000172794,270.0,2.498711100080982,2.498711100080982,,,,,,,,,,,,,,,,,,,,,,,,,,,,,,,,,,,,p1_base_01,001,2023-05-10_16h48.41.181,expectation_shapes_perceived_time,2022.2.4,120.01819478509763,
,,,,,,,,,13,0,13,0,,,,,fam,0.4980328999226913,0.4980328999226913,270.0,2.4984932999359444,2.4984932999359444,,,,,,,,,,,,,,,,,,,,,,,,,,,,,,,,,,,,p1_base_01,001,2023-05-10_16h48.41.181,expectation_shapes_perceived_time,2022.2.4,120.01819478509763,
,,,,,,,,,14,0,14,0,,,,,fam,0.498798800050281,0.498798800050281,270.0,2.498644100036472,2.498644100036472,,,,,,,,,,,,,,,,,,,,,,,,,,,,,,,,,,,,p1_base_01,001,2023-05-10_16h48.41.181,expectation_shapes_perceived_time,2022.2.4,120.01819478509763,
,,,,,,,,,15,0,15,0,,,,,fam,0.49870689993258566,0.49870689993258566,270.0,2.4989921000087634,2.4989921000087634,,,,,,,,,,,,,,,,,,,,,,,,,,,,,,,,,,,,p1_base_01,001,2023-05-10_16h48.41.181,expectation_shapes_perceived_time,2022.2.4,120.01819478509763,
,,,,,,,,,16,0,16,0,,,,,fam,0.4983745999634266,0.4983745999634266,270.0,2.498746700002812,2.498746700002812,,,,,,,,,,,,,,,,,,,,,,,,,,,,,,,,,,,,p1_base_01,001,2023-05-10_16h48.41.181,expectation_shapes_perceived_time,2022.2.4,120.01819478509763,
,,,,,,,,,17,0,17,0,,,,,fam,0.49911810003686696,0.49911810003686696,270.0,2.4988577000331134,2.4988577000331134,,,,,,,,,,,,,,,,,,,,,,,,,,,,,,,,,,,,p1_base_01,001,2023-05-10_16h48.41.181,expectation_shapes_perceived_time,2022.2.4,120.01819478509763,
,,,,,,,,,18,0,18,0,,,,,fam,0.4990488999756053,0.4990488999756053,270.0,2.498608099995181,2.498608099995181,,,,,,,,,,,,,,,,,,,,,,,,,,,,,,,,,,,,p1_base_01,001,2023-05-10_16h48.41.181,expectation_shapes_perceived_time,2022.2.4,120.01819478509763,
,,,,,,,,,19,0,19,0,,,,,fam,0.4985994000453502,0.4985994000453502,270.0,2.5157588999718428,2.5157588999718428,,,,,,,,,,,,,,,,,,,,,,,,,,,,,,,,,,,,p1_base_01,001,2023-05-10_16h48.41.181,expectation_shapes_perceived_time,2022.2.4,120.01819478509763,
,,,,,,,,,,,,,0,0,0,0,test,,,,,,red,0.535370324373677,0.5333333333333333,2.3005132999969646,0.9986022999510169,1.4699995517730713e-05,1e-05,0.5337842999724671,0.5670539999846369,2.0005758000770584,2.3005132999969646,2.3005132999969646,2.6003717000130564,2.7999970000237226,0.499483700026758,7.608658500015736,5.308145200018771,4.808661499992013,0.51908,0.14755814344177814,-0.008853488606506688,7.608658500015736,0.1469118252856601,-0.01639224047302903,space,5.007199099985883,,,,,,,,,,p1_base_01,001,2023-05-10_16h48.41.181,expectation_shapes_perceived_time,2022.2.4,120.01819478509763,
,,,,,,,,,,,,,1,0,1,0,test,,,,,,green,0.42832068441212884,0.425,2.3001506999135017,0.9983295000856742,1.5199999324977398e-05,2e-05,0.42470699991099536,0.45814130001235753,1.9997914999257773,2.3001506999135017,2.3001506999135017,2.6168595999479294,2.4750611999770626,0.1749105000635609,4.7001429999945685,2.399992300081067,2.225081800017506,0.51889,0.14756335840640908,-0.008766140103351035,4.7001429999945685,0.1440913091112475,0.03300734153331417,space,2.079119100002572,0.03339220001362264,2.033119299914688,,,,,,,,p1_base_01,001,2023-05-10_16h48.41.181,expectation_shapes_perceived_time,2022.2.4,120.01819478509763,
,,,,,,,,,,,,,2,0,2,0,test,,,,,,red,1.5054854643080493,1.5083333333333333,2.3001286999788135,0.9986191000789404,2.5999965146183968e-05,3e-05,1.5080322999274358,1.5413997999858111,2.0001722999149933,2.3001286999788135,2.3001286999788135,2.600272799958475,2.3001286999788135,0.0,4.516787300002761,2.2166586000239477,2.2166586000239477,1.50114,-0.14782255312883125,0.0005317358026216951,4.516787300002761,-0.1478015597492774,0.002547330400774377,space,1.9153822999214754,,,,,,,,,,p1_base_01,001,2023-05-10_16h48.41.181,expectation_shapes_perceived_time,2022.2.4,120.01819478509763,
,,,,,,,,,,,,,3,0,3,0,test,,,,,,green,0.8276929437943387,0.825,2.300625800038688,0.9978972999379039,1.2499978765845299e-05,1e-05,0.8251573999878019,0.8587398000527173,2.0005405000410974,2.300625800038688,2.300625800038688,2.600735199986957,2.399993999977596,0.09936819993890822,4.292357600061223,1.991731800022535,1.8923636000836268,0.83237,0.07429911994810665,-0.12779448631074344,4.292357600061223,0.07616850287440638,-0.1266891831466344,space,1.686685899971053,0.03347520006354898,2.0337546999799088,,,,,,,,p1_base_01,001,2023-05-10_16h48.41.181,expectation_shapes_perceived_time,2022.2.4,120.01819478509763,
,,,,,,,,,,,,,4,0,4,0,test,,,,,,red,0.6503458192488974,0.65,2.3004448999417946,0.9976342999143526,1.4499993994832039e-05,1e-05,0.6502670999616385,0.6836398999439552,2.000294200028293,2.3004448999417946,2.3004448999417946,2.6002818000270054,2.933698400040157,0.6332535000983626,5.600357700022869,3.2999128000810742,2.6666592999827117,0.78569,0.09217673964103815,-0.11556486760965978,5.600357700022869,0.1316387232920944,-0.067253523970996,space,2.9950957000255585,0.03337019996251911,2.033677199971862,,,,,,,,p1_base_01,001,2023-05-10_16h48.41.181,expectation_shapes_perceived_time,2022.2.4,120.01819478509763,
,,,,,,,,,,,,,5,0,5,0,test,,,,,,red,1.0867291643270942,1.0833333333333333,2.3001162000000477,0.9945880000013858,1.4299992471933365e-05,1e-05,1.0837185999844223,1.1171401999890804,2.0002377999480814,2.3001162000000477,2.3001162000000477,2.6002364999148995,2.3001162000000477,0.0,3.9501132000004873,1.6499970000004396,1.6499970000004396,0.9899,0.0046904468792426535,-0.14774907669614362,3.9501132000004873,-0.039780625709391046,-0.14237026295775132,space,1.3467085999436677,0.033088999916799366,2.033628199947998,,,,,,,,p1_base_01,001,2023-05-10_16h48.41.181,expectation_shapes_perceived_time,2022.2.4,120.01819478509763,
,,,,,,,,,,,,,6,0,6,0,test,,,,,,red,0.16238557117594854,0.15833333333333333,2.2997161999810487,0.998680799966678,1.6600009985268116e-05,2e-05,0.15833510004449636,0.19139900000300258,2.0000376000534743,2.2997161999810487,2.2997161999810487,2.5995681999484077,2.3079574999865144,0.008241300005465746,4.741970199975185,2.4422539999941364,2.4340126999886706,0.22581,0.09628937547818367,0.11216125055700514,4.741970199975185,0.07218333684729979,0.1290013792099882,space,2.133839200017974,0.03304580005351454,2.033195500029251,,,,,,,,p1_base_01,001,2023-05-10_16h48.41.181,expectation_shapes_perceived_time,2022.2.4,120.01819478509763,
,,,,,,,,,,,,,7,0,7,0,test,,,,,,green,1.8447559830114775,1.8416666666666666,2.300292499945499,0.9954215000616387,1.9799917936325073e-05,2e-05,1.8416863000020385,1.875189199927263,1.9999762999359518,2.300292499945499,2.300292499945499,2.599718799930997,3.033332899911329,0.7330403999658301,5.708366499980912,3.4080740000354126,2.6750336000695825,1.6339,-0.1349359975171565,0.0603661041524121,5.708366499980912,-0.06927115690915095,0.13058827197324313,space,3.1041037999093533,0.0334457999560982,2.0334526000078768,,,,,,,,p1_base_01,001,2023-05-10_16h48.41.181,expectation_shapes_perceived_time,2022.2.4,120.01819478509763,
,,,,,,,,,,,,,8,0,8,0,test,,,,,,green,0.4020146375522478,0.4,2.299495599931106,0.998754300060682,1.5099998563528061e-05,2e-05,0.3998217999469489,0.43336669995915145,1.9995994999771938,2.299495599931106,2.299495599931106,2.600039399927482,2.3913024999201298,0.0918068999890238,4.549973199958913,2.250477600027807,2.1586707000387833,0.5063,0.14779453584516836,-0.0029266244721815513,4.549973199958913,0.1408748105230412,0.04478925894215224,space,1.946592599968426,0.03311680001206696,2.032910199952312,,,,,,,,p1_base_01,001,2023-05-10_16h48.41.181,expectation_shapes_perceived_time,2022.2.4,120.01819478509763,
,,,,,,,,,,,,,9,0,9,0,test,,,,,,red,1.690223563513762,1.6916666666666667,2.300535599933937,0.9981611999683082,1.880002673715353e-05,2e-05,1.6920462999260053,1.7251652999548241,2.0003956999862567,2.300535599933937,2.300535599933937,2.600104399956763,2.500511599937454,0.19997600000351667,4.067145999986678,1.7666104000527412,1.5666344000492245,1.50732,-0.14778446471170242,0.003397344016360976,4.067145999986678,-0.12220356568454198,0.08317498716846165,space,1.461405000067316,0.03348599991295487,2.0337409999920055,,,,,,,,p1_base_01,001,2023-05-10_16h48.41.181,expectation_shapes_perceived_time,2022.2.4,120.01819478509763,
,,,,,,,,,,,,,10,0,10,0,test,,,,,,green,1.6441686527004207,1.6416666666666666,2.3001521999249235,0.9981166000943631,1.2699980288743973e-05,1e-05,1.641786599997431,1.6751426999690011,1.999905199976638,2.3001521999249235,2.3001521999249235,2.5999927999218926,2.700313700013794,0.4001615000888705,6.083259499981068,3.7831073000561446,3.382945799967274,1.71241,-0.11611413565999011,0.09148386445938614,6.083259499981068,-0.13291898606497382,0.06468642129496122,space,3.4826442999765277,0.033490999951027334,2.0335477999178693,,,,,,,,p1_base_01,001,2023-05-10_16h48.41.181,expectation_shapes_perceived_time,2022.2.4,120.01819478509763,
,,,,,,,,,,,,,11,0,11,0,test,,,,,,green,1.3164467685987422,1.3166666666666667,2.299531300086528,0.9983962000114843,1.4199991710484028e-05,1e-05,1.3169761000899598,1.3495406000874937,2.0002102000871673,2.299531300086528,2.299531300086528,2.5999453000258654,2.508158100070432,0.20862679998390377,3.9331546000903472,1.6336233000038192,1.4249965000199154,1.50964,-0.14775568497614017,0.004477444999276975,3.9331546000903472,-0.12391957802752698,-0.08059608016504013,space,1.3270696999970824,0.0333787000272423,2.033386200084351,,,,,,,,p1_base_01,001,2023-05-10_16h48.41.181,expectation_shapes_perceived_time,2022.2.4,120.01819478509763,
,,,,,,,,,,,,,12,0,12,0,test,,,,,,green,1.1041489814515284,1.1083333333333334,2.2999842000426725,0.9983788999961689,1.2199976481497288e-05,1e-05,1.1084913000231609,1.141743200016208,2.000344399944879,2.2999842000426725,2.2999842000426725,2.600119699956849,2.2999842000426725,0.0,3.6832020999863744,1.383217899943702,1.383217899943702,1.03304,-0.015315414979241233,-0.14702798380071583,3.6832020999863744,-0.047508532603508305,-0.1399811747570055,space,1.081129299942404,,,,,,,,,,p1_base_01,001,2023-05-10_16h48.41.181,expectation_shapes_perceived_time,2022.2.4,120.01819478509763,
,,,,,,,,,,,,,13,0,13,0,test,,,,,,red,0.4305690086378392,0.43333333333333335,2.300413199933246,0.9982929999241605,1.3899989426136017e-05,1e-05,0.4334887999575585,0.4670079000061378,2.000151799991727,2.300413199933246,2.300413199933246,2.6005917999427766,2.300413199933246,0.0,3.7249167999252677,1.424503599992022,1.424503599992022,0.50579,0.14779908190342178,-0.002687256034607669,3.7249167999252677,0.14432085417410365,0.03198876376084316,space,1.1178813999285921,0.03356849995907396,2.0332542998949066,,,,,,,,p1_base_01,001,2023-05-10_16h48.41.181,expectation_shapes_perceived_time,2022.2.4,120.01819478509763,
,,,,,,,,,,,,,14,0,14,0,test,,,,,,green,0.7361710037018876,0.7333333333333333,2.2998158000409603,0.9991313999053091,2.2300053387880325e-05,2e-05,0.7333367000101134,0.7666003999765962,1.9998080000514165,2.2998158000409603,2.2998158000409603,2.600403400021605,2.2998158000409603,0.0,3.592054200009443,1.2922383999684826,1.2922383999684826,0.68103,0.12455413326554059,-0.07961192023158266,3.592054200009443,0.10896813046477764,-0.09988862047050764,space,0.9846211000112817,0.033154800068587065,,,,,,,,,p1_base_01,001,2023-05-10_16h48.41.181,expectation_shapes_perceived_time,2022.2.4,120.01819478509763,
,,,,,,,,,,,,,15,0,15,0,test,,,,,,red,0.520745800201963,0.5166666666666666,2.2998055000789464,0.998329000081867,2.2400054149329662e-05,2e-05,0.5162500999867916,0.5500073999864981,2.000012000091374,2.2998055000789464,2.2998055000789464,2.600013800081797,2.449848100077361,0.15004259999841452,3.799862700048834,1.5000571999698877,1.3500145999714732,0.50943,0.14775866394400888,-0.004378034487229893,3.799862700048834,0.1475096610963988,-0.009627556269141992,space,1.1936229000566527,,,,,,,,,,p1_base_01,001,2023-05-10_16h48.41.181,expectation_shapes_perceived_time,2022.2.4,120.01819478509763,
,,,,,,,,,,,,,16,0,16,0,test,,,,,,green,0.494079240054959,0.49166666666666664,2.299732099985704,0.9985538000473753,5.740008782595396e-05,6e-05,0.4918483999790624,0.5247528000036255,2.000145100057125,2.299732099985704,2.299732099985704,2.5997937000356615,2.299732099985704,0.0,3.4333027000539005,1.1335706000681967,1.1335706000681967,0.47637,0.14741628833740275,0.010964847892864667,3.4333027000539005,0.14779793801812607,0.002749449777697377,space,0.8330770999891683,,,,,,,,,,p1_base_01,001,2023-05-10_16h48.41.181,expectation_shapes_perceived_time,2022.2.4,120.01819478509763,
,,,,,,,,,,,,,17,0,17,0,test,,,,,,green,0.8306167948472518,0.8333333333333334,2.3004336999729276,0.9981527000200003,1.2299977242946625e-05,1e-05,0.8334420999744907,0.867231999989599,2.000212199985981,2.3004336999729276,2.3004336999729276,2.6001157999271527,2.3004336999729276,0.0,4.3172770999372005,2.016843399964273,2.016843399964273,1.03522,-0.016324375742178578,-0.1469193816796072,4.3172770999372005,0.0750015962309738,-0.1273834782037918,space,1.7129494999535382,0.03336809994652867,2.033468500012532,,,,,,,,p1_base_01,001,2023-05-10_16h48.41.181,expectation_shapes_perceived_time,2022.2.4,120.01819478509763,
,,,,,,,,,,,,,18,0,18,0,test,,,,,,red,1.8085290477549947,1.8083333333333333,2.299982800032012,0.9983960000099614,5.240004975348711e-05,5e-05,1.8080621999688447,1.8414228999754414,1.9998474000021815,2.299982800032012,2.299982800032012,2.6001275000162423,2.641749400063418,0.3417666000314057,4.058555099996738,1.758572299964726,1.4168056999333203,1.7151,-0.11533771379118225,0.09246081188218742,4.058555099996738,-0.08365323706692361,0.12187668310515758,space,1.450790600036271,,,,,,,,,,p1_base_01,001,2023-05-10_16h48.41.181,expectation_shapes_perceived_time,2022.2.4,120.01819478509763,
,,,,,,,,,,,,,19,0,19,0,test,,,,,,green,0.7376193066908568,0.7416666666666667,2.300098599982448,0.9979597999481484,9.059999138116837e-05,9e-05,0.7419226999627426,0.7753980999113992,2.0004316999111325,2.300098599982448,2.300098599982448,2.600430399994366,2.3085833999793977,0.008484799996949732,3.691749299992807,1.3916507000103593,1.3831659000134096,0.67311,0.12649730499152448,-0.07648674255301478,3.691749299992807,0.10851251306080283,-0.10038338739910613,space,1.0896916000638157,0.03363209997769445,,,,,,,,,p1_base_01,001,2023-05-10_16h48.41.181,expectation_shapes_perceived_time,2022.2.4,120.01819478509763,
,,,,,,,,,0,0,0,0,,,,,fam,0.5321083000162616,0.5321083000162616,270.0,2.5321576999267563,2.5321576999267563,,,,,,,,,,,,,,,,,,,,,,,,,,,,,,,,,,,,p1_base_01,001,2023-05-10_16h48.41.181,expectation_shapes_perceived_time,2022.2.4,120.01819478509763,
,,,,,,,,,1,0,1,0,,,,,fam,0.4977991000050679,0.4977991000050679,270.0,2.498037000070326,2.498037000070326,,,,,,,,,,,,,,,,,,,,,,,,,,,,,,,,,,,,p1_base_01,001,2023-05-10_16h48.41.181,expectation_shapes_perceived_time,2022.2.4,120.01819478509763,
,,,,,,,,,2,0,2,0,,,,,fam,0.4986179999541491,0.4986179999541491,270.0,2.498498999979347,2.498498999979347,,,,,,,,,,,,,,,,,,,,,,,,,,,,,,,,,,,,p1_base_01,001,2023-05-10_16h48.41.181,expectation_shapes_perceived_time,2022.2.4,120.01819478509763,
,,,,,,,,,3,0,3,0,,,,,fam,0.4984536999836564,0.4984536999836564,270.0,2.4985346000175923,2.4985346000175923,,,,,,,,,,,,,,,,,,,,,,,,,,,,,,,,,,,,p1_base_01,001,2023-05-10_16h48.41.181,expectation_shapes_perceived_time,2022.2.4,120.01819478509763,
,,,,,,,,,4,0,4,0,,,,,fam,0.4984526000916958,0.4984526000916958,270.0,2.498826300026849,2.498826300026849,,,,,,,,,,,,,,,,,,,,,,,,,,,,,,,,,,,,p1_base_01,001,2023-05-10_16h48.41.181,expectation_shapes_perceived_time,2022.2.4,120.01819478509763,
,,,,,,,,,,,,,0,0,0,0,testSingleStim,,,,,,red,1.4904697032864744,1.4916666666666667,0.03415660001337528,0.9985994999296963,1.3599987141788006e-05,1e-05,1.4918252000352368,1.5250846000853926,1.999894900014624,2.2999133000848815,2.2999133000848815,2.600211900076829,2.2999133000848815,0.0,3.1334726000204682,0.8335592999355868,0.8335592999355868,1.51685,-0.1476164827169791,0.00782074080619757,,,,None,,0.03329610009677708,2.033400700078346,,,,,,,,p1_base_01,001,2023-05-10_16h48.41.181,expectation_shapes_perceived_time,2022.2.4,120.01819478509763,
,,,,,,,,,,,,,1,0,1,0,testSingleStim,,,,,,red,1.6082678609321974,1.6083333333333334,0.002675600000657141,0.9969208999536932,2.7400092221796513e-05,3e-05,1.6082902000052854,1.6415782000403851,1.9999151000520214,2.299841700005345,2.299841700005345,2.599582500057295,2.558069000020623,0.25822730001527816,3.383258100016974,1.0834164000116289,0.8251890999963507,1.51852,-0.1475733378907394,0.008596505119848896,,,,None,,0.0333242000779137,,,,,,,,,p1_base_01,001,2023-05-10_16h48.41.181,expectation_shapes_perceived_time,2022.2.4,120.01819478509763,
,,,,,,,,,,,,,2,0,2,0,testSingleStim,,,,,,red,1.237574008648572,1.2416666666666667,0.0025406000204384327,0.997349499957636,1.4199991710484028e-05,1e-05,1.2419074999634176,1.275331599987112,2.000042299972847,2.3004009999567643,2.3004009999567643,2.600281299906783,2.3004009999567643,0.0,3.183372600004077,0.8829716000473127,0.8829716000473127,1.11922,-0.05408137072654516,-0.1375754167605096,,,,None,,,2.033413299941458,,,,,,,,p1_base_01,001,2023-05-10_16h48.41.181,expectation_shapes_perceived_time,2022.2.4,120.01819478509763,
,,,,,,,,,,,,,3,0,3,0,testSingleStim,,,,,,red,1.2246732344106968,1.225,0.0026342999190092087,0.9981535999104381,2.2699940018355846e-05,2e-05,1.2252799000125378,1.258699500001967,1.999975400045514,2.29991770000197,2.29991770000197,2.600106199970469,2.366706799948588,0.06678909994661808,4.049570800038055,1.7496531000360847,1.6828640000894666,1.04294,-0.019879523128644126,-0.14648069673737776,,,,None,,0.03329859999939799,2.0333903999999166,,,,,,,,p1_base_01,001,2023-05-10_16h48.41.181,expectation_shapes_perceived_time,2022.2.4,120.01819478509763,
,,,,,,,,,,,,,4,0,4,0,testSingleStim,,,,,,red,1.0187548161528357,1.0166666666666666,0.002406699932180345,0.9982983999652788,2.4000066332519054e-05,2e-05,1.0170918999938294,1.0504251000238582,2.0003590000560507,2.3003209000453353,2.3003209000453353,2.5998647999949753,2.3003209000453353,0.0,3.8422252000309527,1.5419042999856174,1.5419042999856174,0.99686,0.0014563185780889743,-0.1478163356760309,,,,None,,0.033413800061680377,2.033700400032103,,,,,,,,p1_base_01,001,2023-05-10_16h48.41.181,expectation_shapes_perceived_time,2022.2.4,120.01819478509763,
,,,,,,,,,,,,,5,0,5,0,testSingleStim,,,,,,green,1.2146818071065437,1.2166666666666666,0.0023843999952077866,0.9971438000211492,1.3499986380338669e-05,1e-05,1.216596100013703,1.2501941000809893,1.999960600049235,2.300113199977204,2.300113199977204,2.5999687999719754,2.6996770000550896,0.3995638000778854,3.717110599973239,1.4169973999960348,1.0174335999181494,0.88168,0.053690711398895564,-0.1377283466319495,,,,None,,0.033267099992372096,2.033721200074069,,,,,,,,p1_base_01,001,2023-05-10_16h48.41.181,expectation_shapes_perceived_time,2022.2.4,120.01819478509763,
,,,,,,,,,,,,,6,0,6,0,testSingleStim,,,,,,green,0.6289505957002407,0.625,0.002329000039026141,0.9973284000298008,2.789997961372137e-05,3e-05,0.6252940000267699,0.658597300061956,2.000310300034471,2.3003260999685153,2.3003260999685153,2.5998455999651924,2.7414258000208065,0.44109970005229115,3.8415246000513434,1.541198500082828,1.100098800030537,0.52737,0.14727726746661216,-0.012696316160914841,,,,None,,0.03327969997189939,2.0334762000711635,,,,,,,,p1_base_01,001,2023-05-10_16h48.41.181,expectation_shapes_perceived_time,2022.2.4,120.01819478509763,
,,,,,,,,,,,,,7,0,7,0,testSingleStim,,,,,,green,1.6091711373028788,1.6083333333333334,0.0025266000302508473,0.9974255999550223,1.8900027498602867e-05,2e-05,1.6084773000329733,1.641937099979259,1.9997973999707028,2.3004624999593943,2.3004624999593943,2.6004509000340477,2.3004624999593943,0.0,3.100544000044465,0.8000815000850707,0.8000815000850707,1.48888,-0.14773338864561997,-0.005160991743078427,,,,None,,0.03362610004842281,2.0332835000008345,,,,,,,,p1_base_01,001,2023-05-10_16h48.41.181,expectation_shapes_perceived_time,2022.2.4,120.01819478509763,
,,,,,,,,,,,,,8,0,8,0,testSingleStim,,,,,,red,1.0029584924561785,1.0,0.0023549998877570033,0.9976617998909205,1.3299984857439995e-05,1e-05,0.9996907999739051,1.0332274999236688,1.9997879998991266,2.2997154999757186,2.2997154999757186,2.599648099974729,2.308534099953249,0.008818599977530539,3.241444499930367,0.9417289999546483,0.9329103999771178,0.87143,0.05809820646155054,-0.13592787926853334,,,,None,,0.03352319996338338,2.0335316999116912,,,,,,,,p1_base_01,001,2023-05-10_16h48.41.181,expectation_shapes_perceived_time,2022.2.4,120.01819478509763,
,,,,,,,,,,,,,9,0,9,0,testSingleStim,,,,,,red,0.3022979496817087,0.3,0.002231099992059171,0.9978079000720754,1.2699980288743973e-05,1e-05,0.3000501999631524,0.3333338999655098,1.9996617999859154,2.2998171999352053,2.2998171999352053,2.599793199915439,2.2998171999352053,0.0,3.491771799977869,1.1919546000426635,1.1919546000426635,0.44302,0.1454612174125767,0.026321553627037687,,,,None,,0.03357319999486208,2.033088899916038,,,,,,,,p1_base_01,001,2023-05-10_16h48.41.181,expectation_shapes_perceived_time,2022.2.4,120.01819478509763,
,,,,,,,,,,,,,10,0,10,0,testSingleStim,,,,,,green,0.3231296437755526,0.325,0.0024139999877661467,0.9976622000103816,1.3399985618889332e-05,1e-05,0.32501410006079823,0.3582805000478402,1.9993787000421435,2.299754500039853,2.299754500039853,2.599731000023894,2.299754500039853,0.0,3.4579727000091225,1.1582181999692693,1.1582181999692693,0.44978,0.14598758678082158,0.023225297896948886,,,,None,,,,,,,,,,,p1_base_01,001,2023-05-10_16h48.41.181,expectation_shapes_perceived_time,2022.2.4,120.01819478509763,
,,,,,,,,,,,,,11,0,11,0,testSingleStim,,,,,,green,1.6814161081612673,1.6833333333333333,0.0028677000664174557,0.9974186000181362,1.650000922381878e-05,2e-05,1.68338040006347,1.7169120999751613,2.000033700023778,2.299826300004497,2.299826300004497,2.5998964000027627,2.691853899974376,0.3920275999698788,3.80024900007993,1.5004227000754327,1.1083951001055539,1.66172,-0.12915170834206768,0.07191401941774224,,,,None,,0.03324889997020364,2.0337036000564694,,,,,,,,p1_base_01,001,2023-05-10_16h48.41.181,expectation_shapes_perceived_time,2022.2.4,120.01819478509763,
,,,,,,,,,,,,,12,0,12,0,testSingleStim,,,,,,red,0.2795286445174446,0.2833333333333333,0.003638099995441735,0.9965721000917256,1.8700025975704193e-05,2e-05,0.2834559000330046,0.31666970008518547,2.0005070000188425,2.300433100084774,2.300433100084774,2.5998458000831306,2.316829700022936,0.01639659993816167,3.533462200080976,1.2330290999962017,1.21663250005804,0.35123,0.13196977346226707,0.06660156791553665,,,,None,,0.03343730000779033,2.033399000065401,,,,,,,,p1_base_01,001,2023-05-10_16h48.41.181,expectation_shapes_perceived_time,2022.2.4,120.01819478509763,
,,,,,,,,,,,,,13,0,13,0,testSingleStim,,,,,,red,0.6377310388416981,0.6416666666666666,0.0025372999953106046,0.9970823000185192,1.4299992471933365e-05,1e-05,0.6416314999805763,0.6747859000461176,2.000258499989286,2.300325399963185,2.300325399963185,2.600141800008714,2.6251038999762386,0.3247785000130534,4.59996979997959,2.2996444000164047,1.9748659000033513,0.73054,0.11071930045960021,-0.09794399656041555,,,,None,,,,,,,,,,,p1_base_01,001,2023-05-10_16h48.41.181,expectation_shapes_perceived_time,2022.2.4,120.01819478509763,
,,,,,,,,,,,,,14,0,14,0,testSingleStim,,,,,,red,0.22051738261980866,0.21666666666666667,0.0032908000284805894,0.997689799987711,1.4899997040629387e-05,1e-05,0.21641420002561063,0.2500587999820709,1.9999457999365404,2.2997539000352845,2.2997539000352845,2.599560000002384,2.2997539000352845,0.0,3.2082125999731943,0.9084586999379098,0.9084586999379098,0.27774,0.11322900237637523,0.09503148413731491,,,,None,,,,,,,,,,,p1_base_01,001,2023-05-10_16h48.41.181,expectation_shapes_perceived_time,2022.2.4,120.01819478509763,
,,,,,,,,,,,,,15,0,15,0,testSingleStim,,,,,,red,0.15590315804553456,0.15833333333333333,0.0022118999622762203,0.9977972999913618,1.3399985618889332e-05,1e-05,0.15822650003246963,0.19170550000853837,1.9999252000125125,2.3000331999501213,2.3000331999501213,2.6003742000320926,2.30834759993013,0.008314399980008602,4.04157140001189,1.7415382000617683,1.7332238000817597,0.20015,0.08694560453013153,0.11955020622893084,,,,None,,0.03320860001258552,,,,,,,,,p1_base_01,001,2023-05-10_16h48.41.181,expectation_shapes_perceived_time,2022.2.4,120.01819478509763,
,,,,,,,,,,,,,16,0,16,0,testSingleStim,,,,,,green,0.5533875860489313,0.55,0.0032086001010611653,0.9970588000724092,1.9099912606179714e-05,2e-05,0.5497952000005171,0.5829926999285817,2.000228699995205,2.300184699939564,2.300184699939564,2.600157200009562,2.300184699939564,0.0,3.724855399923399,1.4246706999838352,1.4246706999838352,0.52147,0.14748722553005567,-0.009965353076355111,,,,None,,,,,,,,,,,p1_base_01,001,2023-05-10_16h48.41.181,expectation_shapes_perceived_time,2022.2.4,120.01819478509763,
,,,,,,,,,,,,,17,0,17,0,testSingleStim,,,,,,green,0.6090069108301502,0.6083333333333333,0.004849200020544231,0.9970355000114068,1.3400102034211159e-05,1e-05,0.6081297000637278,0.6417276000138372,2.0000477000139654,2.300051800091751,2.300051800091751,2.6001186000648886,2.6584051999961957,0.3583533999044448,3.3915124000050128,1.0914605999132618,0.733107200008817,0.60444,0.1399371113660676,-0.04763816557142726,,,,None,,0.03346539998892695,2.0334675000049174,,,,,,,,p1_base_01,001,2023-05-10_16h48.41.181,expectation_shapes_perceived_time,2022.2.4,120.01819478509763,
,,,,,,,,,,,,,18,0,18,0,testSingleStim,,,,,,red,0.9344066470843475,0.9333333333333333,0.0023538999957963824,0.9977918999502435,1.3500102795660496e-05,1e-05,0.9334363000234589,0.9665543000446633,1.9999699000036344,2.3003704000730067,2.3003704000730067,2.599915700033307,2.3003704000730067,0.0,3.641806000028737,1.3414355999557301,1.3414355999557301,0.99626,0.001738979771132397,-0.14781328054625376,,,,None,,0.03353770007379353,2.0336421000538394,,,,,,,,p1_base_01,001,2023-05-10_16h48.41.181,expectation_shapes_perceived_time,2022.2.4,120.01819478509763,
,,,,,,,,,,,,,19,0,19,0,testSingleStim,,,,,,green,0.8649145808211316,0.8666666666666667,0.0024275999749079347,0.9973632999463007,2.1700048819184303e-05,2e-05,0.8668706000316888,0.900219300063327,2.000042299972847,2.3003621000098065,2.3003621000098065,2.600268300040625,2.3003621000098065,0.0,3.150663600070402,0.8503015000605956,0.8503015000605956,0.87315,0.057363947628850845,-0.13623937561852073,,,,None,,,,,,,,,,,p1_base_01,001,2023-05-10_16h48.41.181,expectation_shapes_perceived_time,2022.2.4,120.01819478509763,
,,,,,,,,,,,,,20,0,20,0,testSingleStim,,,,,,green,0.33026662176134053,0.3333333333333333,0.002253000042401254,0.9972349000163376,2.4000066332519054e-05,2e-05,0.3330058000283316,0.3663306999951601,1.999905899981968,2.2999818000243977,2.2999818000243977,2.6000331999966875,3.0915914999786764,0.7916096999542788,3.749991700053215,1.4500099000288174,0.6584002000745386,0.47309,0.14729552898014847,0.01248267194747021,,,,None,,,2.0332007000688463,,,,,,,,p1_base_01,001,2023-05-10_16h48.41.181,expectation_shapes_perceived_time,2022.2.4,120.01819478509763,
,,,,,,,,,,,,,21,0,21,0,testSingleStim,,,,,,green,0.8979328088010964,0.9,0.002753000007942319,0.9977323999628425,1.3100099749863148e-05,1e-05,0.8997565000317991,0.9331236000871286,1.9998010999988765,2.299996400019154,2.299996400019154,2.600234500016086,2.625054100062698,0.3250577000435442,3.1751125000882894,0.8751161000691354,0.5500584000255913,0.9773,0.010531988969672789,-0.147447845575419,,,,None,,,2.033127700095065,,,,,,,,p1_base_01,001,2023-05-10_16h48.41.181,expectation_shapes_perceived_time,2022.2.4,120.01819478509763,
,,,,,,,,,,,,,22,0,22,0,testSingleStim,,,,,,red,0.1917096480845169,0.19166666666666665,0.002351100090891123,0.9975097000133246,1.3999990187585354e-05,1e-05,0.1915519000031054,0.2253154000500217,2.0000175000168383,2.2997938999906182,2.2997938999906182,2.599987900000997,2.2997938999906182,0.0,3.8917006000410765,1.5919067000504583,1.5919067000504583,0.29985,0.11955020622893084,0.08694560453013153,,,,None,,0.03308130009099841,2.0330659000901505,,,,,,,,p1_base_01,001,2023-05-10_16h48.41.181,expectation_shapes_perceived_time,2022.2.4,120.01819478509763,
,,,,,,,,,,,,,23,0,23,0,testSingleStim,,,,,,green,1.5538473853563481,1.55,0.002795299980789423,0.9970791999949142,1.6000005416572094e-05,2e-05,1.5497593999607489,1.5830985999200493,2.000251999939792,2.2999857999384403,2.2999857999384403,2.6000597999664024,2.4749924999196082,0.1750066999811679,3.208606799948029,0.9086210000095889,0.733614300028421,1.53579,-0.14689025890612056,0.016584384070045873,,,,None,,0.03350519994273782,2.033215899951756,,,,,,,,p1_base_01,001,2023-05-10_16h48.41.181,expectation_shapes_perceived_time,2022.2.4,120.01819478509763,
,,,,,,,,,,,,,24,0,24,0,testSingleStim,,,,,,green,1.573834087410275,1.575,0.0033168999943882227,0.9966763999545947,2.7700094506144524e-05,3e-05,1.5750149000668898,1.6087771001039073,2.0001340000890195,2.299674900015816,2.299674900015816,2.6000783001072705,2.550039100111462,0.2503642000956461,3.850370300002396,1.55069539998658,1.300331199890934,1.58039,-0.14313415214555247,0.03693784571498128,,,,None,,0.033409700030460954,2.03329010005109,,,,,,,,p1_base_01,001,2023-05-10_16h48.41.181,expectation_shapes_perceived_time,2022.2.4,120.01819478509763,
,,,,,,,,,,,,,25,0,25,0,testSingleStim,,,,,,green,0.942337223736811,0.9416666666666667,0.002261499990709126,0.9971327999373898,1.3399985618889332e-05,1e-05,0.9425152000039816,0.9753830999834463,2.0001130000455305,2.3000824000919238,2.3000824000919238,2.6001067000906914,2.4916656999848783,0.19158329989295453,3.475006200023927,1.174923799932003,0.9833405000390485,0.99694,0.001421314196170218,-0.14781667640170268,,,,None,,0.03401010006200522,2.0333407000871375,,,,,,,,p1_base_01,001,2023-05-10_16h48.41.181,expectation_shapes_perceived_time,2022.2.4,120.01819478509763,
,,,,,,,,,,,,,26,0,26,0,testSingleStim,,,,,,green,1.0264195080542236,1.025,0.0022682000417262316,0.9985607999842614,2.859998494386673e-05,3e-05,1.024959700065665,1.058322700089775,1.9999172000680119,2.2998919000383466,2.2998919000383466,2.5999260999960825,3.1165651000337675,0.8166731999954209,4.566578200086951,2.2666863000486046,1.4500131000531837,0.98541,0.006773771990108875,-0.14766822938437346,,,,None,,0.03344890009611845,2.033250700100325,,,,,,,,p1_base_01,001,2023-05-10_16h48.41.181,expectation_shapes_perceived_time,2022.2.4,120.01819478509763,
,,,,,,,,,,,,,27,0,27,0,testSingleStim,,,,,,green,0.7246591294365263,0.725,0.002310900017619133,0.997810999979265,1.3499986380338669e-05,1e-05,0.7249575000023469,0.758293200051412,1.9999199999729171,2.3002015000674874,2.3002015000674874,2.6000714000547305,2.3002015000674874,0.0,3.467119100037962,1.1669175999704748,1.1669175999704748,0.70318,0.11871676899408035,-0.08808018344722089,,,,None,,0.03333650005515665,2.0334140000632033,,,,,,,,p1_base_01,001,2023-05-10_16h48.41.181,expectation_shapes_perceived_time,2022.2.4,120.01819478509763,
,,,,,,,,,,,,,28,0,28,0,testSingleStim,,,,,,green,0.6390103861362032,0.6416666666666666,0.002288099960424006,0.9977221000008285,1.4699995517730713e-05,1e-05,0.6415153000270948,0.6748159000417218,1.9998663000296801,2.3000633000629023,2.3000633000629023,2.600100100040436,2.6662710000528023,0.3662076999899,3.241427500033751,0.9413641999708489,0.5751564999809489,0.89597,0.04745715322333254,-0.13999860200883102,,,,None,,0.03347000002395362,2.0334357999963686,,,,,,,,p1_base_01,001,2023-05-10_16h48.41.181,expectation_shapes_perceived_time,2022.2.4,120.01819478509763,
,,,,,,,,,,,,,29,0,29,0,testSingleStim,,,,,,green,1.4053196298284687,1.4083333333333332,0.0031883999472483993,0.9980377999600023,1.3999990187585354e-05,1e-05,1.40822169999592,1.4418169000418857,1.999993900069967,2.300092500052415,2.300092500052415,2.5999330000486225,2.300092500052415,0.0,3.3916201000101864,1.0915275999577716,1.0915275999577716,1.5,-0.14782350948509485,0.0,,,,None,,0.033489500056020916,2.033205099985935,,,,,,,,p1_base_01,001,2023-05-10_16h48.41.181,expectation_shapes_perceived_time,2022.2.4,120.01819478509763,
,,,,,,,,,,,,,30,0,30,0,testSingleStim,,,,,,green,1.661118544298116,1.6583333333333332,0.003014700021594763,0.9976159000070766,2.8799986466765404e-05,3e-05,1.6584891999373212,1.6914475000230595,2.000285999965854,2.2998710999963805,2.2998710999963805,2.6000094999326393,2.6000094999326393,0.3001383999362588,3.6917180999880657,1.3918469999916852,1.0917086000554264,1.6142,-0.13841146506154872,0.051904299398080764,,,,None,,0.0332236000103876,2.0332067999988794,,,,,,,,p1_base_01,001,2023-05-10_16h48.41.181,expectation_shapes_perceived_time,2022.2.4,120.01819478509763,
,,,,,,,,,,,,,31,0,31,0,testSingleStim,,,,,,red,1.0569220276726214,1.0583333333333333,0.0025603000540286303,0.9977700000163168,2.2799940779805183e-05,2e-05,1.058589999913238,1.0918481999542564,2.0003887999337167,2.3002037999685854,2.3002037999685854,2.6000126999570057,2.3002037999685854,0.0,3.9250150999287143,1.624811299960129,1.624811299960129,1.00682,-0.0031669196163807713,-0.14778958209776935,,,,None,,0.03331679990515113,2.033369999960996,,,,,,,,p1_base_01,001,2023-05-10_16h48.41.181,expectation_shapes_perceived_time,2022.2.4,120.01819478509763,
,,,,,,,,,,,,,32,0,32,0,testSingleStim,,,,,,green,0.6123452042466884,0.6083333333333333,0.0023250000085681677,0.9981845000293106,6.699992809444666e-05,7e-05,0.6080634999088943,0.6413620999082923,1.9999227999942377,2.2999551999382675,2.2999551999382675,2.5997796999290586,2.5583738998975605,0.258418699959293,3.616971499985084,1.3170163000468165,1.0585976000875235,0.37888,0.13725068292176662,0.054900273168706645,,,,None,,0.03298479993827641,2.0335392999695614,,,,,,,,p1_base_01,001,2023-05-10_16h48.41.181,expectation_shapes_perceived_time,2022.2.4,120.01819478509763,
,,,,,,,,,,,,,33,0,33,0,testSingleStim,,,,,,green,1.597722950268945,1.6,0.002256200066767633,0.9968988000182435,2.3499946109950542e-05,2e-05,1.6002818000270054,1.633690100046806,2.0002742999931797,2.3003205000422895,2.3003205000422895,2.600292199989781,2.3003205000422895,0.0,3.458401400013827,1.1580808999715373,1.1580808999715373,1.64059,-0.13363803252096834,0.06318754798545785,,,,None,,,,,,,,,,,p1_base_01,001,2023-05-10_16h48.41.181,expectation_shapes_perceived_time,2022.2.4,120.01819478509763,
,,,,,,,,,,,,,34,0,34,0,testSingleStim,,,,,,green,1.2587909284582879,1.2583333333333333,0.0026566999731585383,0.9981795999919996,1.6200006939470768e-05,2e-05,1.258119700010866,1.2915743000339717,1.9997480000602081,2.3002474000677466,2.3002474000677466,2.600062799989246,2.3002474000677466,0.0,3.883297700085677,1.5830503000179306,1.5830503000179306,1.46929,-0.1471361321697812,-0.01423898053255947,,,,None,,0.03333330003079027,2.033447000081651,,,,,,,,p1_base_01,001,2023-05-10_16h48.41.181,expectation_shapes_perceived_time,2022.2.4,120.01819478509763,
,,,,,,,,,,,,,35,0,35,0,testSingleStim,,,,,,red,0.6686508895953441,0.6666666666666666,0.0025187000865116715,0.9985071000410244,1.3399985618889332e-05,1e-05,0.6662804000079632,0.699708400061354,2.000015400000848,2.300329399993643,2.300329399993643,2.60024689999409,2.300329399993643,0.0,3.6087604999775067,1.3084310999838635,1.3084310999838635,0.75436,0.10308545751498377,-0.10594894244595554,,,,None,,,,,,,,,,,p1_base_01,001,2023-05-10_16h48.41.181,expectation_shapes_perceived_time,2022.2.4,120.01819478509763,
,,,,,,,,,,,,,36,0,36,0,testSingleStim,,,,,,green,0.465506143103116,0.4666666666666667,0.0022010999964550138,0.9975432999199256,1.379998866468668e-05,1e-05,0.4661476999754086,0.49957179999910295,1.999570499989204,2.3001118999673054,2.3001118999673054,2.5995193999260664,2.3001118999673054,0.0,3.5251015999820083,1.224989700014703,1.224989700014703,0.48822,0.14772222580791766,0.005471193548441396,,,,None,,,,,,,,,,,p1_base_01,001,2023-05-10_16h48.41.181,expectation_shapes_perceived_time,2022.2.4,120.01819478509763,
,,,,,,,,,,,,,37,0,37,0,testSingleStim,,,,,,red,0.8154477281329604,0.8166666666666667,0.002266800031065941,0.9973834999836981,1.3599987141788006e-05,1e-05,0.8167236000299454,0.8502410999499261,1.9998903999803588,2.299958699964918,2.299958699964918,2.5998840000247583,2.3750672000460327,0.07510850008111447,3.6747945999959484,1.3748359000310302,1.2997273999499157,0.90166,0.04494428551456848,-0.14082542794564792,,,,None,,0.03337459999602288,2.033683000016026,,,,,,,,p1_base_01,001,2023-05-10_16h48.41.181,expectation_shapes_perceived_time,2022.2.4,120.01819478509763,
,,,,,,,,,,,,,38,0,38,0,testSingleStim,,,,,,red,1.3473448334359153,1.35,0.0029718000441789627,0.9971038000658154,1.6900012269616127e-05,2e-05,1.3501271000131965,1.3835442999843508,1.9997053999686614,2.3002655999734998,2.3002655999734998,2.6003388999961317,2.3002655999734998,0.0,4.108704700018279,1.8084391000447795,1.8084391000447795,1.5187,-0.1475684212717611,0.008680495368927125,,,,None,,,,,,,,,,,p1_base_01,001,2023-05-10_16h48.41.181,expectation_shapes_perceived_time,2022.2.4,120.01819478509763,
,,,,,,,,,,,,,39,0,39,0,testSingleStim,,,,,,red,0.6570801486417124,0.6583333333333333,0.0025424000341445208,0.9974803000222892,1.4299992471933365e-05,1e-05,0.6583981999428943,0.6916614000219852,1.999853599932976,2.3000336999539286,2.3000336999539286,2.599884200026281,2.3081632999237627,0.00812959996983409,3.3751022999640554,1.0750686000101268,1.0669390000402927,0.83352,0.07383743194149958,-0.12806179602353834,,,,None,,0.0337374999653548,2.033167199930176,,,,,,,,p1_base_01,001,2023-05-10_16h48.41.181,expectation_shapes_perceived_time,2022.2.4,120.01819478509763,
,,,,,,,,,0,0,0,0,0,-1,-1,0,fam,0.5324304999085143,0.5324304999085143,270.0,2.5321024999720976,2.5321024999720976,,,,,,,,,,,,,,,,,,,,,,,,,,,,,,,,,,,,p1_base_01,001,2023-05-10_16h48.41.181,expectation_shapes_perceived_time,2022.2.4,120.01819478509763,
,,,,,,,,,1,0,1,0,0,-1,-1,0,fam,0.49831900000572205,0.49831900000572205,270.0,2.4981248000403866,2.4981248000403866,,,,,,,,,,,,,,,,,,,,,,,,,,,,,,,,,,,,p1_base_01,001,2023-05-10_16h48.41.181,expectation_shapes_perceived_time,2022.2.4,120.01819478509763,
,,,,,,,,,2,0,2,0,0,-1,-1,0,fam,0.49819150008261204,0.49819150008261204,270.0,2.4983063000254333,2.4983063000254333,,,,,,,,,,,,,,,,,,,,,,,,,,,,,,,,,,,,p1_base_01,001,2023-05-10_16h48.41.181,expectation_shapes_perceived_time,2022.2.4,120.01819478509763,
,,,,,,,,,3,0,3,0,0,-1,-1,0,fam,0.49858569994103163,0.49858569994103163,270.0,2.4987339000217617,2.4987339000217617,,,,,,,,,,,,,,,,,,,,,,,,,,,,,,,,,,,,p1_base_01,001,2023-05-10_16h48.41.181,expectation_shapes_perceived_time,2022.2.4,120.01819478509763,
1,-500,0.5,none,59,green,red,no_Expectation,,,,,,0,0,0,0,train_doubleStim,,,,,,green,1.297356577686367,1.3,2.300011200015433,0.9907855000346899,3e-05,3e-05,1.2998608999187127,1.3329298999160528,1.9995571000035852,2.300011200015433,2.300011200015433,2.4994661000091583,2.8245231999317184,0.5245119999162853,4.8415471999906,2.541535999975167,2.017024000058882,1.37175,-0.13598628543615174,-0.05796136756294993,,,,None,,0.03306,2.0329004999948665,-0.5,-0.5,0.764026577686367,0.7666666666666666,training_double_stim.csv,0.7662950999801978,0.800151199917309,p1_base_01,001,2023-05-10_16h48.41.181,expectation_shapes_perceived_time,2022.2.4,120.01819478509763,
1,500,0.5,none,33,green,red,no_Expectation,,,,,,0,1,1,7,train_doubleStim,,,,,,green,0.1865008749156579,0.18333333333333332,2.300174199976027,0.9971931999316439,1e-05,1e-05,0.18338940001558512,0.21692200005054474,2.0003270000452176,2.300174199976027,2.300174199976027,2.50015340000391,2.300174199976027,0.0,5.625577099970542,3.325402899994515,3.325402899994515,0.26026,0.10784274981593145,0.10110257795243571,,,,None,,0.03393,2.033553200075403,0.5,0.5,0.719830874915658,0.7166666666666667,training_double_stim.csv,0.7170789999654517,0.750139300012961,p1_base_01,001,2023-05-10_16h48.41.181,expectation_shapes_perceived_time,2022.2.4,120.01819478509763,
1,500,0.5,none,25,green,red,no_Expectation,,,,,,0,2,2,6,train_doubleStim,,,,,,green,0.32484097723498434,0.325,2.300410300027579,0.9970177001086995,4e-05,4e-05,0.3253370999591425,0.35863110003992915,2.000165699981153,2.300410300027579,2.300410300027579,2.5002494000364095,2.6168638999806717,0.31645359995309263,4.591970499954186,2.2915601999266073,1.9751065999735147,0.5,0.14782350948509485,0.0,,,,None,,,,0.5,0.5,0.8581709772349845,0.8583333333333333,training_double_stim.csv,0.8583445999538526,0.8919974999735132,p1_base_01,001,2023-05-10_16h48.41.181,expectation_shapes_perceived_time,2022.2.4,120.01819478509763,
1,500,0.5,none,88,red,green,no_Expectation,,,,,,0,3,3,9,train_doubleStim,,,,,,red,1.1299169319147904,1.1333333333333333,2.299637700081803,0.9979670000029728,8e-05,8e-05,1.133402100065723,1.1662652000086382,1.9996228000381961,2.299637700081803,2.299637700081803,2.499791600042954,2.299637700081803,0.0,3.40800230007153,1.1083645999897271,1.1083645999897271,1.12845,-0.058046122553805334,-0.13595012913917565,,,,None,,0.03336,2.0333170000230893,0.5,0.5,1.6632469319147904,1.6666666666666667,training_double_stim.csv,1.6665090000024065,1.6996416000183672,p1_base_01,001,2023-05-10_16h48.41.181,expectation_shapes_perceived_time,2022.2.4,120.01819478509763,
1,-500,0.5,none,23,green,red,no_Expectation,,,,,,0,4,4,2,train_doubleStim,,,,,,green,1.040349126481612,1.0416666666666667,2.3005288999993354,0.9983324999921024,1e-05,1e-05,1.042216599918902,1.0755684999749064,2.000240599969402,2.3005288999993354,2.3005288999993354,2.499888899968937,2.3172759999288246,0.016747099929489195,5.10821209999267,2.8076831999933347,2.7909361000638455,0.97623,0.011030782734161198,-0.14741136926560874,,,,None,,,,-0.5,-0.5,0.5070191264816121,0.5083333333333333,training_double_stim.csv,0.5084942999528721,0.5420129999984056,p1_base_01,001,2023-05-10_16h48.41.181,expectation_shapes_perceived_time,2022.2.4,120.01819478509763,
1,-500,0.5,none,77,green,red,no_Expectation,,,,,,0,5,5,1,train_doubleStim,,,,,,green,1.6710988254571657,1.675,2.299975100089796,0.9990395000204444,2e-05,2e-05,1.6744968000566587,1.7082593999803066,1.9998121000826359,2.299975100089796,2.299975100089796,2.500181099982001,2.5661681999918073,0.26619309990201145,4.5165754000190645,2.2166002999292687,1.9504072000272572,1.60607,-0.13969115779047853,0.04835463154285795,,,,None,,0.03293,,-0.5,-0.5,1.1377688254571658,1.1416666666666666,training_double_stim.csv,1.1414635999826714,1.174901399994269,p1_base_01,001,2023-05-10_16h48.41.181,expectation_shapes_perceived_time,2022.2.4,120.01819478509763,
1,500,0.5,none,98,red,green,no_Expectation,,,,,,0,6,6,5,train_doubleStim,,,,,,red,0.4205910313074212,0.4166666666666667,2.3004084000131115,0.9973576000193134,1e-05,1e-05,0.41682290006428957,0.45013650006148964,1.9999811000889167,2.3004084000131115,2.3004084000131115,2.5001519999932498,2.8086395000573248,0.5082311000442132,4.5087286999914795,2.208320299978368,1.7000891999341547,0.5,0.14782350948509485,0.0,,,,None,,0.0338,2.0334008000791073,0.5,0.5,0.9539210313074212,0.95,training_double_stim.csv,0.9500196999870241,0.9834170000394806,p1_base_01,001,2023-05-10_16h48.41.181,expectation_shapes_perceived_time,2022.2.4,120.01819478509763,
1,-500,0.5,none,68,red,green,no_Expectation,,,,,,0,7,7,3,train_doubleStim,,,,,,red,1.058703597303139,1.0583333333333333,2.300197600037791,0.9972329000011086,2e-05,2e-05,1.0582518000155687,1.0918233999982476,1.9997238999931142,2.300197600037791,2.300197600037791,2.499924400006421,2.9497438999824226,0.6495462999446318,3.924970500054769,1.6247729000169784,0.9752266000723466,1.13764,-0.06194665047082311,-0.13421774268678338,,,,None,,0.03329,2.0333922000136226,-0.5,-0.5,0.5253735973031388,0.525,training_double_stim.csv,0.5250602000160143,0.5583746000193059,p1_base_01,001,2023-05-10_16h48.41.181,expectation_shapes_perceived_time,2022.2.4,120.01819478509763,
1,-500,0.5,none,46,red,green,no_Expectation,,,,,,0,8,8,4,train_doubleStim,,,,,,red,0.7555569533508684,0.7583333333333333,2.299817599938251,0.9981052000075579,1e-05,1e-05,0.7584464999381453,0.7914847999345511,2.000125299906358,2.299817599938251,2.299817599938251,2.5000262999674305,2.299817599938251,0.0,8.349857699940912,6.050040100002661,6.050040100002661,1.05535,-0.025577311215360464,-0.1455939253797442,,,,None,,0.03296,2.033193599898368,-0.5,-0.5,0.22222695335086842,0.225,training_double_stim.csv,0.2250159999821335,0.2585316998884082,p1_base_01,001,2023-05-10_16h48.41.181,expectation_shapes_perceived_time,2022.2.4,120.01819478509763,
1,500,0.5,none,60,red,green,no_Expectation,,,,,,0,9,9,8,train_doubleStim,,,,,,red,0.344127253534504,0.3416666666666667,2.3001867999555543,0.9984359999652952,1e-05,1e-05,0.3420685000019148,0.37504299997817725,1.9999602000461891,2.3001867999555543,2.3001867999555543,2.499789100023918,2.3001867999555543,0.0,3.7165235000429675,1.4163367000874132,1.4163367000874132,0.42955,0.14421805803423887,0.032449063057703745,,,,None,,,,0.5,0.5,0.8774572535345041,0.875,training_double_stim.csv,0.8753790999762714,0.9083743999945,p1_base_01,001,2023-05-10_16h48.41.181,expectation_shapes_perceived_time,2022.2.4,120.01819478509763,
1,-500,0.5,none,68,red,green,no_Expectation,,,,,,1,0,10,3,train_doubleStim,,,,,,red,1.202151878182469,1.2,2.30045700003393,0.9980096999788657,1e-05,1e-05,1.2002650001086295,1.2334930000361055,2.0002545000752434,2.30045700003393,2.30045700003393,2.500542400055565,2.708451300044544,0.4079943000106141,3.508362599997781,1.2079055999638513,0.7999112999532372,1.23617,-0.09988798603294612,-0.10896871203594123,,,,None,,0.03348,2.0337578000035137,-0.5,-0.5,0.6688218781824689,0.6666666666666666,training_double_stim.csv,0.666993800085038,0.7002463000826538,p1_base_01,001,2023-05-10_16h48.41.181,expectation_shapes_perceived_time,2022.2.4,120.01819478509763,
1,-500,0.5,none,77,green,red,no_Expectation,,,,,,1,1,11,1,train_doubleStim,,,,,,green,0.8970066273343404,0.9,2.299780000001192,0.9982224999694154,4e-05,4e-05,0.899482800043188,0.9331214000703767,1.9996943000005558,2.299780000001192,2.299780000001192,2.4998145001009107,2.5997600000118837,0.2999800000106916,3.5834465000079945,1.2836665000068024,0.9836864999961108,1.01201,-0.00557427818266344,-0.14771837184058118,,,,None,,0.03311,2.0329631000058725,-0.5,-0.5,0.3636766273343405,0.36666666666666664,training_double_stim.csv,0.36618380004074425,0.3995415000244975,p1_base_01,001,2023-05-10_16h48.41.181,expectation_shapes_perceived_time,2022.2.4,120.01819478509763,
1,-500,0.5,none,46,red,green,no_Expectation,,,,,,1,2,12,4,train_doubleStim,,,,,,red,1.832489486047624,1.8333333333333333,2.3000001000473276,0.9971919000381604,4e-05,4e-05,1.8339974000118673,1.8669193000532687,2.0002695000730455,2.3000001000473276,2.3000001000473276,2.5000517000444233,2.725057000061497,0.4250569000141695,9.641838600044139,7.341838499996811,6.916781599982642,1.44331,-0.1454854329264977,-0.02618737792676959,,,,None,,0.03317,2.033765200059861,-0.5,-0.5,1.299159486047624,1.3,training_double_stim.csv,1.300092100049369,1.3334581999806687,p1_base_01,001,2023-05-10_16h48.41.181,expectation_shapes_perceived_time,2022.2.4,120.01819478509763,
1,500,0.5,none,88,red,green,no_Expectation,,,,,,1,3,13,9,train_doubleStim,,,,,,red,0.7276202849355508,0.725,2.299788200063631,0.997853200067766,3e-05,3e-05,0.7247120999963954,0.7577863000333309,1.9999530999921262,2.299788200063631,2.299788200063631,2.500074899988249,2.899977699969895,0.6001894999062642,3.5997143000131473,1.2999260999495164,0.6997366000432521,0.60885,0.13926491731565643,-0.04956886887506415,,,,None,,,2.0326980999670923,0.5,0.5,1.2609502849355507,1.2583333333333333,training_double_stim.csv,1.258072099997662,1.291542200022377,p1_base_01,001,2023-05-10_16h48.41.181,expectation_shapes_perceived_time,2022.2.4,120.01819478509763,
1,500,0.5,none,98,red,green,no_Expectation,,,,,,1,4,14,5,train_doubleStim,,,,,,red,0.8750551588998638,0.875,2.299953000037931,0.9976064000511542,5e-05,5e-05,0.8747408000053838,0.908293200074695,2.000252600060776,2.299953000037931,2.299953000037931,2.499518100055866,2.3168795000528917,0.016926500014960766,3.499881900032051,1.19992889999412,1.1830023999791592,1.0143,-0.006637053368979601,-0.14767443745979614,,,,None,,,2.0330856000073254,0.5,0.5,1.4083851588998637,1.4083333333333332,training_double_stim.csv,1.4080357999773696,1.4413867000257596,p1_base_01,001,2023-05-10_16h48.41.181,expectation_shapes_perceived_time,2022.2.4,120.01819478509763,
1,500,0.5,none,25,green,red,no_Expectation,,,,,,1,5,15,6,train_doubleStim,,,,,,green,0.8064002539671761,0.8083333333333333,2.2995390000287443,0.9984952999511734,1e-05,1e-05,0.8084233000408858,0.8416255000047386,1.9997518999734893,2.2995390000287443,2.2995390000287443,2.500036200042814,2.6245308000361547,0.32499180000741035,3.4666156000457704,1.167076600017026,0.8420848000096157,0.89508,0.04784864869617627,-0.13986528080420757,,,,None,,0.03329,,0.5,0.5,1.339730253967176,1.3416666666666666,training_double_stim.csv,1.3418118000263348,1.3752205000491813,p1_base_01,001,2023-05-10_16h48.41.181,expectation_shapes_perceived_time,2022.2.4,120.01819478509763,
1,500,0.5,none,33,green,red,no_Expectation,,,,,,1,6,16,7,train_doubleStim,,,,,,green,0.5665933050140896,0.5666666666666667,2.2995468999724835,0.9982589000137523,1e-05,1e-05,0.566192299942486,0.5992027999600396,1.9995864999946207,2.2995468999724835,2.2995468999724835,2.4994733999483287,2.2995468999724835,0.0,3.4162453999742866,1.116698500001803,1.116698500001803,0.45411,0.14629024512867636,0.02123568074448528,,,,None,,0.03325,2.0328913999255747,0.5,0.5,1.0999233050140895,1.1,training_double_stim.csv,1.0996837000129744,1.133445099927485,p1_base_01,001,2023-05-10_16h48.41.181,expectation_shapes_perceived_time,2022.2.4,120.01819478509763,
1,-500,0.5,none,59,green,red,no_Expectation,,,,,,1,7,17,0,train_doubleStim,,,,,,green,1.5251128585926992,1.525,2.299913499969989,0.997800900018774,1e-05,1e-05,1.5247684000059962,1.5584940999979153,1.999935599975288,2.299913499969989,2.299913499969989,2.5002150000073016,2.708243199973367,0.4083297000033781,5.491495199967176,3.1915816999971867,2.7832519999938086,1.08039,-0.03693784571498128,-0.14313415214555247,,,,None,,0.03294,2.033260799944401,-0.5,-0.5,0.9917828585926992,0.9916666666666667,training_double_stim.csv,0.9918485999805853,1.024946599965915,p1_base_01,001,2023-05-10_16h48.41.181,expectation_shapes_perceived_time,2022.2.4,120.01819478509763,
1,-500,0.5,none,23,green,red,no_Expectation,,,,,,1,8,18,2,train_doubleStim,,,,,,green,0.806446514015095,0.8083333333333333,2.3004615999525413,0.9974403999513015,4e-05,4e-05,0.8086381000466645,0.8418206999776885,2.000093500013463,2.3004615999525413,2.3004615999525413,2.500529699958861,3.083543200045824,0.7830816000932828,3.925443400046788,1.6249818000942469,0.8419002000009641,1.20247,-0.08781352517068691,-0.11891414866863852,,,,None,,0.03334,2.0335020000347868,-0.5,-0.5,0.2731165140150951,0.275,training_double_stim.csv,0.275551600032486,0.30864900001324713,p1_base_01,001,2023-05-10_16h48.41.181,expectation_shapes_perceived_time,2022.2.4,120.01819478509763,
1,500,0.5,none,60,red,green,no_Expectation,,,,,,1,9,19,8,train_doubleStim,,,,,,red,0.893684928213238,0.8916666666666666,2.3003889000974596,0.9976469998946413,4e-05,4e-05,0.8920070000458509,0.9254270000383258,2.000282800057903,2.3003889000974596,2.3003889000974596,2.500306300004013,3.0500848999945447,0.7496959998970851,4.192050700075924,1.8916617999784648,1.1419658000813797,1.00362,-0.0016797041593130078,-0.1478139660195447,,,,None,,,,0.5,0.5,1.4270149282132378,1.425,training_double_stim.csv,1.4255370000610128,1.4586557000875473,p1_base_01,001,2023-05-10_16h48.41.181,expectation_shapes_perceived_time,2022.2.4,120.01819478509763,
,,,,,,,,,0,0,0,0,0,-1,-1,0,fam,0.5321152000688016,0.5321152000688016,270.0,2.5319994000019506,2.5319994000019506,,,,,,,,,,,,,,,,,,,,,,,,,,,,,,,,,,,,p1_base_01,001,2023-05-10_16h48.41.181,expectation_shapes_perceived_time,2022.2.4,120.01819478509763,
,,,,,,,,,1,0,1,0,0,-1,-1,0,fam,0.49834179994650185,0.49834179994650185,270.0,2.498355299932882,2.498355299932882,,,,,,,,,,,,,,,,,,,,,,,,,,,,,,,,,,,,p1_base_01,001,2023-05-10_16h48.41.181,expectation_shapes_perceived_time,2022.2.4,120.01819478509763,
,,,,,,,,,2,0,2,0,0,-1,-1,0,fam,0.49823609995655715,0.49823609995655715,270.0,2.4980549999745563,2.4980549999745563,,,,,,,,,,,,,,,,,,,,,,,,,,,,,,,,,,,,p1_base_01,001,2023-05-10_16h48.41.181,expectation_shapes_perceived_time,2022.2.4,120.01819478509763,
,,,,,,,,,3,0,3,0,0,-1,-1,0,fam,0.4988937999587506,0.4988937999587506,270.0,2.499164499924518,2.499164499924518,,,,,,,,,,,,,,,,,,,,,,,,,,,,,,,,,,,,p1_base_01,001,2023-05-10_16h48.41.181,expectation_shapes_perceived_time,2022.2.4,120.01819478509763,
,-167,0.5,none,,red,green,,1318.6493875830588,,,,,0,0,0,14,trial,,,,,,red,1.3186493875830587,1.3166666666666667,2.299808799987659,0.9973017000593245,1e-05,1e-05,1.3165011999662966,1.3498460999689996,1.9998528000432998,2.299808799987659,2.299808799987659,2.499650300014764,2.458127500023693,0.158318700036034,5.149838299956173,2.850029499968514,2.69171079993248,1.22239,-0.09507891148812866,-0.11318918034301031,,,,None,,,,-0.167,-0.16666666666666666,1.1183193875830588,1.1166666666666667,trial_list_0.5_red.csv,1.11655180004891,1.1497934999642894,p1_base_01,001,2023-05-10_16h48.41.181,expectation_shapes_perceived_time,2022.2.4,120.01819478509763,
,-33,0.5,none,,red,green,,1030.716259475566,,,,,0,1,1,92,trial,,,,,,red,1.0307162594755659,1.0333333333333332,2.2999368000309914,0.9966809999896213,1e-05,1e-05,1.033481499995105,1.0668408999918029,1.9999236000003293,2.2999368000309914,2.2999368000309914,2.4996506000170484,2.6830085000256076,0.3830716999946162,4.458292399998754,2.158355599967763,1.7752838999731466,0.8661,0.0603661041524121,-0.1349359975171565,,,,None,,,,-0.033,-0.03333333333333333,0.9643862594755659,0.9666666666666667,trial_list_0.5_red.csv,0.966546899988316,0.9999929999466985,p1_base_01,001,2023-05-10_16h48.41.181,expectation_shapes_perceived_time,2022.2.4,120.01819478509763,
,-167,0.5,none,,green,red,,894.713046409371,,,,,0,2,2,495,trial,,,,,,green,0.894713046409371,0.8916666666666666,2.299924499937333,0.9979147999547422,2e-05,2e-05,0.8913385999621823,0.9251305999932811,1.9996969000203535,2.299924499937333,2.299924499937333,2.499948399956338,2.299924499937333,0.0,4.258812599931844,1.9588880999945104,1.9588880999945104,0.96448,0.016463364951168437,-0.1469038718719645,,,,None,,0.0332,2.0330035999650136,-0.167,-0.16666666666666666,0.694383046409371,0.6916666666666667,trial_list_0.5_red.csv,0.6913066999986768,0.7249660999514163,p1_base_01,001,2023-05-10_16h48.41.181,expectation_shapes_perceived_time,2022.2.4,120.01819478509763,
,233,0.5,none,,red,green,,1600.6444602722977,,,,,0,3,3,368,trial,,,,,,red,1.6006444602722978,1.6,2.3004794999724254,0.9973568000132218,1e-05,1e-05,1.6004620000021532,1.6333749999757856,1.999835699913092,2.3004794999724254,2.3004794999724254,2.499932499951683,2.4832949999254197,0.1828154999529943,6.600205799913965,4.29972629994154,4.1169107999885455,1.58085,-0.1430803122786264,0.037145850303104924,,,,None,,0.03361,2.0331064999336377,0.233,0.23333333333333334,1.8669744602722975,1.8666666666666667,trial_list_0.5_red.csv,1.8665603999979794,1.8998769999016076,p1_base_01,001,2023-05-10_16h48.41.181,expectation_shapes_perceived_time,2022.2.4,120.01819478509763,
,-233,0.5,none,,green,red,,1250.6641199826229,,,,,0,4,4,443,trial,,,,,,green,1.250664119982623,1.25,2.300111199961975,0.9980261001037434,2e-05,2e-05,1.2497756999218836,1.2834581999341026,2.0001085000112653,2.300111199961975,2.300111199961975,2.4997928999364376,2.4000774999149144,0.09996629995293915,5.008072700002231,2.7079615000402555,2.6079952000873163,1.14966,-0.06697141852164336,-0.13178246870387883,,,,None,,0.033,2.03338029992301,-0.233,-0.23333333333333334,0.9843341199826229,0.9833333333333333,trial_list_0.5_red.csv,0.9833419999340549,1.016850799904205,p1_base_01,001,2023-05-10_16h48.41.181,expectation_shapes_perceived_time,2022.2.4,120.01819478509763,
,233,0.5,none,,red,green,,658.9440855042844,,,,,0,5,5,414,trial,,,,,,red,0.6589440855042844,0.6583333333333333,2.2999463999876752,0.9981811000034213,2e-05,2e-05,0.6584555000299588,0.6915998000185937,1.9999354999745265,2.2999463999876752,2.2999463999876752,2.5001571000320837,2.2999463999876752,0.0,3.1668266999768093,0.8668802999891341,0.8668802999891341,0.74703,0.10549928662448405,-0.10354559613143806,,,,None,,0.0335,2.03331430000253,0.233,0.23333333333333334,0.9252740855042845,0.9249999999999999,trial_list_0.5_red.csv,0.9255597000010312,0.9583958999719471,p1_base_01,001,2023-05-10_16h48.41.181,expectation_shapes_perceived_time,2022.2.4,120.01819478509763,
,167,0.5,none,,green,red,,1475.8430786540723,,,,,0,6,6,353,trial,,,,,,green,1.4758430786540724,1.475,2.300160500104539,0.9978195000439882,2e-05,2e-05,1.4749712001066655,1.5085518000414595,1.9999498000834137,2.300160500104539,2.300160500104539,2.499909000005573,3.06640710006468,0.7662465999601409,8.550178800011054,6.250018299906515,5.483771699946374,1.74697,-0.10551771599527301,0.10352681569347541,,,,None,,,2.0334896000567824,0.167,0.16666666666666666,1.6761730786540723,1.675,trial_list_0.5_red.csv,1.6751843000529334,1.708412800100632,p1_base_01,001,2023-05-10_16h48.41.181,expectation_shapes_perceived_time,2022.2.4,120.01819478509763,
,33,0.5,none,,red,green,,1358.59990891778,,,,,0,7,7,100,trial,,,,,,red,1.35859990891778,1.3583333333333334,2.299685399979353,0.9976560999639332,3e-05,3e-05,1.3580194000387564,1.391352300066501,1.9997450000373647,2.299685399979353,2.299685399979353,2.4998398000607267,3.0414379000430927,0.7417525000637397,7.074830000055954,4.775144600076601,4.033392100012861,1.21868,-0.09375322423006881,-0.11428964477570294,,,,None,,0.03299,,0.033,0.03333333333333333,1.42492990891778,1.425,trial_list_0.5_red.csv,1.424897100077942,1.4583608000539243,p1_base_01,001,2023-05-10_16h48.41.181,expectation_shapes_perceived_time,2022.2.4,120.01819478509763,
,-167,0.5,none,,red,green,,906.4313946657076,,,,,0,8,8,200,trial,,,,,,red,0.9064313946657075,0.9083333333333333,2.2996177000459284,0.9979693999048322,1e-05,1e-05,0.9082671001087874,0.9415980000048876,1.9998162999982014,2.2996177000459284,2.2996177000459284,2.499725400004536,2.808173800003715,0.5085560999577865,10.774611600092612,8.474993900046684,7.966437800088897,0.75522,0.10279963598655784,-0.1062262905194431,,,,None,,0.03361,2.0330879000248387,-0.167,-0.16666666666666666,0.7061013946657075,0.7083333333333334,trial_list_0.5_red.csv,0.7081285000313073,0.7418454000726342,p1_base_01,001,2023-05-10_16h48.41.181,expectation_shapes_perceived_time,2022.2.4,120.01819478509763,
,-300,0.5,none,,green,red,,1741.413024680019,,,,,0,9,9,243,trial,,,,,,green,1.741413024680019,1.7416666666666667,2.3003350999206305,0.9979707999154925,2e-05,2e-05,1.7416753999423236,1.7750004000263289,2.0000434999819845,2.3003350999206305,2.3003350999206305,2.5003560999175534,2.6583964999299496,0.3580614000093192,4.308717799955048,2.008382700034417,1.650321300025098,1.74733,-0.10540166269557702,0.10364496831731743,,,,None,,0.03334,2.0336428999435157,-0.3,-0.3,1.408083024680019,1.4083333333333332,trial_list_0.5_red.csv,1.408430099952966,1.441787099931389,p1_base_01,001,2023-05-10_16h48.41.181,expectation_shapes_perceived_time,2022.2.4,120.01819478509763,
,300,0.5,none,,red,green,,512.0122423119099,,,,,0,10,10,348,trial,,,,,,red,0.5120122423119099,0.5083333333333333,2.2998603000305593,0.9975734000327066,3e-05,3e-05,0.5087286999914795,0.5416816999204457,1.9998996999347582,2.2998603000305593,2.2998603000305593,2.5003191999858245,2.366652400000021,0.06679209996946156,4.141631599981338,1.8417712999507785,1.774979199981317,0.37208,0.13604654625417237,0.05781978215802325,,,,None,,,,0.3,0.3,0.8453422423119099,0.8416666666666667,trial_list_0.5_red.csv,0.8417442999780178,0.8749712000135332,p1_base_01,001,2023-05-10_16h48.41.181,expectation_shapes_perceived_time,2022.2.4,120.01819478509763,
,33,0.5,none,,red,green,,1266.3560446129866,,,,,0,11,11,12,trial,,,,,,red,1.2663560446129867,1.2666666666666666,2.300265800091438,0.9979343001032248,2e-05,2e-05,1.2671713000163436,1.3003259000834078,2.000450300052762,2.300265800091438,2.300265800091438,2.500488799996674,3.2754246999975294,0.9751588999060914,4.483215900021605,2.182950099930167,1.2077912000240758,1.5161,-0.14763438609470392,0.007475158789605261,,,,None,,,2.0338400000473484,0.033,0.03333333333333333,1.3326860446129865,1.3333333333333333,trial_list_0.5_red.csv,1.3334719000849873,1.366898600012064,p1_base_01,001,2023-05-10_16h48.41.181,expectation_shapes_perceived_time,2022.2.4,120.01819478509763,
,100,0.5,none,,red,green,,858.2353544233929,,,,,0,12,12,96,trial,,,,,,red,0.8582353544233929,0.8583333333333333,2.300130999996327,0.9984156000427902,3e-05,3e-05,0.8581090000225231,0.8914003999670967,1.9999892000341788,2.300130999996327,2.300130999996327,2.500006299931556,2.6331972000189126,0.3330662000225857,3.399974299944006,1.099843299947679,0.7667770999250934,0.82,0.07920744914899162,-0.1248117380529565,,,,None,,0.03336,2.0331403999589384,0.1,0.1,0.9915653544233929,0.9916666666666667,trial_list_0.5_red.csv,0.9914712000172585,1.0247927999589592,p1_base_01,001,2023-05-10_16h48.41.181,expectation_shapes_perceived_time,2022.2.4,120.01819478509763,
,300,0.5,none,,green,red,,1328.5581336073078,,,,,0,13,13,139,trial,,,,,,green,1.3285581336073078,1.325,2.3003229999449104,0.9984450000338256,2e-05,2e-05,1.3251487999223173,1.3584900998976082,1.9999260999029502,2.3003229999449104,2.3003229999449104,2.5002687999513,2.5917496999027207,0.29142669995781034,10.917128099943511,8.6168050999986,8.32537840004079,1.4304,-0.1443033971503294,-0.032067421588962086,,,,None,,0.0333,2.033296599984169,0.3,0.3,1.6618881336073077,1.6583333333333332,trial_list_0.5_red.csv,1.658474599942565,1.6915543999057263,p1_base_01,001,2023-05-10_16h48.41.181,expectation_shapes_perceived_time,2022.2.4,120.01819478509763,
,-100,0.5,none,,green,red,,371.2799281397603,,,,,0,14,14,415,trial,,,,,,green,0.3712799281397603,0.375,2.300083599984646,0.9975553000112996,1e-05,1e-05,0.3746542000444606,0.4083874999778345,1.9997686999849975,2.300083599984646,2.300083599984646,2.4994064000202343,2.849874999956228,0.549791399971582,5.307996200048365,3.007912600063719,2.458121200092137,0.42538,0.14378057066398128,0.03433565866602538,,,,None,,0.03318,2.033112999983132,-0.1,-0.1,0.2379499281397603,0.24166666666666667,trial_list_0.5_red.csv,0.24174990004394203,0.274978999979794,p1_base_01,001,2023-05-10_16h48.41.181,expectation_shapes_perceived_time,2022.2.4,120.01819478509763,
,33,0.5,none,,red,green,,630.2337206398529,,,,,0,15,15,318,trial,,,,,,red,0.630233720639853,0.6333333333333333,2.299797200015746,0.9980476999189705,2e-05,2e-05,0.6333911999827251,0.6669753000605851,1.9996533000376076,2.299797200015746,2.299797200015746,2.5000193000305444,2.8081312000285834,0.5083340000128374,4.48330950003583,2.183512300020084,1.6751783000072464,0.299,0.119318751493066,0.08726296750985425,,,,None,,,,0.033,0.03333333333333333,0.696563720639853,0.7,trial_list_0.5_red.csv,0.7002953999908641,0.732864800025709,p1_base_01,001,2023-05-10_16h48.41.181,expectation_shapes_perceived_time,2022.2.4,120.01819478509763,
,167,0.5,none,,red,green,,768.8323120062184,,,,,0,16,16,314,trial,,,,,,red,0.7688323120062185,0.7666666666666666,2.299825599999167,0.9984620000468567,2e-05,2e-05,0.7663758000126109,0.7997021999908611,2.0000562000786886,2.299825599999167,2.299825599999167,2.500464600045234,3.091677900054492,0.791852300055325,8.383747400017455,6.083921800018288,5.292069499962963,0.37025,0.13571119902586554,0.058602563215714665,,,,None,,0.03346,2.033673100057058,0.167,0.16666666666666666,0.9691623120062185,0.9666666666666667,trial_list_0.5_red.csv,0.9669375000521541,1.0000568000832573,p1_base_01,001,2023-05-10_16h48.41.181,expectation_shapes_perceived_time,2022.2.4,120.01819478509763,
,-300,0.5,none,,red,green,,1441.5653414181347,,,,,0,17,17,448,trial,,,,,,red,1.4415653414181346,1.4416666666666667,2.300059499917552,0.9973414000123739,1e-05,1e-05,1.4413547998992726,1.4747106999857351,2.000182899995707,2.300059499917552,2.300059499917552,2.500249399919994,2.300059499917552,0.0,4.3082796999951825,2.0082202000776306,2.0082202000776306,1.35474,-0.13269637654434027,-0.0651418575763125,,,,None,,0.03371,2.0335976999485865,-0.3,-0.3,1.1082353414181347,1.1083333333333334,trial_list_0.5_red.csv,1.1083637999836355,1.141698999912478,p1_base_01,001,2023-05-10_16h48.41.181,expectation_shapes_perceived_time,2022.2.4,120.01819478509763,
,33,0.5,none,,red,green,,493.1332066100536,,,,,0,18,18,428,trial,,,,,,red,0.4931332066100536,0.49166666666666664,2.3001332000130787,0.9983613999793306,2e-05,2e-05,0.4919743000064045,0.5249600999522954,2.0000037999125198,2.3001332000130787,2.3001332000130787,2.50011609995272,2.7165024999994785,0.4163692999863997,10.941412499989383,8.641279299976304,8.224909999989904,0.5,0.14782350948509485,0.0,,,,None,,0.03326,2.033510099980049,0.033,0.03333333333333333,0.5594632066100536,0.5583333333333333,trial_list_0.5_red.csv,0.5582277999492362,0.5918369999853894,p1_base_01,001,2023-05-10_16h48.41.181,expectation_shapes_perceived_time,2022.2.4,120.01819478509763,
,300,0.5,none,,red,green,,1233.1297794118784,,,,,0,19,19,114,trial,,,,,,red,1.2331297794118785,1.2333333333333334,2.3004155999515206,0.9980976999504492,3e-05,3e-05,1.2334840999683365,1.266888799960725,1.9999926999444142,2.3004155999515206,2.3004155999515206,2.500042699975893,2.3004155999515206,0.0,2.9338348999153823,0.6334192999638617,0.6334192999638617,1.26201,-0.10839427233749244,-0.10051105253112935,,,,None,,0.03339,2.0333405999699607,0.3,0.3,1.5664597794118784,1.5666666666666667,trial_list_0.5_red.csv,1.5670731000136584,1.6000560999382287,p1_base_01,001,2023-05-10_16h48.41.181,expectation_shapes_perceived_time,2022.2.4,120.01819478509763,
,-300,0.5,none,,red,green,,1321.4275562239256,,,,,0,20,20,402,trial,,,,,,red,1.3214275562239257,1.325,2.29969659994822,0.9977124000433832,1e-05,1e-05,1.3246404000092298,1.3580350000411272,1.999280899995938,2.29969659994822,2.29969659994822,2.499625099939294,2.5912903000134975,0.2915937000652775,8.641818600008264,6.342122000060044,6.050528299994767,1.3291,-0.1270236898490128,-0.07560933919584095,,,,None,,,,-0.3,-0.3,0.9880975562239256,0.9916666666666667,trial_list_0.5_red.csv,0.9912927999394014,1.0245955999707803,p1_base_01,001,2023-05-10_16h48.41.181,expectation_shapes_perceived_time,2022.2.4,120.01819478509763,
,-233,0.5,none,,green,red,,820.1679803695342,,,,,0,21,21,479,trial,,,,,,green,0.8201679803695342,0.8166666666666667,2.300096599967219,0.9978517000563443,2e-05,2e-05,0.8166250999784097,0.8500734999543056,1.9999347999691963,2.300096599967219,2.300096599967219,2.500264099915512,2.5917869999539107,0.2916903999866918,3.9501281999982893,1.6500316000310704,1.3583412000443786,0.89758,0.046745898169240394,-0.14023769450772117,,,,None,,0.03367,2.0331004000036046,-0.233,-0.23333333333333334,0.5538379803695342,0.55,trial_list_0.5_red.csv,0.5497078999178484,0.5830884999595582,p1_base_01,001,2023-05-10_16h48.41.181,expectation_shapes_perceived_time,2022.2.4,120.01819478509763,
,100,0.5,none,,green,red,,175.75173671486138,,,,,0,22,22,191,trial,,,,,,green,0.17575173671486138,0.175,2.30034059996251,0.9976892000995576,2e-05,2e-05,0.1747478999895975,0.20797749992925674,2.0002333999145776,2.30034059996251,2.30034059996251,2.500060199992731,2.30034059996251,0.0,3.7917815999826416,1.4914410000201315,1.4914410000201315,0.38969,0.13903597831231831,0.0502074366127816,,,,None,,0.03368,2.033308699959889,0.1,0.1,0.3090817367148614,0.30833333333333335,trial_list_0.5_red.csv,0.3089326999615878,0.34182410000357777,p1_base_01,001,2023-05-10_16h48.41.181,expectation_shapes_perceived_time,2022.2.4,120.01819478509763,
,-233,0.5,none,,red,green,,1549.79678991972,,,,,0,23,23,90,trial,,,,,,red,1.5497967899197198,1.55,2.299459300003946,0.9981920000864193,1e-05,1e-05,1.54956980003044,1.5831416000146419,1.9995914000319317,2.299459300003946,2.299459300003946,2.4995947000570595,2.624623200041242,0.3251639000372961,6.76627310004551,4.466813800041564,4.141649900004268,1.65948,-0.12965544846860952,0.07100179320900046,,,,None,,0.03301,2.0329505000263453,-0.233,-0.23333333333333334,1.28346678991972,1.2833333333333332,trial_list_0.5_red.csv,1.2828580000204965,1.3162519000470638,p1_base_01,001,2023-05-10_16h48.41.181,expectation_shapes_perceived_time,2022.2.4,120.01819478509763,
,167,0.5,none,,red,green,,680.7124214847736,,,,,0,24,24,260,trial,,,,,,red,0.6807124214847736,0.6833333333333333,2.300008699996397,0.9971664999611676,2e-05,2e-05,0.6832659000065178,0.7167733999667689,2.0001431999262422,2.300008699996397,2.300008699996397,2.4999927999451756,3.0580724999308586,0.7580637999344617,7.48331539996434,5.183306699967943,4.425242900033481,0.76208,0.10048519842790213,-0.10841824040905228,,,,None,,,,0.167,0.16666666666666666,0.8810424214847736,0.8833333333333333,trial_list_0.5_red.csv,0.8830971999559551,0.9168705999618396,p1_base_01,001,2023-05-10_16h48.41.181,expectation_shapes_perceived_time,2022.2.4,120.01819478509763,
,33,0.5,none,,green,red,,1605.8551500630588,0,0,0,0,0,25,25,439,fam,0.5394899999955669,0.5394899999955669,270.0,2.5394854000769556,2.5394854000769556,,,,,,,,,,,,,,,,,,,,,,,,,,,,,,,,,,,,p1_base_01,001,2023-05-10_16h48.41.181,expectation_shapes_perceived_time,2022.2.4,120.01819478509763,
,33,0.5,none,,green,red,,1605.8551500630588,1,0,1,0,0,25,25,439,fam,0.4983276999555528,0.4983276999555528,270.0,2.4984543999889866,2.4984543999889866,,,,,,,,,,,,,,,,,,,,,,,,,,,,,,,,,,,,p1_base_01,001,2023-05-10_16h48.41.181,expectation_shapes_perceived_time,2022.2.4,120.01819478509763,
,33,0.5,none,,green,red,,1605.8551500630588,2,0,2,0,0,25,25,439,fam,0.4988516999874264,0.4988516999874264,270.0,2.499043899937533,2.499043899937533,,,,,,,,,,,,,,,,,,,,,,,,,,,,,,,,,,,,p1_base_01,001,2023-05-10_16h48.41.181,expectation_shapes_perceived_time,2022.2.4,120.01819478509763,
,33,0.5,none,,green,red,,1605.8551500630588,3,0,3,0,0,25,25,439,fam,0.4983677000273019,0.4983677000273019,270.0,2.4984210999682546,2.4984210999682546,,,,,,,,,,,,,,,,,,,,,,,,,,,,,,,,,,,,p1_base_01,001,2023-05-10_16h48.41.181,expectation_shapes_perceived_time,2022.2.4,120.01819478509763,
,33,0.5,none,,green,red,,1605.8551500630588,,,,,0,25,25,439,trial,,,,,,green,1.6058551500630587,1.6083333333333334,2.299995100009255,0.9987457999959588,1e-05,1e-05,1.608430300024338,1.6416945999953896,1.9997469000518322,2.299995100009255,2.299995100009255,2.5000618000049144,2.299995100009255,0.0,5.016742100007832,2.716746999998577,2.716746999998577,1.70974,-0.11687819372073076,0.09050567821451458,,,,None,,0.03334,2.0333933000219986,0.033,0.03333333333333333,1.6721851500630587,1.675,trial_list_0.5_red.csv,1.675368000054732,1.7083870000205934,p1_base_01,001,2023-05-10_16h48.41.181,expectation_shapes_perceived_time,2022.2.4,120.01819478509763,
,-33,0.5,none,,green,red,,1492.2343690902176,,,,,0,26,26,351,trial,,,,,,green,1.4922343690902176,1.4916666666666667,2.299695000052452,0.9971362999640405,1e-05,1e-05,1.4916819999925792,1.5253159999847412,1.9999084000010043,2.299695000052452,2.299695000052452,2.50021040008869,2.299695000052452,0.0,3.7417518000584096,1.4420568000059575,1.4420568000059575,1.58774,-0.14224377584953152,0.04023056286653416,,,,None,,,,-0.033,-0.03333333333333333,1.4259043690902176,1.425,trial_list_0.5_red.csv,1.4251636000117287,1.4581527000991628,p1_base_01,001,2023-05-10_16h48.41.181,expectation_shapes_perceived_time,2022.2.4,120.01819478509763,
,-33,0.5,none,,red,green,,1786.38331194824,,,,,0,27,27,238,trial,,,,,,red,1.78638331194824,1.7833333333333332,2.299642199999653,0.9975675999885425,1e-05,1e-05,1.7831110999686643,1.8167925999732688,1.9999409000156447,2.299642199999653,2.299642199999653,2.499515700037591,2.7415514000458643,0.4419092000462115,4.774972900049761,2.475330700050108,2.0334215000038967,1.77167,-0.09717455594495991,0.1113952226686126,,,,None,,0.03324,2.0331900999881327,-0.033,-0.03333333333333333,1.72005331194824,1.7166666666666666,trial_list_0.5_red.csv,1.7167708999477327,1.7498927999986336,p1_base_01,001,2023-05-10_16h48.41.181,expectation_shapes_perceived_time,2022.2.4,120.01819478509763,
,100,0.5,none,,green,red,,1112.3294802182008,,,,,0,28,28,7,trial,,,,,,green,1.1123294802182009,1.1083333333333334,2.299979600007646,0.9973954000743106,2e-05,2e-05,1.1085406999336556,1.1418806000147015,2.000191699946299,2.299979600007646,2.299979600007646,2.5000568999676034,2.9082124999258667,0.6082328999182209,5.4422567000146955,3.1422771000070497,2.534044200088829,1.1702,-0.07532692664476573,-0.1271913679411618,,,,None,,0.03341,2.0333812999306247,0.1,0.1,1.2456594802182008,1.25,trial_list_0.5_red.csv,1.2501857000170276,1.2832909999415278,p1_base_01,001,2023-05-10_16h48.41.181,expectation_shapes_perceived_time,2022.2.4,120.01819478509763,
,100,0.5,none,,green,red,,1369.464672744286,,,,,0,29,29,309,trial,,,,,,green,1.369464672744286,1.3666666666666667,2.2999734000768512,0.9975707000121474,1e-05,1e-05,1.366530800005421,1.400130300084129,1.9999240000033751,2.2999734000768512,2.2999734000768512,2.4999515999807045,2.7164000000339,0.4164265999570489,5.349668800015934,3.0496953999390826,2.6332687999820337,1.35466,-0.13267963048750908,-0.06517595883596937,,,,None,,,,0.1,0.1,1.5027946727442858,1.5,trial_list_0.5_red.csv,1.5001501999795437,1.5333040000405163,p1_base_01,001,2023-05-10_16h48.41.181,expectation_shapes_perceived_time,2022.2.4,120.01819478509763,
,300,0.5,none,,green,red,,1146.1665836296054,,,,,0,30,30,29,trial,,,,,,green,1.1461665836296053,1.15,2.299893399933353,0.9909128000726923,3e-05,3e-05,1.1497561999130994,1.1828553000232205,1.999850899912417,2.299893399933353,2.299893399933353,2.4998310999944806,3.2329275999218225,0.9330341999884695,5.4583859000122175,3.1584925000788644,2.225458300090395,1.1756,-0.07747392077380558,-0.12589512125743405,,,,None,,,,0.3,0.3,1.4794965836296052,1.4833333333333334,trial_list_0.5_red.csv,1.482884099939838,1.5163304000161588,p1_base_01,001,2023-05-10_16h48.41.181,expectation_shapes_perceived_time,2022.2.4,120.01819478509763,
,33,0.5,none,,green,red,,1376.7365791705497,,,,,0,31,31,117,trial,,,,,,green,1.3767365791705497,1.375,2.2997233999194577,0.9974036000203341,1e-05,1e-05,1.3748886999674141,1.4082335999701172,1.9999993999954313,2.2997233999194577,2.2997233999194577,2.4996361000230536,2.2997233999194577,0.0,3.4996491000056267,1.199925700086169,1.199925700086169,1.58381,-0.14272872007839332,0.03847469845591472,,,,None,,,,0.033,0.03333333333333333,1.4430665791705497,1.4416666666666667,trial_list_0.5_red.csv,1.4416645999299362,1.4749003000324592,p1_base_01,001,2023-05-10_16h48.41.181,expectation_shapes_perceived_time,2022.2.4,120.01819478509763,
,-300,0.5,none,,red,green,,1099.8926971413678,,,,,0,32,32,142,trial,,,,,,red,1.0998926971413678,1.1,2.2998191999504343,0.9980108999880031,1e-05,1e-05,1.0999951999401674,1.1335216999286786,2.0003106999211013,2.2998191999504343,2.2998191999504343,2.5001870999112725,2.2998191999504343,0.0,6.733492099912837,4.433672899962403,4.433672899962403,1.09007,-0.041274597283257324,-0.14194434675461665,,,,None,,,,-0.3,-0.3,0.7665626971413677,0.7666666666666666,trial_list_0.5_red.csv,0.7670572999631986,0.8001160999992862,p1_base_01,001,2023-05-10_16h48.41.181,expectation_shapes_perceived_time,2022.2.4,120.01819478509763,
,-167,0.5,none,,green,red,,884.1428723996761,,,,,0,33,33,275,trial,,,,,,green,0.884142872399676,0.8833333333333333,2.299776199972257,0.9975794999627396,1e-05,1e-05,0.8834597000386566,0.9168532999465242,1.9996787999989465,2.299776199972257,2.299776199972257,2.50007910002023,4.558211299940012,2.2584350999677554,6.975091699976474,4.675315500004217,2.4168804000364617,0.91006,0.04121470148501304,-0.1419617495594894,,,,None,,0.03374,2.033087100018747,-0.167,-0.16666666666666666,0.683812872399676,0.6833333333333333,trial_list_0.5_red.csv,0.6833187999436632,0.7165546000469476,p1_base_01,001,2023-05-10_16h48.41.181,expectation_shapes_perceived_time,2022.2.4,120.01819478509763,
,-233,0.5,none,,green,red,,419.5963466835672,,,,,0,34,34,307,trial,,,,,,green,0.4195963466835672,0.4166666666666667,2.2995504999998957,0.9977555999066681,1e-05,1e-05,0.4167707999004051,0.4498132999287918,1.9999285999219865,2.2995504999998957,2.2995504999998957,2.499843499972485,2.2995504999998957,0.0,3.8668683998985216,1.567317899898626,1.567317899898626,0.47697,0.14743692084926643,0.010683834844149743,,,,None,,0.03278,2.0333157998975366,-0.233,-0.23333333333333334,0.15326634668356723,0.15,trial_list_0.5_red.csv,0.15020959998946637,0.18328729993663728,p1_base_01,001,2023-05-10_16h48.41.181,expectation_shapes_perceived_time,2022.2.4,120.01819478509763,
,-33,0.5,none,,red,green,,1728.317947772972,,,,,0,35,35,128,trial,,,,,,red,1.728317947772972,1.7249999999999999,2.299717399990186,0.9974363000364974,2e-05,2e-05,1.7254910999909043,1.7583391000516713,2.000154300010763,2.299717399990186,2.299717399990186,2.499749100068584,2.299717399990186,0.0,3.491837100009434,1.1921197000192478,1.1921197000192478,1.51136,-0.14772932437869643,0.0052760472992391585,,,,None,,0.03326,2.0334158000769094,-0.033,-0.03333333333333333,1.6619879477729722,1.6583333333333332,trial_list_0.5_red.csv,1.6583780000219122,1.6915628000861034,p1_base_01,001,2023-05-10_16h48.41.181,expectation_shapes_perceived_time,2022.2.4,120.01819478509763,
,-233,0.5,none,,green,red,,1093.4908769388926,,,,,0,36,36,25,trial,,,,,,green,1.0934908769388927,1.0916666666666666,2.2996316000353545,0.9975164999486879,1e-05,1e-05,1.091449600062333,1.1248793000122532,1.9996912000933662,2.2996316000353545,2.2996316000353545,2.499717800063081,2.2996316000353545,0.0,3.816339800017886,1.5167081999825314,1.5167081999825314,0.95307,0.021715803711742823,-0.1462197449924017,,,,None,,0.03301,2.033112100092694,-0.233,-0.23333333333333334,0.8271608769388925,0.825,trial_list_0.5_red.csv,0.8245551000582054,0.8580812000436708,p1_base_01,001,2023-05-10_16h48.41.181,expectation_shapes_perceived_time,2022.2.4,120.01819478509763,
,167,0.5,none,,green,red,,1174.657361705926,,,,,0,37,37,135,trial,,,,,,green,1.174657361705926,1.175,2.2999759999802336,0.9976413999684155,1e-05,1e-05,1.175182900042273,1.2079592000227422,2.000088099972345,2.2999759999802336,2.2999759999802336,2.4995998999802396,2.400111799943261,0.10013579996302724,4.991759299999103,2.6917833000188693,2.591647500055842,0.90723,0.04247677288753861,-0.14158924295846204,,,,None,,0.03341,2.0332959999796003,0.167,0.16666666666666666,1.3749873617059258,1.375,trial_list_0.5_red.csv,1.3749837999930605,1.4081140999915078,p1_base_01,001,2023-05-10_16h48.41.181,expectation_shapes_perceived_time,2022.2.4,120.01819478509763,
,33,0.5,none,,red,green,,187.8328257418189,,,,,0,38,38,380,trial,,,,,,red,0.18783282574181892,0.19166666666666665,2.299757800064981,0.9974021000089124,1e-05,1e-05,0.19182960002217442,0.2250548000447452,1.9996848000446334,2.299757800064981,2.299757800064981,2.5001307000638917,2.8499467000365257,0.5501888999715447,3.874908500001766,1.5751506999367848,1.02496179996524,0.37381,0.13635846418359893,0.05708028733266932,,,,None,,0.03328,2.0330659999744967,0.033,0.03333333333333333,0.25416282574181887,0.2583333333333333,trial_list_0.5_red.csv,0.2584278000285849,0.2916898999828845,p1_base_01,001,2023-05-10_16h48.41.181,expectation_shapes_perceived_time,2022.2.4,120.01819478509763,
,300,0.5,none,,red,green,,1417.0763279845166,,,,,0,39,39,24,trial,,,,,,red,1.4170763279845167,1.4166666666666667,2.2997293000807986,0.9972840000409633,2e-05,2e-05,1.4166847000597045,1.4496573000214994,1.999716000049375,2.2997293000807986,2.2997293000807986,2.5004712000954896,2.2997293000807986,0.0,3.750055900076404,1.4503265999956056,1.4503265999956056,1.49194,-0.14777616050582604,-0.003741168620400659,,,,None,,0.03321,,0.3,0.3,1.7504063279845166,1.75,trial_list_0.5_red.csv,1.7500053000403568,1.782993600005284,p1_base_01,001,2023-05-10_16h48.41.181,expectation_shapes_perceived_time,2022.2.4,120.01819478509763,
,100,0.5,none,,green,red,,1203.1702607461684,,,,,0,40,40,409,trial,,,,,,green,1.2031702607461685,1.2,2.2998822999652475,0.9976711000781506,2e-05,2e-05,1.1996978999814019,1.2329552000155672,2.000003100023605,2.2998822999652475,2.2998822999652475,2.499573800014332,2.2998822999652475,0.0,4.491714900010265,2.191832600045018,2.191832600045018,1.09332,-0.042721673037229874,-0.14151554193582397,,,,None,,0.03305,2.0330967999761924,0.1,0.1,1.3365002607461685,1.3333333333333333,trial_list_0.5_red.csv,1.3331070999847725,1.3666527000023052,p1_base_01,001,2023-05-10_16h48.41.181,expectation_shapes_perceived_time,2022.2.4,120.01819478509763,
,33,0.5,none,,red,green,,168.03455478076077,,,,,0,41,41,182,trial,,,,,,red,0.16803455478076076,0.16666666666666666,2.3001138999825343,0.997039399924688,1e-05,1e-05,0.16690280009061098,0.2003236000891775,2.0000079000601545,2.3001138999825343,2.3001138999825343,2.500768300029449,2.392068500048481,0.09195460006594658,3.591945299995132,1.2918314000125974,1.1998767999466509,0.2107,0.09085965754055768,0.11660322717704903,,,,None,,,,0.033,0.03333333333333333,0.2343645547807608,0.23333333333333334,trial_list_0.5_red.csv,0.2336072000907734,0.26710250007454306,p1_base_01,001,2023-05-10_16h48.41.181,expectation_shapes_perceived_time,2022.2.4,120.01819478509763,
,-167,0.5,none,,green,red,,1848.12705509141,,,,,0,42,42,153,trial,,,,,,green,1.84812705509141,1.8499999999999999,2.2997129999566823,0.9978730999864638,1e-05,1e-05,1.8504638000158593,1.8837314000120386,2.000006999936886,2.2997129999566823,2.2997129999566823,2.4997734000207856,2.358114799950272,0.05840179999358952,3.758666699985042,1.45895370002836,1.4005519000347704,1.72278,-0.11307185775011111,0.09521840652640937,,,,None,,0.03331,2.0337711999891326,-0.167,-0.16666666666666666,1.64779705509141,1.65,trial_list_0.5_red.csv,1.6497946999734268,1.6838347000302747,p1_base_01,001,2023-05-10_16h48.41.181,expectation_shapes_perceived_time,2022.2.4,120.01819478509763,
,-300,0.5,none,,red,green,,670.03924238693,,,,,0,43,43,464,trial,,,,,,red,0.67003924238693,0.6666666666666666,2.3002264000242576,0.9977382000070065,2e-05,2e-05,0.6665538999950513,0.7000074000097811,1.9998309999937192,2.3002264000242576,2.3002264000242576,2.4998384999344125,2.749560699914582,0.4493342998903245,5.333154899999499,3.0329284999752417,2.5835942000849172,0.59677,0.14104528235809372,-0.044249500347637236,,,,None,,,,-0.3,-0.3,0.33670924238693006,0.3333333333333333,trial_list_0.5_red.csv,0.3329873000038788,0.3668515000026673,p1_base_01,001,2023-05-10_16h48.41.181,expectation_shapes_perceived_time,2022.2.4,120.01819478509763,
,300,0.5,none,,green,red,,1206.077056171759,,,,,0,44,44,303,trial,,,,,,green,1.206077056171759,1.2083333333333333,2.2998315000440925,0.9978262999793515,1e-05,1e-05,1.2084479000186548,1.2416171999648213,2.0001423000358045,2.2998315000440925,2.2998315000440925,2.5002525999443606,2.5836945000337437,0.28386299998965114,3.9747327000368387,1.6749011999927461,1.391038200003095,0.8937,0.04845251113692866,-0.13965723798291202,,,,None,,0.03369,2.033689699950628,0.3,0.3,1.539407056171759,1.5416666666666667,trial_list_0.5_red.csv,1.5412636999972165,1.5752190999919549,p1_base_01,001,2023-05-10_16h48.41.181,expectation_shapes_perceived_time,2022.2.4,120.01819478509763,
,-233,0.5,none,,green,red,,397.4531912454672,,,,,0,45,45,87,trial,,,,,,green,0.39745319124546724,0.4,2.299999599927105,0.9984010000480339,1e-05,1e-05,0.3999533999012783,0.4334468999877572,2.0001881999196485,2.299999599927105,2.299999599927105,2.500052399933338,2.458232899894938,0.15823329996783286,3.6998837999999523,1.3998842000728473,1.2416509001050144,0.43208,0.1444713364597539,0.03130212289961335,,,,None,,,,-0.233,-0.23333333333333334,0.13112319124546723,0.13333333333333333,trial_list_0.5_red.csv,0.13338239991571754,0.1667349999770522,p1_base_01,001,2023-05-10_16h48.41.181,expectation_shapes_perceived_time,2022.2.4,120.01819478509763,
,-300,0.5,none,,red,green,,867.676803444177,,,,,0,46,46,270,trial,,,,,,red,0.8676768034441771,0.8666666666666667,2.3000887000234798,0.9979302999563515,1e-05,1e-05,0.8667136000003666,0.8999602000694722,2.0000319000100717,2.3000887000234798,2.3000887000234798,2.500157600035891,2.666807800065726,0.3667191000422463,4.966800000052899,2.6667113000294194,2.299992199987173,1.12433,-0.05628377244845626,-0.13668916166053663,,,,None,,0.03332,2.0333092000801116,-0.3,-0.3,0.534346803444177,0.5333333333333333,trial_list_0.5_red.csv,0.5334505999926478,0.5667697000317276,p1_base_01,001,2023-05-10_16h48.41.181,expectation_shapes_perceived_time,2022.2.4,120.01819478509763,
,-167,0.5,none,,red,green,,1078.7225132496687,,,,,0,47,47,234,trial,,,,,,red,1.0787225132496687,1.075,2.300838900031522,0.9983405999373645,1e-05,1e-05,1.074885500012897,1.1084967999486253,2.000439199968241,2.300838900031522,2.300838900031522,2.5007078000344336,2.6003263000166044,0.29948739998508245,5.525432899943553,3.224593999912031,2.9251065999269485,0.99672,0.0015238727286569962,-0.14781565467972863,,,,None,,0.0335,2.0337805999442935,-0.167,-0.16666666666666666,0.8783925132496687,0.875,trial_list_0.5_red.csv,0.8750207000412047,0.9082794999703765,p1_base_01,001,2023-05-10_16h48.41.181,expectation_shapes_perceived_time,2022.2.4,120.01819478509763,
,-233,0.5,none,,red,green,,412.75845327463225,,,,,0,48,48,344,trial,,,,,,red,0.41275845327463223,0.4166666666666667,2.299806500086561,0.9978348999284208,1e-05,1e-05,0.4166378000518307,0.44997860002331436,1.9998568000737578,2.299806500086561,2.299806500086561,2.5001685000024736,2.4664951000595465,0.16668859997298568,20.516457100049593,18.21665059996303,18.049961999990046,0.52002,0.14753109698985356,-0.009293297448179753,,,,None,,,,-0.233,-0.23333333333333334,0.14642845327463225,0.15,trial_list_0.5_red.csv,0.1499795001000166,0.1832938001025468,p1_base_01,001,2023-05-10_16h48.41.181,expectation_shapes_perceived_time,2022.2.4,120.01819478509763,
,-300,0.5,none,,green,red,,822.9511610948607,,,,,0,49,49,261,trial,,,,,,green,0.8229511610948607,0.825,2.300156499957666,0.9983106000581756,1e-05,1e-05,0.8249354999279603,0.8585457999724895,2.000204399926588,2.300156499957666,2.300156499957666,2.4997840999858454,2.300156499957666,0.0,3.55849580001086,1.2583393000531942,1.2583393000531942,1.10242,-0.046745898169240394,-0.14023769450772117,,,,None,,0.03336,2.033048199955374,-0.3,-0.3,0.4896211610948607,0.49166666666666664,trial_list_0.5_red.csv,0.4915898999897763,0.5248989999527112,p1_base_01,001,2023-05-10_16h48.41.181,expectation_shapes_perceived_time,2022.2.4,120.01819478509763,
,167,0.5,none,,green,red,,1476.9038168940533,0,0,0,0,0,50,50,411,fam,0.5328669999726117,0.5328669999726117,270.0,2.533008400001563,2.533008400001563,,,,,,,,,,,,,,,,,,,,,,,,,,,,,,,,,,,,p1_base_01,001,2023-05-10_16h48.41.181,expectation_shapes_perceived_time,2022.2.4,120.01819478509763,
,167,0.5,none,,green,red,,1476.9038168940533,1,0,1,0,0,50,50,411,fam,0.4991027999203652,0.4991027999203652,270.0,2.4984910999191925,2.4984910999191925,,,,,,,,,,,,,,,,,,,,,,,,,,,,,,,,,,,,p1_base_01,001,2023-05-10_16h48.41.181,expectation_shapes_perceived_time,2022.2.4,120.01819478509763,
,167,0.5,none,,green,red,,1476.9038168940533,2,0,2,0,0,50,50,411,fam,0.49851010006386787,0.49851010006386787,270.0,2.498042599996552,2.498042599996552,,,,,,,,,,,,,,,,,,,,,,,,,,,,,,,,,,,,p1_base_01,001,2023-05-10_16h48.41.181,expectation_shapes_perceived_time,2022.2.4,120.01819478509763,
,167,0.5,none,,green,red,,1476.9038168940533,3,0,3,0,0,50,50,411,fam,0.4977546000154689,0.4977546000154689,270.0,2.497783900005743,2.497783900005743,,,,,,,,,,,,,,,,,,,,,,,,,,,,,,,,,,,,p1_base_01,001,2023-05-10_16h48.41.181,expectation_shapes_perceived_time,2022.2.4,120.01819478509763,
,167,0.5,none,,green,red,,1476.9038168940533,,,,,0,50,50,411,trial,,,,,,green,1.4769038168940534,1.475,2.3001697999425232,0.9909001999767497,2e-05,2e-05,1.4748569000512362,1.5082432000199333,1.9997734000207856,2.3001697999425232,2.3001697999425232,2.4997811999637634,2.608121099998243,0.3079513000557199,4.007888599997386,1.707718800054863,1.3997674999991432,1.55065,-0.1459556782572436,0.023424985399310698,,,,None,,,,0.167,0.16666666666666666,1.6772338168940533,1.675,trial_list_0.5_red.csv,1.6748236999846995,1.7081570000154898,p1_base_01,001,2023-05-10_16h48.41.181,expectation_shapes_perceived_time,2022.2.4,120.01819478509763,
,-300,0.5,none,,green,red,,676.3476827068531,,,,,0,51,51,289,trial,,,,,,green,0.6763476827068531,0.675,2.299774599960074,0.9988843000028282,1e-05,1e-05,0.6746609000256285,0.708240499952808,1.9998968000290915,2.299774599960074,2.299774599960074,2.4992685000179335,2.35808149992954,0.05830689996946603,5.591482099960558,3.2917075000004843,3.2334006000310183,0.75,0.1045270059757045,-0.1045270059757045,,,,None,,,,-0.3,-0.3,0.3430176827068531,0.3416666666666667,trial_list_0.5_red.csv,0.34127600002102554,0.3744981000199914,p1_base_01,001,2023-05-10_16h48.41.181,expectation_shapes_perceived_time,2022.2.4,120.01819478509763,
,-100,0.5,none,,red,green,,1605.0075182922646,,,,,0,52,52,190,trial,,,,,,red,1.6050075182922647,1.6083333333333334,2.299205300048925,0.9980375999584794,1e-05,1e-05,1.6078018000116572,1.6411594999954104,1.9992143999552354,2.299205300048925,2.299205300048925,2.499833900015801,2.607607700047083,0.3084023999981582,3.749928200035356,1.450722899986431,1.1423204999882728,1.38992,-0.1390722386893411,-0.05010690952777731,,,,None,,,,-0.1,-0.1,1.4716775182922648,1.475,trial_list_0.5_red.csv,1.4744737000437453,1.507844000007026,p1_base_01,001,2023-05-10_16h48.41.181,expectation_shapes_perceived_time,2022.2.4,120.01819478509763,
,-100,0.5,none,,red,green,,521.4717817877367,,,,,0,53,53,422,trial,,,,,,red,0.5214717817877368,0.525,2.2997471999842674,0.9982506000669673,1e-05,1e-05,0.5247519999975339,0.558451300021261,1.9999076999956742,2.2997471999842674,2.2997471999842674,2.4995701999869198,2.5828130999580026,0.2830658999737352,3.8003130999859422,1.500565900001675,1.2175000000279397,0.4212,0.1433167485793188,0.036222914476091564,,,,None,,,,-0.1,-0.1,0.3881417817877368,0.39166666666666666,trial_list_0.5_red.csv,0.39143969991710037,0.42482970003038645,p1_base_01,001,2023-05-10_16h48.41.181,expectation_shapes_perceived_time,2022.2.4,120.01819478509763,
,233,0.5,none,,red,green,,556.9204719265811,,,,,0,54,54,418,trial,,,,,,red,0.556920471926581,0.5583333333333333,2.3000580999068916,0.9971258000005037,1e-05,1e-05,0.5585753999184817,0.5917808999074623,2.0000581999775022,2.3000580999068916,2.3000580999068916,2.500335199991241,2.3337400999153033,0.033682000008411705,3.71679559990298,1.4167374999960884,1.3830554999876767,0.53495,0.14693343602546588,-0.016197386648476555,,,,None,,,,0.233,0.23333333333333334,0.8232504719265811,0.825,trial_list_0.5_red.csv,0.8253235999727622,0.8587452999781817,p1_base_01,001,2023-05-10_16h48.41.181,expectation_shapes_perceived_time,2022.2.4,120.01819478509763,
,-300,0.5,none,,red,green,,1244.549787673749,,,,,0,55,55,338,trial,,,,,,red,1.244549787673749,1.2416666666666667,2.299937600037083,0.9981011999770999,1e-05,1e-05,1.2415148000000045,1.2747551000211388,1.9999349999707192,2.299937600037083,2.299937600037083,2.499752699979581,2.299937600037083,0.0,5.474679599981755,3.174741999944672,3.174741999944672,1.19596,-0.08536286160688446,-0.12068542503042286,,,,None,,0.03349,2.033436800003983,-0.3,-0.3,0.911219787673749,0.9083333333333333,trial_list_0.5_red.csv,0.9084171999711543,0.9415141000645235,p1_base_01,001,2023-05-10_16h48.41.181,expectation_shapes_perceived_time,2022.2.4,120.01819478509763,
,-233,0.5,none,,red,green,,406.2858127059079,,,,,0,56,56,442,trial,,,,,,red,0.4062858127059079,0.4083333333333333,2.2997914999723434,0.9977695000125095,1e-05,1e-05,0.4080080999992788,0.44137190002948046,2.000016100006178,2.2997914999723434,2.2997914999723434,2.499796000076458,2.641206400003284,0.34141490003094077,3.616270099999383,1.3164786000270396,0.9750636999960989,0.17727,0.07813336545277762,0.12548692027264283,,,,None,,0.03306,2.032932600006461,-0.233,-0.23333333333333334,0.13995581270590793,0.14166666666666666,trial_list_0.5_red.csv,0.14138470008037984,0.174952800036408,p1_base_01,001,2023-05-10_16h48.41.181,expectation_shapes_perceived_time,2022.2.4,120.01819478509763,
,100,0.5,none,,green,red,,1211.134022151257,,,,,0,57,57,241,trial,,,,,,green,1.2111340221512572,1.2083333333333333,2.2997988000279292,0.9984185999492183,1e-05,1e-05,1.2083750000456348,1.2410706999944523,1.999459500075318,2.2997988000279292,2.2997988000279292,2.499665900017135,2.2997988000279292,0.0,4.78306899999734,2.483270199969411,2.483270199969411,1.14758,-0.06610868317625139,-0.13221736635250278,,,,None,,,,0.1,0.1,1.344464022151257,1.3416666666666666,trial_list_0.5_red.csv,1.3413575000595301,1.375113100046292,p1_base_01,001,2023-05-10_16h48.41.181,expectation_shapes_perceived_time,2022.2.4,120.01819478509763,
,33,0.5,none,,green,red,,253.11753442650257,,,,,0,58,58,205,trial,,,,,,green,0.2531175344265026,0.25,2.2998833000892773,0.9975708000129089,2e-05,2e-05,0.2498502000235021,0.28349300008267164,2.0001155000645667,2.2998833000892773,2.2998833000892773,2.500250200042501,2.2998833000892773,0.0,7.274925300036557,4.97504199994728,4.97504199994728,0.34082,0.1297224619982321,0.07087928335985878,,,,None,,0.03352,2.0333503000438213,0.033,0.03333333333333333,0.31944753442650253,0.31666666666666665,trial_list_0.5_red.csv,0.31665950000751764,0.35001380008179694,p1_base_01,001,2023-05-10_16h48.41.181,expectation_shapes_perceived_time,2022.2.4,120.01819478509763,
,-33,0.5,none,,green,red,,827.0879245820278,,,,,0,59,59,287,trial,,,,,,green,0.8270879245820277,0.825,2.3004551999038085,0.9967136000050232,1e-05,1e-05,0.8249562999699265,0.8585411999374628,1.9999076999956742,2.3004551999038085,2.3004551999038085,2.5002771998988464,2.3004551999038085,0.0,3.81663169991225,1.5161765000084415,1.5161765000084415,0.83227,0.07433949364236103,-0.12777100469780805,,,,None,,0.03337,2.0334237999049947,-0.033,-0.03333333333333333,0.7607579245820277,0.7583333333333333,trial_list_0.5_red.csv,0.7584784999489784,0.7916241999482736,p1_base_01,001,2023-05-10_16h48.41.181,expectation_shapes_perceived_time,2022.2.4,120.01819478509763,
,-300,0.5,none,,green,red,,1348.8226035216912,,,,,0,60,60,103,trial,,,,,,green,1.3488226035216913,1.35,2.300395100028254,0.9985228999285027,1e-05,1e-05,1.3499203000683337,1.383317600004375,2.0002973000518978,2.300395100028254,2.300395100028254,2.499937199987471,2.941350300097838,0.640955200069584,4.399684100062586,2.0992890000343323,1.4583337999647483,1.26383,-0.10896871203594123,-0.09988798603294612,,,,None,,0.03356,2.033732400042936,-0.3,-0.3,1.0154926035216911,1.0166666666666666,trial_list_0.5_red.csv,1.016678799991496,1.0501277000876144,p1_base_01,001,2023-05-10_16h48.41.181,expectation_shapes_perceived_time,2022.2.4,120.01819478509763,
,100,0.5,none,,red,green,,1284.02140077551,,,,,0,61,61,256,trial,,,,,,red,1.28402140077551,1.2833333333333332,2.299843200016767,0.9907876000506803,1e-05,1e-05,1.2835185000440106,1.316552700009197,2.0000738999806345,2.299843200016767,2.299843200016767,2.4999554000096396,3.8249846999533474,1.5251414999365807,4.624953999998979,2.3251107999822125,0.7999693000456318,1.02354,-0.010919971804452634,-0.14741961936011055,,,,None,,0.03361,2.0333854999626055,0.1,0.1,1.41735140077551,1.4166666666666667,trial_list_0.5_red.csv,1.4167209999868646,1.450001599965617,p1_base_01,001,2023-05-10_16h48.41.181,expectation_shapes_perceived_time,2022.2.4,120.01819478509763,
,300,0.5,none,,red,green,,214.48277442368104,,,,,0,62,62,330,trial,,,,,,red,0.21448277442368105,0.21666666666666667,2.2999635000014678,0.9983068000292405,2e-05,2e-05,0.21660080004949123,0.2498270000796765,1.9994569000555202,2.2999635000014678,2.2999635000014678,2.4997378999833018,2.641428300063126,0.341464800061658,3.6168372000101954,1.3168737000087276,0.9754088999470696,0.27233,0.11159695831451119,0.09694281227321175,,,,None,,,,0.3,0.3,0.547812774423681,0.55,trial_list_0.5_red.csv,0.5500028000678867,0.5831689999904484,p1_base_01,001,2023-05-10_16h48.41.181,expectation_shapes_perceived_time,2022.2.4,120.01819478509763,
,233,0.5,none,,green,red,,282.66781721547994,,,,,0,63,63,181,trial,,,,,,green,0.28266781721547996,0.2833333333333333,2.3005298000061885,0.9971316999290138,1e-05,1e-05,0.28366439999081194,0.3174101000186056,2.0001399000175297,2.3005298000061885,2.3005298000061885,2.5000488000223413,2.466686200001277,0.16615639999508858,3.8920174000086263,1.5914876000024378,1.4253312000073493,0.67519,0.12599333696275794,-0.07731409313623783,,,,None,,0.03357,2.033692799974233,0.233,0.23333333333333334,0.54899781721548,0.55,trial_list_0.5_red.csv,0.5503228000598028,0.5836794000351802,p1_base_01,001,2023-05-10_16h48.41.181,expectation_shapes_perceived_time,2022.2.4,120.01819478509763,
