delay,expectation,congruency,stim_color,distractor_color,targetTimeMs,famLoop.thisRepN,famLoop.thisTrialN,famLoop.thisN,famLoop.thisIndex,trialss.thisRepN,trialss.thisTrialN,trialss.thisN,trialss.thisIndex,isTrial,handMove.started,audioCue2Start.started,handOri,handMove.ended,audioCue2End.started,target_color,expected_target_onset,expected_target_onset_in_frames,expected_delay,expected_delays_frame,expected_distractor,expected_distractor_frame,expBlockFiles,fixationPoint.started,fixationPoint.stopped,audCueStart.started,placeholder.started,target.started,target.stopped,distractor.started,distractor.stopped,audCueEnd.started,responsePointer.started,responseStarted,rtUntillMotionTreshold,cueForRep.started,space2pass.started,responsePointer.stopped,rTAfterMotionTreshold,rtDurationBtwRespMotion,perceivedTime,resp_x_coord,resp_y_coord,space2pass.keys,audCueStart.stopped,audCueEnd.stopped,participant,session,date,expName,psychopyVersion,frameRate,
,,,,,,0,0,0,0,0,-1,-1,0,fam,0.5566653000132646,0.5566653000132646,270.0,2.5566758000059053,2.5566758000059053,,,,,,,,,,,,,,,,,,,,,,,,,,,,,,,,ahmed_base_continued,001,2023-04-29_13h46.10.803,expectation_shapes_perceived_time,2022.2.4,119.83266566098743,
,,,,,,1,0,1,0,0,-1,-1,0,fam,0.49735630000941455,0.49735630000941455,270.0,2.4971566000021994,2.4971566000021994,,,,,,,,,,,,,,,,,,,,,,,,,,,,,,,,ahmed_base_continued,001,2023-04-29_13h46.10.803,expectation_shapes_perceived_time,2022.2.4,119.83266566098743,
,,,,,,2,0,2,0,0,-1,-1,0,fam,0.4968906000140123,0.4968906000140123,270.0,2.4976774000097066,2.4976774000097066,,,,,,,,,,,,,,,,,,,,,,,,,,,,,,,,ahmed_base_continued,001,2023-04-29_13h46.10.803,expectation_shapes_perceived_time,2022.2.4,119.83266566098743,
,,,,,,3,0,3,0,0,-1,-1,0,fam,0.4976721999992151,0.4976721999992151,270.0,2.4975434000079986,2.4975434000079986,,,,,,,,,,,,,,,,,,,,,,,,,,,,,,,,ahmed_base_continued,001,2023-04-29_13h46.10.803,expectation_shapes_perceived_time,2022.2.4,119.83266566098743,
,,,,,,0,0,0,0,0,-1,-1,0,fam,0.5414264000137337,0.5414264000137337,270.0,2.5410487999906763,2.5410487999906763,,,,,,,,,,,,,,,,,,,,,,,,,,,,,,,,ahmed_base_continued,001,2023-04-29_13h46.10.803,expectation_shapes_perceived_time,2022.2.4,119.83266566098743,
,,,,,,1,0,1,0,0,-1,-1,0,fam,0.49714039999525994,0.49714039999525994,270.0,2.4971318999887444,2.4971318999887444,,,,,,,,,,,,,,,,,,,,,,,,,,,,,,,,ahmed_base_continued,001,2023-04-29_13h46.10.803,expectation_shapes_perceived_time,2022.2.4,119.83266566098743,
,,,,,,2,0,2,0,0,-1,-1,0,fam,0.49761300001409836,0.49761300001409836,270.0,2.4973383999895304,2.4973383999895304,,,,,,,,,,,,,,,,,,,,,,,,,,,,,,,,ahmed_base_continued,001,2023-04-29_13h46.10.803,expectation_shapes_perceived_time,2022.2.4,119.83266566098743,
,,,,,,3,0,3,0,0,-1,-1,0,fam,0.4989327999937814,0.4989327999937814,270.0,2.4991187999839894,2.4991187999839894,,,,,,,,,,,,,,,,,,,,,,,,,,,,,,,,ahmed_base_continued,001,2023-04-29_13h46.10.803,expectation_shapes_perceived_time,2022.2.4,119.83266566098743,
167,0.5,none,red,green,179.91946701493285,,,,,0,0,0,228,trial,,,,,,red,0.17991946701493286,0.18181818181818182,0.167,0.1652892561983471,0.3802494670149328,0.38016528925619836,trial_list_0.5_red.csv,2.2997819999873172,0.9982363000162877,3e-05,3e-05,0.18317169998772442,0.2165196999849286,0.3832965999899898,0.4165113999915775,1.9996797000057995,2.2997819999873172,2.2997819999873172,0.0,2.2997819999873172,2.500008600007277,3.2913490000064485,0.9915670000191312,0.9915670000191312,0.38661,0.13854342318944562,0.051551041186770466,None,,,ahmed_base_continued,001,2023-04-29_13h46.10.803,expectation_shapes_perceived_time,2022.2.4,119.83266566098743,
-167,0.5,none,green,red,1378.865741673162,,,,,0,1,1,65,trial,,,,,,green,1.3788657416731618,1.3636363636363638,-0.167,-0.1652892561983471,1.1785357416731619,1.1652892561983472,trial_list_0.5_red.csv,2.300153500022134,0.9970437999872956,3e-05,3e-05,1.3750918000005186,1.4084210000000894,1.1752216000168119,1.2086030000064056,2.0002899000246543,2.300153500022134,2.966695700015407,0.6665421999932732,2.300153500022134,2.5002569000062067,4.433294600021327,2.133141099999193,1.4665989000059199,1.30257,-0.12028893749926792,-0.08592066964233423,None,0.03353,2.033746200002497,ahmed_base_continued,001,2023-04-29_13h46.10.803,expectation_shapes_perceived_time,2022.2.4,119.83266566098743,
-300,0.5,none,green,red,760.6207292210638,,,,,0,2,2,361,trial,,,,,,green,0.7606207292210638,0.7520661157024794,-0.3,-0.2975206611570248,0.4272907292210638,0.42148760330578516,trial_list_0.5_red.csv,2.2996629000117537,0.9977228000061586,4e-05,4e-05,0.757857899996452,0.7912015000183601,0.4246335000207182,0.45784380001714453,1.9995639999979176,2.2996629000117537,2.633071699994616,0.33340879998286255,2.2996629000117537,2.49958920001518,3.3743595000123605,1.0746966000006068,0.7412878000177443,0.81068,0.08282689713141084,-0.12243976097686818,None,0.03322,2.032932600006461,ahmed_base_continued,001,2023-04-29_13h46.10.803,expectation_shapes_perceived_time,2022.2.4,119.83266566098743,
-167,0.5,none,green,red,666.5274690167037,,,,,0,3,3,321,trial,,,,,,green,0.6665274690167037,0.6611570247933884,-0.167,-0.1652892561983471,0.46619746901670367,0.4628099173553719,trial_list_0.5_red.csv,2.3003432999830693,0.9982751999923494,2e-05,2e-05,0.6672162000031676,0.7003177999868058,0.46674800000619143,0.5001476999896113,2.0002047999878414,2.3003432999830693,2.3003432999830693,0.0,2.3003432999830693,2.5001772999821696,3.3167995999974664,1.0164563000143971,1.0164563000143971,0.87208,0.05781978215802325,-0.13604654625417237,None,,,ahmed_base_continued,001,2023-04-29_13h46.10.803,expectation_shapes_perceived_time,2022.2.4,119.83266566098743,
33,0.5,none,green,red,453.7007798733568,,,,,0,4,4,171,trial,,,,,,green,0.4537007798733568,0.4462809917355372,0.033,0.03305785123966942,0.5200307798733568,0.5123966942148761,trial_list_0.5_red.csv,2.297553499985952,0.9914080000016838,6e-05,6e-05,0.44787810000707395,0.4815672999829985,0.514709099981701,0.5478150999988429,2.0059548999997787,2.297553499985952,2.297553499985952,0.0,2.297553499985952,2.4977188000048045,3.3643985000089742,1.0668450000230223,1.0668450000230223,0.31514,0.12358753627761625,0.08110432068218568,None,0.03962,2.0394559999986086,ahmed_base_continued,001,2023-04-29_13h46.10.803,expectation_shapes_perceived_time,2022.2.4,119.83266566098743,
-233,0.5,none,green,red,1395.46030578706,,,,,0,5,5,115,trial,,,,,,green,1.39546030578706,1.3801652892561984,-0.233,-0.23140495867768596,1.12913030578706,1.115702479338843,trial_list_0.5_red.csv,2.300489599991124,0.9964803999755532,3e-05,3e-05,1.3918815999932121,1.4254398999910336,1.1254420999903232,1.1587110999971628,2.000284699985059,2.300489599991124,2.8836135999881662,0.5831239999970421,2.300489599991124,2.500436300004367,3.6001245999941602,1.2996350000030361,0.716511000005994,0.66432,0.1285600241399713,-0.07296650018755127,None,0.03334,2.0337696000060532,ahmed_base_continued,001,2023-04-29_13h46.10.803,expectation_shapes_perceived_time,2022.2.4,119.83266566098743,
-100,0.5,none,red,green,1504.230950506496,,,,,0,6,6,94,trial,,,,,,red,1.504230950506496,1.487603305785124,-0.1,-0.09917355371900827,1.370900950506496,1.3553719008264462,trial_list_0.5_red.csv,2.299368300009519,0.997025200020289,9e-05,9e-05,1.499281600001268,1.5326456000038888,1.3659794999985024,1.399347200000193,1.9994262999971397,2.299368300009519,2.8658284000121057,0.5664601000025868,2.299368300009519,2.4994089000101667,4.799597000004724,2.500228699995205,1.933768599992618,1.64131,-0.1334940874979103,0.06349109039534757,None,0.033,2.03270139999222,ahmed_base_continued,001,2023-04-29_13h46.10.803,expectation_shapes_perceived_time,2022.2.4,119.83266566098743,
300,0.5,none,red,green,844.8682961086574,,,,,0,7,7,246,trial,,,,,,red,0.8448682961086574,0.8347107438016529,0.3,0.2975206611570248,1.1781982961086575,1.1652892561983472,trial_list_0.5_red.csv,2.3003577000054065,0.9970603999972809,1e-05,1e-05,0.842113300022902,0.8755834000185132,1.1754491000028793,1.209030600002734,2.0003961000184063,2.3003577000054065,2.7838810000102967,0.4835233000048902,2.3003577000054065,2.500426900020102,5.742111400002614,3.441753699997207,2.958230399992317,1.07798,-0.035852467268031776,-0.1434098690721271,None,0.03375,2.0337467000063043,ahmed_base_continued,001,2023-04-29_13h46.10.803,expectation_shapes_perceived_time,2022.2.4,119.83266566098743,
-167,0.5,none,green,red,674.5779482415107,,,,,0,8,8,421,trial,,,,,,green,0.6745779482415107,0.6694214876033058,-0.167,-0.1652892561983471,0.47424794824151073,0.47107438016528924,trial_list_0.5_red.csv,2.3002973000111524,0.9972511999949347,3e-05,3e-05,0.6751456999918446,0.7086208999971859,0.47517200000584126,0.5084675000107381,2.0002620999875944,2.3002973000111524,2.791621499985922,0.4913241999747697,2.3002973000111524,2.5002108000044245,3.725055299990345,1.4247579999791924,0.9334338000044227,0.71177,0.11629839557402577,-0.09124951037346637,None,0.03335,2.033583999989787,ahmed_base_continued,001,2023-04-29_13h46.10.803,expectation_shapes_perceived_time,2022.2.4,119.83266566098743,
167,0.5,none,red,green,328.31524305614187,,,,,0,9,9,440,trial,,,,,,red,0.32831524305614185,0.3223140495867769,0.167,0.1652892561983471,0.5286452430561419,0.5206611570247934,trial_list_0.5_red.csv,2.299932499998249,0.9965740999905393,3e-05,3e-05,0.32480060000671074,0.3582860000024084,0.5249399000022095,0.5582889000070281,2.000065700005507,2.299932499998249,2.7417711000016425,0.44183860000339337,2.299932499998249,2.4999124000023585,3.4328645000059623,1.1329320000077132,0.6910934000043198,0.67887,0.12509310826360598,-0.0787623274252334,None,0.03327,2.033393399993656,ahmed_base_continued,001,2023-04-29_13h46.10.803,expectation_shapes_perceived_time,2022.2.4,119.83266566098743,
33,0.5,none,green,red,219.0847614904108,,,,,0,10,10,267,trial,,,,,,green,0.2190847614904108,0.21487603305785125,0.033,0.03305785123966942,0.2854147614904108,0.2809917355371901,trial_list_0.5_red.csv,2.2998175999964587,0.9990216000005603,4e-05,4e-05,0.21660980000160635,0.2501895999885164,0.28317759998026304,0.3165395999967586,1.9996758000052068,2.2998175999964587,2.566351699992083,0.2665340999956243,2.2998175999964587,2.4995992000040133,3.308089400001336,1.0082718000048772,0.7417377000092529,0.26383,0.10896871203594123,0.09988798603294612,None,0.03318,2.0330987999914214,ahmed_base_continued,001,2023-04-29_13h46.10.803,expectation_shapes_perceived_time,2022.2.4,119.83266566098743,
33,0.5,none,green,red,253.11753442650257,,,,,0,11,11,205,trial,,,,,,green,0.2531175344265026,0.24793388429752067,0.033,0.03305785123966942,0.31944753442650253,0.3140495867768595,trial_list_0.5_red.csv,2.30024099998991,0.9966406000021379,3e-05,3e-05,0.2499351000005845,0.28344499997911043,0.31659199998830445,0.34998189998441376,2.0000785999873187,2.30024099998991,3.0499181999766733,0.7496771999867633,2.30024099998991,2.5000963999773376,3.5417510999832302,1.2415100999933202,0.4918329000065569,0.18186,0.07993668492866803,0.12434595433348358,None,0.03325,2.033392499986803,ahmed_base_continued,001,2023-04-29_13h46.10.803,expectation_shapes_perceived_time,2022.2.4,119.83266566098743,
-233,0.5,none,red,green,1549.79678991972,,,,,0,12,12,90,trial,,,,,,red,1.5497967899197198,1.537190082644628,-0.233,-0.23140495867768596,1.28346678991972,1.2727272727272727,trial_list_0.5_red.csv,2.3003205999848433,0.9969565999926999,8e-05,8e-05,1.5500131000007968,1.583463099988876,1.2833435999928042,1.3169947999995202,2.000115300004836,2.3003205999848433,3.0166894999856595,0.7163689000008162,2.3003205999848433,2.500221900001634,3.8834728999936488,1.5831523000088055,0.8667834000079893,1.52737,-0.14727726746661216,0.012696316160914841,None,0.03309,2.0334742999984883,ahmed_base_continued,001,2023-04-29_13h46.10.803,expectation_shapes_perceived_time,2022.2.4,119.83266566098743,
-300,0.5,none,red,green,885.4852901396116,,,,,0,13,13,426,trial,,,,,,red,0.8854852901396116,0.8760330578512396,-0.3,-0.2975206611570248,0.5521552901396116,0.5454545454545454,trial_list_0.5_red.csv,2.300039599998854,0.9964188000012655,4e-05,4e-05,0.883109999995213,0.9166551000089385,0.5497078000043985,0.5830265999829862,1.9999271999986377,2.300039599998854,2.3666099999973085,0.06657039999845438,2.300039599998854,2.499738199985586,3.974801899981685,1.6747622999828309,1.6081918999843765,0.91344,0.03970526586026381,-0.1423912982574978,None,,,ahmed_base_continued,001,2023-04-29_13h46.10.803,expectation_shapes_perceived_time,2022.2.4,119.83266566098743,
-33,0.5,none,green,red,1367.1864954161326,,,,,0,14,14,455,trial,,,,,,green,1.3671864954161326,1.3553719008264462,-0.033,-0.03305785123966942,1.3008564954161328,1.2892561983471076,trial_list_0.5_red.csv,2.3000464999931864,0.9967760000145063,3e-05,3e-05,1.3664898999850266,1.3999570999876596,1.300018599984469,1.333572399977129,2.00019519997295,2.3000464999931864,2.9666089999955148,0.6665625000023283,2.3000464999931864,2.500034799973946,4.183364199998323,1.8833177000051364,1.2167552000028081,0.74764,0.1052983912889153,-0.10374988553466655,None,0.03323,2.0336278999748174,ahmed_base_continued,001,2023-04-29_13h46.10.803,expectation_shapes_perceived_time,2022.2.4,119.83266566098743,
-33,0.5,none,green,red,573.062538552318,,,,,0,15,15,485,trial,,,,,,green,0.5730625385523179,0.5702479338842975,-0.033,-0.03305785123966942,0.5067325385523179,0.5041322314049587,trial_list_0.5_red.csv,2.3003507000103127,0.9969160000036936,2e-05,2e-05,0.5753178000159096,0.6089170000050217,0.5088874000066426,0.5422309999994468,2.0005613999965135,2.3003507000103127,3.6585325000050943,1.3581817999947816,2.3003507000103127,2.5005297000170685,4.191756700020051,1.891406000009738,0.5332242000149563,1.08969,-0.04110352071497421,-0.14199398065172908,None,0.03312,2.033688000024995,ahmed_base_continued,001,2023-04-29_13h46.10.803,expectation_shapes_perceived_time,2022.2.4,119.83266566098743,
-33,0.5,none,green,red,1711.9700514711153,,,,,0,16,16,111,trial,,,,,,green,1.7119700514711154,1.694214876033058,-0.033,-0.03305785123966942,1.6456400514711154,1.6280991735537191,trial_list_0.5_red.csv,2.300113400007831,0.9963276000053156,2e-05,2e-05,1.7083151999977417,1.7417313000187278,1.6417497000074945,1.6750504999945406,2.0001853000139818,2.300113400007831,2.6500744000077248,0.34996099999989383,2.300113400007831,2.500041599996621,3.141782199993031,0.8416687999852002,0.49170779998530634,1.70198,-0.11904772449494558,0.08763235275322384,None,,,ahmed_base_continued,001,2023-04-29_13h46.10.803,expectation_shapes_perceived_time,2022.2.4,119.83266566098743,
-300,0.5,none,red,green,1496.9385574237808,,,,,0,17,17,136,trial,,,,,,red,1.4969385574237808,1.4793388429752066,-0.3,-0.2975206611570248,1.1636085574237809,1.1487603305785123,trial_list_0.5_red.csv,2.300125899986597,0.9978469999914523,2e-05,2e-05,1.4918669000035152,1.5251695000042673,1.1584835999819916,1.1918327999883331,2.0001306000049226,2.300125899986597,2.7835782000038307,0.48345230001723394,2.300125899986597,2.500225700001465,3.7668655999877956,1.4667397000011988,0.9832873999839649,1.15831,-0.07052539352128562,-0.12991519859184192,None,,,ahmed_base_continued,001,2023-04-29_13h46.10.803,expectation_shapes_perceived_time,2022.2.4,119.83266566098743,
-300,0.5,none,green,red,607.5290687484842,,,,,0,18,18,471,trial,,,,,,green,0.6075290687484842,0.6033057851239669,-0.3,-0.2975206611570248,0.2741990687484842,0.2727272727272727,trial_list_0.5_red.csv,2.3000787000055425,0.9972619999898598,3e-05,3e-05,0.6084006000019144,0.6417290000244975,0.27499790000729263,0.3083490000281017,2.0000856000115164,2.3000787000055425,2.3000787000055425,0.0,2.3000787000055425,2.500146300008055,4.700048700004118,2.399969999998575,2.399969999998575,0.77886,0.09463430467601198,-0.11356116561121439,None,0.03342,2.0334188000124414,ahmed_base_continued,001,2023-04-29_13h46.10.803,expectation_shapes_perceived_time,2022.2.4,119.83266566098743,
300,0.5,none,green,red,867.6130566762281,,,,,0,19,19,19,trial,,,,,,green,0.8676130566762281,0.859504132231405,0.3,0.2975206611570248,1.200943056676228,1.1900826446280992,trial_list_0.5_red.csv,2.300320400012424,0.9965216999989934,2e-05,2e-05,0.8670930000080261,0.9004005000169855,1.2003765999979805,1.2336971000186168,2.0003212000010535,2.300320400012424,2.8085719000082463,0.5082514999958221,2.300320400012424,2.5003686000127345,3.4086071000201628,1.1082867000077385,0.6000352000119165,0.89245,0.049001423127915236,-0.13946558890252797,None,0.03338,2.0337376999959815,ahmed_base_continued,001,2023-04-29_13h46.10.803,expectation_shapes_perceived_time,2022.2.4,119.83266566098743,
-100,0.5,none,green,red,801.6327033793136,,,,,0,20,20,99,trial,,,,,,green,0.8016327033793136,0.7933884297520661,-0.1,-0.09917355371900827,0.6683027033793136,0.6611570247933884,trial_list_0.5_red.csv,2.299926499981666,0.996204700000817,3e-05,3e-05,0.7998791999998502,0.8330634000012651,0.6666627999802586,0.7000164999917615,1.999995799997123,2.299926499981666,2.299926499981666,0.0,2.299926499981666,2.500064599997131,3.9920476999832317,1.6921212000015657,1.6921212000015657,1.19519,-0.08507145498626252,-0.12089101498047831,None,0.0333,2.0332861999922898,ahmed_base_continued,001,2023-04-29_13h46.10.803,expectation_shapes_perceived_time,2022.2.4,119.83266566098743,
-167,0.5,none,green,red,644.5391584409343,,,,,0,21,21,419,trial,,,,,,green,0.6445391584409343,0.6363636363636364,-0.167,-0.1652892561983471,0.44420915844093434,0.4380165289256198,trial_list_0.5_red.csv,2.300101100001484,0.9963777999801096,4e-05,4e-05,0.6418780999956653,0.6750153000175487,0.4419491000007838,0.47519530000863597,1.9999883999989834,2.300101100001484,2.7915459999931045,0.49144489999162033,2.300101100001484,2.5000125000078697,4.175285000004806,1.8751839000033215,1.3837390000117011,1.12447,-0.056344062141729934,-0.13666432093951517,None,0.03341,,ahmed_base_continued,001,2023-04-29_13h46.10.803,expectation_shapes_perceived_time,2022.2.4,119.83266566098743,
300,0.5,none,red,green,663.0579725558466,,,,,0,22,22,358,trial,,,,,,red,0.6630579725558466,0.6528925619834711,0.3,0.2975206611570248,0.9963879725558467,0.9834710743801653,trial_list_0.5_red.csv,2.3000032999843825,0.9967989000142552,3e-05,3e-05,0.6580103999876883,0.6912957000022288,0.9915643999993335,1.0249179999809712,2.000252099998761,2.3000032999843825,2.558522000006633,0.2585187000222504,2.3000032999843825,2.5000153000000864,3.158378599997377,0.8583753000129946,0.5998565999907441,0.62112,0.1372506829217666,-0.05490027316870664,None,0.03329,2.0330579000001308,ahmed_base_continued,001,2023-04-29_13h46.10.803,expectation_shapes_perceived_time,2022.2.4,119.83266566098743,
300,0.5,none,green,red,1523.7355329370205,,,,,0,23,23,273,trial,,,,,,green,1.5237355329370206,1.512396694214876,0.3,0.2975206611570248,1.8570655329370205,1.8429752066115703,trial_list_0.5_red.csv,2.299884599982761,0.9975481999863405,5e-05,5e-05,1.524330199987162,1.5575836999923922,1.8581218000035733,1.8913884999928996,1.9997506999934558,2.299884599982761,2.708023899991531,0.4081393000087701,2.299884599982761,2.4997355999948923,5.299815400008811,2.99993080002605,2.5917915000172798,1.18923,-0.08279208998874385,-0.12246329977501694,None,,,ahmed_base_continued,001,2023-04-29_13h46.10.803,expectation_shapes_perceived_time,2022.2.4,119.83266566098743,
33,0.5,none,green,red,1187.3099494634296,,,,,0,24,24,49,trial,,,,,,green,1.1873099494634296,1.1735537190082646,0.033,0.03305785123966942,1.2536399494634296,1.2396694214876034,trial_list_0.5_red.csv,2.299959800002398,0.9974481000099331,7e-05,7e-05,1.1834022999973968,1.2167291000077967,1.2499246000079438,1.2832083999819588,1.9998665000020992,2.299959800002398,2.5833567999943625,0.28339699999196455,2.299959800002398,2.5000286999857053,4.133204299985664,1.833244499983266,1.5498474999913014,1.09972,-0.04555580728683585,-0.14062879640718892,None,,,ahmed_base_continued,001,2023-04-29_13h46.10.803,expectation_shapes_perceived_time,2022.2.4,119.83266566098743,
233,0.5,none,green,red,212.74941221148248,0,0,0,0,0,25,25,209,fam,0.5559874000027776,0.5559874000027776,270.0,2.556405100011034,2.556405100011034,,,,,,,,,,,,,,,,,,,,,,,,,,,,,,,,ahmed_base_continued,001,2023-04-29_13h46.10.803,expectation_shapes_perceived_time,2022.2.4,119.83266566098743,
233,0.5,none,green,red,212.74941221148248,1,0,1,0,0,25,25,209,fam,0.49752830000943504,0.49752830000943504,270.0,2.49765559998923,2.49765559998923,,,,,,,,,,,,,,,,,,,,,,,,,,,,,,,,ahmed_base_continued,001,2023-04-29_13h46.10.803,expectation_shapes_perceived_time,2022.2.4,119.83266566098743,
233,0.5,none,green,red,212.74941221148248,2,0,2,0,0,25,25,209,fam,0.4975990999955684,0.4975990999955684,270.0,2.497415899997577,2.497415899997577,,,,,,,,,,,,,,,,,,,,,,,,,,,,,,,,ahmed_base_continued,001,2023-04-29_13h46.10.803,expectation_shapes_perceived_time,2022.2.4,119.83266566098743,
233,0.5,none,green,red,212.74941221148248,3,0,3,0,0,25,25,209,fam,0.49750940001104027,0.49750940001104027,270.0,2.4971287000225857,2.4971287000225857,,,,,,,,,,,,,,,,,,,,,,,,,,,,,,,,ahmed_base_continued,001,2023-04-29_13h46.10.803,expectation_shapes_perceived_time,2022.2.4,119.83266566098743,
233,0.5,none,green,red,212.74941221148248,,,,,0,25,25,209,trial,,,,,,green,0.21274941221148247,0.2066115702479339,0.233,0.23140495867768596,0.4790794122114825,0.47107438016528924,trial_list_0.5_red.csv,2.2996834999939892,0.9989852999860886,4e-05,4e-05,0.20769469998776913,0.24129599999287166,0.4743414999975357,0.5076622999913525,1.9997370999772102,2.2996834999939892,2.2996834999939892,0.0,2.2996834999939892,2.4996252999990247,3.3746150999795645,1.0749315999855753,1.0749315999855753,0.34277,0.13015432799069754,0.07008309968729869,None,,,ahmed_base_continued,001,2023-04-29_13h46.10.803,expectation_shapes_perceived_time,2022.2.4,119.83266566098743,
33,0.5,none,red,green,411.1456964814199,,,,,0,26,26,354,trial,,,,,,red,0.4111456964814199,0.4049586776859504,0.033,0.03305785123966942,0.4774756964814199,0.47107438016528924,trial_list_0.5_red.csv,2.2999975999991875,0.9963502000027802,4e-05,4e-05,0.40812340000411496,0.4415582000219729,0.4750599999970291,0.5083583000232466,2.0000200000067707,2.2999975999991875,2.3080104000109714,0.008012800011783838,2.2999975999991875,2.499822800018592,3.6915088000241667,1.3915112000249792,1.3834984000131954,0.5457,0.1463023467152207,-0.021152146513043955,None,0.03327,2.0332608000026084,ahmed_base_continued,001,2023-04-29_13h46.10.803,expectation_shapes_perceived_time,2022.2.4,119.83266566098743,
-300,0.5,none,green,red,822.9511610948607,,,,,0,27,27,261,trial,,,,,,green,0.8229511610948607,0.8181818181818182,-0.3,-0.2975206611570248,0.4896211610948607,0.487603305785124,trial_list_0.5_red.csv,2.3001512000046205,0.9966163999924902,3e-05,3e-05,0.8252921000239439,0.8586412000004202,0.49186000000918284,0.5253732000128366,2.000121500022942,2.3001512000046205,2.3001512000046205,0.0,2.3001512000046205,2.5002912000054494,3.583325600018725,1.2831744000141043,1.2831744000141043,0.65154,0.13138600344779183,-0.06774590802776767,None,0.03319,2.033482200000435,ahmed_base_continued,001,2023-04-29_13h46.10.803,expectation_shapes_perceived_time,2022.2.4,119.83266566098743,
-100,0.5,none,green,red,714.9083557577244,,,,,0,28,28,345,trial,,,,,,green,0.7149083557577244,0.7107438016528926,-0.1,-0.09917355371900827,0.5815783557577243,0.578512396694215,trial_list_0.5_red.csv,2.2999213000002783,0.9976124999811873,4e-05,4e-05,0.716750099993078,0.7500312999763992,0.5835162999865133,0.6166522999992594,1.9999132999801077,2.2999213000002783,2.2999213000002783,0.0,2.2999213000002783,2.499944399984088,3.1750415999849793,0.875120299984701,0.875120299984701,0.68831,0.12270084488656134,-0.08243963015815839,None,,,ahmed_base_continued,001,2023-04-29_13h46.10.803,expectation_shapes_perceived_time,2022.2.4,119.83266566098743,
-300,0.5,none,red,green,775.5389451316632,,,,,0,29,29,482,trial,,,,,,red,0.7755389451316632,0.768595041322314,-0.3,-0.2975206611570248,0.44220894513166326,0.4380165289256198,trial_list_0.5_red.csv,2.2998172999941744,0.997403099987423,3e-05,3e-05,0.7749191999901086,0.8080556999775581,0.44160079999710433,0.4749424000037834,1.9997808999905828,2.2998172999941744,2.7409948999993503,0.4411776000051759,2.2998172999941744,2.4993661000044085,4.024818299978506,1.7250009999843314,1.2838233999791555,0.7273,0.11170861229756321,-0.09681413065788812,None,0.03309,2.033121599990409,ahmed_base_continued,001,2023-04-29_13h46.10.803,expectation_shapes_perceived_time,2022.2.4,119.83266566098743,
233,0.5,none,red,green,1121.6972027350826,,,,,0,30,30,222,trial,,,,,,red,1.1216972027350827,1.1074380165289257,0.233,0.23140495867768596,1.3880272027350824,1.371900826446281,trial_list_0.5_red.csv,2.299748199991882,0.9969992999976967,5e-05,5e-05,1.115996999986237,1.1493435000011232,1.3827633000037167,1.4162419000058435,1.9994157000037376,2.299748199991882,2.532268100010697,0.23251990001881495,2.299748199991882,2.4990612999827135,3.499236200004816,1.1994880000129342,0.9669680999941193,1.24016,-0.1012458011775361,-0.1077082991250384,None,0.0331,,ahmed_base_continued,001,2023-04-29_13h46.10.803,expectation_shapes_perceived_time,2022.2.4,119.83266566098743,
-33,0.5,none,red,green,1122.0000661345307,,,,,0,31,31,336,trial,,,,,,red,1.1220000661345306,1.1074380165289257,-0.033,-0.03305785123966942,1.0556700661345308,1.0495867768595042,trial_list_0.5_red.csv,2.300128400005633,0.9969029999920167,3e-05,3e-05,1.1167003000155091,1.1502419000025839,1.0584036000072956,1.0916524000058416,1.999993400007952,2.300128400005633,2.6419899000029545,0.3418614999973215,2.300128400005633,2.499923100025626,3.1911643000203185,0.8910359000146855,0.549174400017364,1.21904,-0.09388350906070655,-0.11418264615491339,None,,,ahmed_base_continued,001,2023-04-29_13h46.10.803,expectation_shapes_perceived_time,2022.2.4,119.83266566098743,
-33,0.5,none,green,red,373.7769742607738,,,,,0,32,32,21,trial,,,,,,green,0.3737769742607738,0.371900826446281,-0.033,-0.03305785123966942,0.3074469742607738,0.30578512396694213,trial_list_0.5_red.csv,2.299911099980818,0.9988034999987576,4e-05,4e-05,0.37490880000405014,0.4085135000059381,0.3082224999961909,0.341514300002018,1.9999121000000741,2.299911099980818,2.299911099980818,0.0,2.299911099980818,2.4998546999995597,5.03328760000295,2.733376500022132,2.733376500022132,0.24783,0.1038135358453957,0.10523563907615456,None,0.0332,2.033026699995389,ahmed_base_continued,001,2023-04-29_13h46.10.803,expectation_shapes_perceived_time,2022.2.4,119.83266566098743,
100,0.5,none,red,green,1164.4012169074922,,,,,0,33,33,172,trial,,,,,,red,1.1644012169074922,1.15702479338843,0.1,0.09917355371900827,1.2977312169074922,1.2892561983471076,trial_list_0.5_red.csv,2.3000156999914907,0.9974070000171196,4e-05,4e-05,1.1666045999736525,1.1999638999986928,1.2999574999848846,1.3333706999837887,1.999943999981042,2.3000156999914907,2.3000156999914907,0.0,2.3000156999914907,2.5001349999802187,3.3083279999846127,1.008312299993122,1.008312299993122,1.21378,-0.09198231039903493,-0.11571968082459232,None,0.03343,2.033504399994854,ahmed_base_continued,001,2023-04-29_13h46.10.803,expectation_shapes_perceived_time,2022.2.4,119.83266566098743,
-300,0.5,none,green,red,897.2780234932461,,,,,0,34,34,55,trial,,,,,,green,0.8972780234932461,0.8925619834710744,-0.3,-0.2975206611570248,0.563948023493246,0.5619834710743802,trial_list_0.5_red.csv,2.3001599999843165,0.9968142000143416,4e-05,4e-05,0.9000293999852147,0.9334422999818344,0.5664143999747466,0.5996632999740541,1.9998418999894056,2.3001599999843165,2.433181299973512,0.13302129998919554,2.3001599999843165,2.4998991999891587,3.208597299992107,0.9084373000077903,0.7754160000185948,1.08191,-0.03762009263995751,-0.14295635203183849,None,0.03355,2.033497199998237,ahmed_base_continued,001,2023-04-29_13h46.10.803,expectation_shapes_perceived_time,2022.2.4,119.83266566098743,
-233,0.5,none,green,red,1013.8305448185704,,,,,0,35,35,67,trial,,,,,,green,1.0138305448185705,1.0,-0.233,-0.23140495867768596,0.7475005448185703,0.743801652892562,trial_list_0.5_red.csv,2.300208200002089,0.9960946000064723,4e-05,4e-05,1.0081929999869317,1.0415329999814276,0.7498987999861129,0.7833682000054978,1.9998224999872036,2.300208200002089,2.6665953999909107,0.3663871999888215,2.300208200002089,2.4999695000005886,3.2829659999988507,0.9827577999967616,0.6163706000079401,1.12825,-0.05796136756294993,-0.13598628543615174,None,0.03321,2.033136399986688,ahmed_base_continued,001,2023-04-29_13h46.10.803,expectation_shapes_perceived_time,2022.2.4,119.83266566098743,
-33,0.5,none,green,red,1401.3862310844029,,,,,0,36,36,423,trial,,,,,,green,1.401386231084403,1.3884297520661157,-0.033,-0.03305785123966942,1.335056231084403,1.322314049586777,trial_list_0.5_red.csv,2.3006750000058673,0.9965912000043318,4e-05,4e-05,1.4008893000136595,1.4338699000072666,1.3341408999986015,1.367306500003906,2.000528500007931,2.3006750000058673,2.683837099990342,0.3831620999844745,2.3006750000058673,2.500518799992278,3.800582800002303,1.4999077999964356,1.1167457000119612,1.60242,-0.14023769450772117,0.04674589816924039,None,0.03319,2.034019200014882,ahmed_base_continued,001,2023-04-29_13h46.10.803,expectation_shapes_perceived_time,2022.2.4,119.83266566098743,
300,0.5,none,green,red,1328.5581336073078,,,,,0,37,37,139,trial,,,,,,green,1.3285581336073078,1.3140495867768596,0.3,0.2975206611570248,1.6618881336073077,1.6446280991735538,trial_list_0.5_red.csv,2.3000576999911573,0.9973470999975689,4e-05,4e-05,1.3249684000038542,1.3581987000070512,1.6583089999912772,1.6915213000029325,1.9997799000120722,2.3000576999911573,2.758119000005536,0.4580613000143785,2.3000576999911573,2.4998501999943983,3.582963799999561,1.2829061000084039,0.8248447999940254,1.13127,-0.059250446712516926,-0.13542959248575295,None,0.03316,2.0331967000092845,ahmed_base_continued,001,2023-04-29_13h46.10.803,expectation_shapes_perceived_time,2022.2.4,119.83266566098743,
-167,0.5,none,green,red,849.3100783101269,,,,,0,38,38,9,trial,,,,,,green,0.8493100783101268,0.8429752066115703,-0.167,-0.1652892561983471,0.6489800783101268,0.6446280991735538,trial_list_0.5_red.csv,2.3000726999889594,0.9976891000114847,3e-05,3e-05,0.8495570999803022,0.8829532999952789,0.6496193999773823,0.6828256999724545,2.000116299983347,2.3000726999889594,2.841420599987032,0.5413478999980725,2.3000726999889594,2.500249899982009,3.549786799994763,1.2497141000058036,0.7083662000077311,1.08859,-0.04061024125549402,-0.14213584439422905,None,,,ahmed_base_continued,001,2023-04-29_13h46.10.803,expectation_shapes_perceived_time,2022.2.4,119.83266566098743,
-33,0.5,none,green,red,495.512322985721,,,,,0,39,39,195,trial,,,,,,green,0.495512322985721,0.487603305785124,-0.033,-0.03305785123966942,0.42918232298572107,0.42148760330578516,trial_list_0.5_red.csv,2.3000631000031717,0.9976994000026025,4e-05,4e-05,0.4917125999927521,0.5251872999942861,0.4249973999976646,0.4582720999896992,2.000050699978601,2.3000631000031717,2.541823299980024,0.24176019997685216,2.3000631000031717,2.5000775999797042,3.408412499993574,1.1083493999904022,0.86658920001355,0.55207,0.14585030162268536,-0.02407237987947234,None,,,ahmed_base_continued,001,2023-04-29_13h46.10.803,expectation_shapes_perceived_time,2022.2.4,119.83266566098743,
-233,0.5,none,green,red,1093.4908769388926,,,,,0,40,40,25,trial,,,,,,green,1.0934908769388927,1.0826446280991735,-0.233,-0.23140495867768596,0.8271608769388925,0.8181818181818182,trial_list_0.5_red.csv,2.300048200006131,0.9973591000016313,3e-05,3e-05,1.0918278000026476,1.1248294000106398,0.8249416000035126,0.8582935000013094,1.9998697999981232,2.300048200006131,5.033174200012581,2.7331260000064503,2.300048200006131,2.4996693000139203,5.4998593000054825,3.1998110999993514,0.4666850999929011,1.12235,-0.055430808824637925,-0.13703727737202154,None,,2.0332469000131823,ahmed_base_continued,001,2023-04-29_13h46.10.803,expectation_shapes_perceived_time,2022.2.4,119.83266566098743,
-33,0.5,none,green,red,699.6016590207973,,,,,0,41,41,143,trial,,,,,,green,0.6996016590207973,0.6942148760330579,-0.033,-0.03305785123966942,0.6332716590207973,0.628099173553719,trial_list_0.5_red.csv,2.3003537000040524,0.9965608999773394,3e-05,3e-05,0.6997349000012036,0.7332239999959711,0.6332410000031814,0.666308099986054,2.0003804999869317,2.3003537000040524,2.6166703999915626,0.3163166999875102,2.3003537000040524,2.50020469998708,3.158275199995842,0.8579214999917895,0.5416048000042792,1.02886,-0.013383311713856375,-0.14721642885242012,None,,,ahmed_base_continued,001,2023-04-29_13h46.10.803,expectation_shapes_perceived_time,2022.2.4,119.83266566098743,
300,0.5,none,red,green,1233.1297794118784,,,,,0,42,42,114,trial,,,,,,red,1.2331297794118785,1.2231404958677685,0.3,0.2975206611570248,1.5664597794118784,1.553719008264463,trial_list_0.5_red.csv,2.30018900000141,0.9972226000099909,3e-05,3e-05,1.2329128000128549,1.266250200016657,1.5667477000097279,1.6000984000274912,2.000088400003733,2.30018900000141,2.9583658000046853,0.6581768000032753,2.30018900000141,2.5001109000004362,4.891591100022197,2.5914021000207867,1.9332253000175115,1.10755,-0.049001423127915236,-0.13946558890252797,None,0.03331,2.0334067000076175,ahmed_base_continued,001,2023-04-29_13h46.10.803,expectation_shapes_perceived_time,2022.2.4,119.83266566098743,
167,0.5,none,green,red,1476.9038168940533,,,,,0,43,43,411,trial,,,,,,green,1.4769038168940534,1.462809917355372,0.167,0.1652892561983471,1.6772338168940533,1.6611570247933884,trial_list_0.5_red.csv,2.3001636000117287,0.996848000009777,3e-05,3e-05,1.4752196000190452,1.5086792000220157,1.6750697999959812,1.7086713000026066,2.0000826000177767,2.3001636000117287,2.9000029000162613,0.5998393000045326,2.3001636000117287,2.50007910002023,3.4250466999947093,1.1248830999829806,0.5250437999784481,1.1804,-0.07936281941253046,-0.12471300193397643,None,0.03332,2.0334212000016123,ahmed_base_continued,001,2023-04-29_13h46.10.803,expectation_shapes_perceived_time,2022.2.4,119.83266566098743,
233,0.5,none,green,red,694.620145623371,,,,,0,44,44,465,trial,,,,,,green,0.6946201456233709,0.6859504132231405,0.233,0.23140495867768596,0.960950145623371,0.9504132231404959,trial_list_0.5_red.csv,2.3001083999988623,0.9961317999986932,3e-05,3e-05,0.6912593999877572,0.724487900006352,0.9577335999929346,0.9911374000075739,2.0000534999999218,2.3001083999988623,2.799846300011268,0.4997379000124056,2.3001083999988623,2.500010099989595,4.157919499994023,1.8578110999951605,1.3580731999827549,0.92279,0.03550428047985775,-0.1434964669394251,None,0.03311,2.033132599986857,ahmed_base_continued,001,2023-04-29_13h46.10.803,expectation_shapes_perceived_time,2022.2.4,119.83266566098743,
-167,0.5,none,green,red,802.6870985785861,,,,,0,45,45,79,trial,,,,,,green,0.8026870985785861,0.7933884297520661,-0.167,-0.1652892561983471,0.602357098578586,0.5950413223140496,trial_list_0.5_red.csv,2.2999929999932647,0.9968243000039365,4e-05,4e-05,0.799873000010848,0.8329139999987092,0.5995925000170246,0.6328686999913771,2.0000023000175133,2.2999929999932647,2.8164909000042826,0.5164979000110179,2.2999929999932647,2.500046700006351,3.1751049000013154,0.8751119000080507,0.3586139999970328,1.20759,-0.08971609880324972,-0.11748536748044609,None,,,ahmed_base_continued,001,2023-04-29_13h46.10.803,expectation_shapes_perceived_time,2022.2.4,119.83266566098743,
-300,0.5,none,green,red,987.7438944041012,,,,,0,46,46,175,trial,,,,,,green,0.9877438944041012,0.975206611570248,-0.3,-0.2975206611570248,0.6544138944041011,0.6446280991735538,trial_list_0.5_red.csv,2.2999602999771014,0.9956438000081107,4e-05,4e-05,0.9828693999734242,1.0163641999824904,0.6500163999735378,0.6830366999784019,1.9997403999732342,2.2999602999771014,3.0081686999765225,0.7082083999994211,2.2999602999771014,2.500014999997802,3.8998611999850255,1.599900900007924,0.891692500008503,1.13414,-0.0604680793186122,-0.13489033078767337,None,0.03339,2.03328689999762,ahmed_base_continued,001,2023-04-29_13h46.10.803,expectation_shapes_perceived_time,2022.2.4,119.83266566098743,
-167,0.5,none,red,green,1346.451402570899,,,,,0,47,47,378,trial,,,,,,red,1.3464514025708991,1.3305785123966942,-0.167,-0.1652892561983471,1.1461214025708992,1.1322314049586777,trial_list_0.5_red.csv,2.3000322000007145,0.9967558000062127,4e-05,4e-05,1.3415976000251248,1.37474330002442,1.1416539000056218,1.1751883000251837,1.9998414000147022,2.3000322000007145,2.3000322000007145,0.0,2.3000322000007145,2.4999345000251196,5.166626100020949,2.8665939000202343,2.8665939000202343,0.83295,0.07406493989079822,-0.12793035072046965,None,0.03327,2.033388500014553,ahmed_base_continued,001,2023-04-29_13h46.10.803,expectation_shapes_perceived_time,2022.2.4,119.83266566098743,
-100,0.5,none,green,red,297.0069267058937,,,,,0,48,48,445,trial,,,,,,green,0.2970069267058937,0.2975206611570248,-0.1,-0.09917355371900827,0.16367692670589373,0.1652892561983471,trial_list_0.5_red.csv,2.3000551000004634,0.996163500007242,4e-05,4e-05,0.29963880000286736,0.33302329998696223,0.16685209999559447,0.2001557000039611,2.0002179000002798,2.3000551000004634,2.3000551000004634,0.0,2.3000551000004634,2.4998076999909244,5.1500837999919895,2.850028699991526,2.850028699991526,0.41685,0.1428087446310851,0.03817659509939898,None,0.0333,2.0333847000147216,ahmed_base_continued,001,2023-04-29_13h46.10.803,expectation_shapes_perceived_time,2022.2.4,119.83266566098743,
233,0.5,none,red,green,966.3963723101672,,,,,0,49,49,316,trial,,,,,,red,0.9663963723101672,0.9586776859504132,0.233,0.23140495867768596,1.2327263723101671,1.2231404958677685,trial_list_0.5_red.csv,2.3002307999995537,0.9968881000240799,3e-05,3e-05,0.9671137999976054,1.0002392000169493,1.233488900004886,1.267103699996369,2.0003492000105325,2.3002307999995537,2.96681010001339,0.6665793000138365,2.3002307999995537,2.500457899994217,4.908209100016393,2.607978300016839,1.9413990000030026,0.63365,0.13498324642570086,-0.06026037786861645,None,0.03358,2.0335535000194795,ahmed_base_continued,001,2023-04-29_13h46.10.803,expectation_shapes_perceived_time,2022.2.4,119.83266566098743,
167,0.5,none,red,green,768.8323120062184,0,0,0,0,0,50,50,314,fam,0.5566165999916848,0.5566165999916848,270.0,2.55665990000125,2.55665990000125,,,,,,,,,,,,,,,,,,,,,,,,,,,,,,,,ahmed_base_continued,001,2023-04-29_13h46.10.803,expectation_shapes_perceived_time,2022.2.4,119.83266566098743,
167,0.5,none,red,green,768.8323120062184,1,0,1,0,0,50,50,314,fam,0.49841110000852495,0.49841110000852495,270.0,2.4989524999982677,2.4989524999982677,,,,,,,,,,,,,,,,,,,,,,,,,,,,,,,,ahmed_base_continued,001,2023-04-29_13h46.10.803,expectation_shapes_perceived_time,2022.2.4,119.83266566098743,
167,0.5,none,red,green,768.8323120062184,2,0,2,0,0,50,50,314,fam,0.4976528999977745,0.4976528999977745,270.0,2.497473600000376,2.497473600000376,,,,,,,,,,,,,,,,,,,,,,,,,,,,,,,,ahmed_base_continued,001,2023-04-29_13h46.10.803,expectation_shapes_perceived_time,2022.2.4,119.83266566098743,
167,0.5,none,red,green,768.8323120062184,3,0,3,0,0,50,50,314,fam,0.497470100002829,0.497470100002829,270.0,2.4974627000046894,2.4974627000046894,,,,,,,,,,,,,,,,,,,,,,,,,,,,,,,,ahmed_base_continued,001,2023-04-29_13h46.10.803,expectation_shapes_perceived_time,2022.2.4,119.83266566098743,
167,0.5,none,red,green,768.8323120062184,,,,,0,50,50,314,trial,,,,,,red,0.7688323120062185,0.7603305785123967,0.167,0.1652892561983471,0.9691623120062185,0.9586776859504132,trial_list_0.5_red.csv,2.2997705999878235,0.9980190999922343,4e-05,4e-05,0.7666474999859929,0.8000790999794845,0.9666482999746222,0.9997937999723945,1.999833799985936,2.2997705999878235,2.5911654999945313,0.29139490000670776,2.2997705999878235,2.499952599988319,3.4081732999766245,1.108402699988801,0.8170077999820933,0.75601,0.1025365485072389,-0.10648026191136348,None,,,ahmed_base_continued,001,2023-04-29_13h46.10.803,expectation_shapes_perceived_time,2022.2.4,119.83266566098743,
300,0.5,none,green,red,1206.077056171759,,,,,0,51,51,303,trial,,,,,,green,1.206077056171759,1.1983471074380165,0.3,0.2975206611570248,1.539407056171759,1.5206611570247934,trial_list_0.5_red.csv,2.2998951000045054,0.9961967000272125,4e-05,4e-05,1.2079465000133496,1.2415711000212468,1.5330197000002954,1.566624300001422,1.9996085000166204,2.2998951000045054,2.64121190001606,0.34131680001155473,2.2998951000045054,2.499895600019954,3.5828466000093613,1.282951500004856,0.9416346999933012,1.19145,-0.08364482370940199,-0.1218824574051286,None,0.03314,2.0331844000029378,ahmed_base_continued,001,2023-04-29_13h46.10.803,expectation_shapes_perceived_time,2022.2.4,119.83266566098743,
-233,0.5,none,green,red,849.837306466305,,,,,0,52,52,15,trial,,,,,,green,0.849837306466305,0.8429752066115703,-0.233,-0.23140495867768596,0.583507306466305,0.578512396694215,trial_list_0.5_red.csv,2.300046200020006,0.9976173999893945,3e-05,3e-05,0.8497486000123899,0.8832972999953199,0.5835915000061505,0.6170139000169002,2.0000096000148915,2.300046200020006,2.575164900015807,0.27511869999580085,2.300046200020006,2.5001112000027206,3.183020199998282,0.882973999978276,0.6078552999824751,0.88312,0.05306554733516522,-0.13797042307142957,None,0.03333,2.033295500004897,ahmed_base_continued,001,2023-04-29_13h46.10.803,expectation_shapes_perceived_time,2022.2.4,119.83266566098743,
300,0.5,none,green,red,683.0580206842526,,,,,0,53,53,225,trial,,,,,,green,0.6830580206842526,0.6776859504132231,0.3,0.2975206611570248,1.0163880206842526,1.0082644628099173,trial_list_0.5_red.csv,2.2999964999908116,0.9969654000014998,3e-05,3e-05,0.6828932999924291,0.7165583999885712,1.0168736999912653,1.0498600999999326,2.000009700015653,2.2999964999908116,3.0669752999965567,0.7669788000057451,2.2999964999908116,2.500129599997308,4.358484600001248,2.058488100010436,1.2915093000046909,0.79171,0.08997421255784845,-0.11728781279862385,None,0.03334,2.0337026999914087,ahmed_base_continued,001,2023-04-29_13h46.10.803,expectation_shapes_perceived_time,2022.2.4,119.83266566098743,
233,0.5,none,green,red,1292.476553867969,,,,,0,54,54,187,trial,,,,,,green,1.292476553867969,1.28099173553719,0.233,0.23140495867768596,1.558806553867969,1.5454545454545454,trial_list_0.5_red.csv,2.3007490999880247,0.995856100023957,2e-05,2e-05,1.2919075000099838,1.3252601000131108,1.5585132999985944,1.5918295000155922,2.0005965000018477,2.3007490999880247,2.700557000003755,0.3998079000157304,2.3007490999880247,2.5004947000124957,4.242138600006001,1.9413895000179764,1.541581600002246,0.97322,0.012422940379009383,-0.14730057877968267,None,0.03339,2.033853700006148,ahmed_base_continued,001,2023-04-29_13h46.10.803,expectation_shapes_perceived_time,2022.2.4,119.83266566098743,
100,0.5,none,green,red,921.8599824895364,,,,,0,55,55,165,trial,,,,,,green,0.9218599824895364,0.9090909090909092,0.1,0.09917355371900827,1.0551899824895363,1.0413223140495869,trial_list_0.5_red.csv,2.3007485999842174,0.996870700008003,1e-05,1e-05,0.9171566999866627,0.9509219999890774,1.0507972000050358,1.084342399990419,2.0005740000051446,2.3007485999842174,2.509323600010248,0.20857500002603047,2.3007485999842174,2.500500900001498,3.275436299998546,0.9746877000143286,0.7661126999882981,1.08779,-0.04025566260609447,-0.14223667454153383,None,0.03338,2.0341665000014473,ahmed_base_continued,001,2023-04-29_13h46.10.803,expectation_shapes_perceived_time,2022.2.4,119.83266566098743,
167,0.5,none,red,green,1320.8254062906278,,,,,0,56,56,436,trial,,,,,,red,1.3208254062906277,1.3057851239669422,0.167,0.1652892561983471,1.5211554062906278,1.5041322314049588,trial_list_0.5_red.csv,2.29995390001568,0.996677399991313,4e-05,4e-05,1.3167105999891646,1.3499756999954116,1.5168747999996413,1.5500024000066333,2.0001862999924924,2.29995390001568,2.7666745000169612,0.4667206000012811,2.29995390001568,2.4999921999988146,3.258544400014216,0.958590499998536,0.49186989999725483,1.37888,-0.13725068292176662,-0.054900273168706645,None,,,ahmed_base_continued,001,2023-04-29_13h46.10.803,expectation_shapes_perceived_time,2022.2.4,119.83266566098743,
33,0.5,none,red,green,168.03455478076077,,,,,0,57,57,182,trial,,,,,,red,0.16803455478076076,0.1652892561983471,0.033,0.03305785123966942,0.2343645547807608,0.23140495867768596,trial_list_0.5_red.csv,2.2996552000113297,0.9965816999902017,4e-05,4e-05,0.16659330000402406,0.1996903000108432,0.2333165000018198,0.26666049999766983,2.000216799991904,2.2996552000113297,2.2996552000113297,0.0,2.2996552000113297,2.499677999992855,3.5577670999919064,1.2581118999805767,1.2581118999805767,0.16342,0.07260217507406809,0.12876612182947927,None,,,ahmed_base_continued,001,2023-04-29_13h46.10.803,expectation_shapes_perceived_time,2022.2.4,119.83266566098743,
167,0.5,none,green,red,1610.6430926965284,,,,,0,58,58,57,trial,,,,,,green,1.6106430926965283,1.5950413223140496,0.167,0.1652892561983471,1.8109730926965282,1.7933884297520661,trial_list_0.5_red.csv,2.3000281999993604,0.9979465999931563,4e-05,4e-05,1.6080179999989923,1.6412602000054903,1.807734400004847,1.8410468000220135,1.9993804000259843,2.3000281999993604,2.958216099999845,0.6581879000004847,2.3000281999993604,2.4998734000255354,5.341406000021379,3.041377800022019,2.3831899000215344,1.20764,-0.08973483536012253,-0.11747105719870585,None,0.03346,2.0330433000053745,ahmed_base_continued,001,2023-04-29_13h46.10.803,expectation_shapes_perceived_time,2022.2.4,119.83266566098743,
33,0.5,none,red,green,1799.3057040072672,,,,,0,59,59,444,trial,,,,,,red,1.7993057040072673,1.7851239669421488,0.033,0.03305785123966942,1.865635704007267,1.8512396694214877,trial_list_0.5_red.csv,2.2999935999978334,0.9968521000118926,4e-05,4e-05,1.8002086999767926,1.8334191000030842,1.8665497000038158,1.9002122999809217,1.9999403999827337,2.2999935999978334,2.641830899985507,0.34183729998767376,2.2999935999978334,2.499960999994073,5.516209599998547,3.2162160000007134,2.8743787000130396,1.7793,-0.09447670872121557,0.11369231049502213,None,,,ahmed_base_continued,001,2023-04-29_13h46.10.803,expectation_shapes_perceived_time,2022.2.4,119.83266566098743,
167,0.5,none,red,green,1509.1582187633553,,,,,0,60,60,322,trial,,,,,,red,1.5091582187633552,1.4958677685950414,0.167,0.1652892561983471,1.7094882187633553,1.694214876033058,trial_list_0.5_red.csv,2.3000964999955613,0.9987541000009514,4e-05,4e-05,1.5080567999975756,1.5415411000140011,1.7083408999897074,1.7416525000007823,2.000079099991126,2.3000964999955613,2.808050199993886,0.5079536999983247,2.3000964999955613,2.4998132000037003,4.474811899999622,2.174715400004061,1.6667617000057362,1.608,-0.139396140520743,0.049198637830850475,None,0.0332,2.0331535000004806,ahmed_base_continued,001,2023-04-29_13h46.10.803,expectation_shapes_perceived_time,2022.2.4,119.83266566098743,
233,0.5,none,green,red,702.0856477037216,,,,,0,61,61,265,trial,,,,,,green,0.7020856477037216,0.6942148760330579,0.233,0.23140495867768596,0.9684156477037217,0.9586776859504132,trial_list_0.5_red.csv,2.300012699997751,0.9969332000182476,3e-05,3e-05,0.6999285999918357,0.7331995000131428,0.9665537000109907,0.9997069000091869,1.9999083000002429,2.300012699997751,2.4497420999978203,0.1497294000000693,2.300012699997751,2.4999233999988064,3.5910918000154197,1.2910791000176687,1.1413497000175994,0.31982,0.12476648861896941,0.07927870630997015,None,,,ahmed_base_continued,001,2023-04-29_13h46.10.803,expectation_shapes_perceived_time,2022.2.4,119.83266566098743,
167,0.5,none,red,green,1427.9524980308606,,,,,0,62,62,324,trial,,,,,,red,1.4279524980308607,1.4132231404958677,0.167,0.1652892561983471,1.6282824980308606,1.6115702479338843,trial_list_0.5_red.csv,2.2998227999778464,0.9986624000011943,4e-05,4e-05,1.4247430999821518,1.4581497999897692,1.6250274000049103,1.6581671999883838,1.999896199995419,2.2998227999778464,3.1000423999794293,0.8002196000015829,2.2998227999778464,2.499855000001844,5.7581792999990284,3.458356500021182,2.658136900019599,0.88138,0.053819595223221314,-0.13767803429196152,None,0.03314,2.0332687000045553,ahmed_base_continued,001,2023-04-29_13h46.10.803,expectation_shapes_perceived_time,2022.2.4,119.83266566098743,
-233,0.5,none,red,green,457.94396559195474,,,,,0,63,63,134,trial,,,,,,red,0.4579439655919547,0.4545454545454546,-0.233,-0.23140495867768596,0.19161396559195476,0.19008264462809918,trial_list_0.5_red.csv,2.299044999992475,0.9969795999932103,4e-05,4e-05,0.45801550001488067,0.49135590001242235,0.1915619999927003,0.22448530001565814,1.9991118000179995,2.299044999992475,2.299044999992475,0.0,2.299044999992475,2.4995080000080634,3.3993667000031564,1.1003217000106815,1.1003217000106815,0.37112,0.13587124406305215,0.05823053316987949,None,,,ahmed_base_continued,001,2023-04-29_13h46.10.803,expectation_shapes_perceived_time,2022.2.4,119.83266566098743,
100,0.5,none,green,red,565.3940805239735,,,,,0,64,64,295,trial,,,,,,green,0.5653940805239734,0.5619834710743802,0.1,0.09917355371900827,0.6987240805239735,0.6942148760330579,trial_list_0.5_red.csv,2.3000668000022415,0.9967712999787182,3e-05,3e-05,0.5664796000055503,0.5997897000052035,0.6997867999889422,0.7331225999805611,2.000070699985372,2.3000668000022415,2.832692500000121,0.5326256999978796,2.3000668000022415,2.4999627999786753,4.433189400006086,2.133122600003844,1.6004969000059646,0.60526,0.13981474755495135,-0.047996107369610165,None,,,ahmed_base_continued,001,2023-04-29_13h46.10.803,expectation_shapes_perceived_time,2022.2.4,119.83266566098743,
100,0.5,none,red,green,1692.8505919018578,,,,,0,65,65,82,trial,,,,,,red,1.6928505919018577,1.677685950413223,0.1,0.09917355371900827,1.8261805919018577,1.8099173553719008,trial_list_0.5_red.csv,2.299437500012573,0.9975292999879457,4e-05,4e-05,1.6916840999911074,1.725181200017687,1.8249537000083365,1.8584408000169788,2.000151400017785,2.299437500012573,2.382820700004231,0.08338319999165833,2.299437500012573,2.4994117000023834,3.6083068000152707,1.3088693000026979,1.2254861000110395,1.83727,-0.0723227960375511,0.12892324511041717,None,0.03345,2.0334317999950144,ahmed_base_continued,001,2023-04-29_13h46.10.803,expectation_shapes_perceived_time,2022.2.4,119.83266566098743,
-300,0.5,none,red,green,1716.958708009745,,,,,0,66,66,144,trial,,,,,,red,1.7169587080097448,1.7024793388429753,-0.3,-0.2975206611570248,1.383628708009745,1.371900826446281,trial_list_0.5_red.csv,2.299787500000093,0.9975901999860071,4e-05,4e-05,1.7164727000053972,1.7497508999949787,1.3831524999986868,1.4164925999939442,1.999755600001663,2.299787500000093,2.8909771000035107,0.5911896000034176,2.299787500000093,2.500155599991558,4.824919000006048,2.525131500005955,1.9339419000025373,1.85242,-0.0661086831762514,0.1322173663525028,None,0.03339,,ahmed_base_continued,001,2023-04-29_13h46.10.803,expectation_shapes_perceived_time,2022.2.4,119.83266566098743,
33,0.5,none,green,red,1117.651872292552,,,,,0,67,67,227,trial,,,,,,green,1.1176518722925521,1.1074380165289257,0.033,0.03305785123966942,1.183981872292552,1.1735537190082646,trial_list_0.5_red.csv,2.3004258000000846,0.996830999996746,3e-05,3e-05,1.1166080000111833,1.1498850000207312,1.183257800003048,1.216656900011003,1.9996448000019882,2.3004258000000846,2.975117499998305,0.6746916999982204,2.3004258000000846,2.5002288999967277,4.133414000010816,1.8329882000107318,1.1582965000125114,0.76054,0.10101048588123547,-0.10792901231145706,None,0.0333,2.0329542999970727,ahmed_base_continued,001,2023-04-29_13h46.10.803,expectation_shapes_perceived_time,2022.2.4,119.83266566098743,
-233,0.5,none,green,red,1341.617946120852,,,,,0,68,68,257,trial,,,,,,green,1.341617946120852,1.3305785123966942,-0.233,-0.23140495867768596,1.075287946120852,1.0661157024793388,trial_list_0.5_red.csv,2.299887500004843,0.9968124000006355,8e-05,8e-05,1.341363600018667,1.3743429000023752,1.0751312000211328,1.1081696000183001,1.999397500010673,2.299887500004843,2.7918323000194505,0.4919448000146076,2.299887500004843,2.4996780000219587,3.5163026000082027,1.2164151000033598,0.7244702999887522,1.12361,-0.0559708360607334,-0.13681759925957054,None,,,ahmed_base_continued,001,2023-04-29_13h46.10.803,expectation_shapes_perceived_time,2022.2.4,119.83266566098743,
-100,0.5,none,green,red,1508.5511418578535,,,,,0,69,69,45,trial,,,,,,green,1.5085511418578534,1.4958677685950414,-0.1,-0.09917355371900827,1.3752211418578535,1.3636363636363638,trial_list_0.5_red.csv,2.299375799979316,0.9968735000002198,4e-05,4e-05,1.5082156999851577,1.541609099978814,1.37491250000312,1.4083293000003323,1.9999124000023585,2.299375799979316,3.1500091000052635,0.8506333000259474,2.299375799979316,2.499513399990974,4.949936099990737,2.6505603000114206,1.7999269999854732,1.55151,-0.14589188206249598,0.02381908278571363,None,0.03315,2.0331948999955785,ahmed_base_continued,001,2023-04-29_13h46.10.803,expectation_shapes_perceived_time,2022.2.4,119.83266566098743,
-167,0.5,none,red,green,389.0797602007186,,,,,0,70,70,496,trial,,,,,,red,0.3890797602007186,0.38842975206611574,-0.167,-0.1652892561983471,0.18874976020071865,0.19008264462809918,trial_list_0.5_red.csv,2.2998127000173554,0.9974615999963135,4e-05,4e-05,0.3913913000142202,0.42505120002897456,0.19139710001763888,0.22480920000816695,1.9994064000202343,2.2998127000173554,2.2998127000173554,0.0,2.2998127000173554,2.499832500005141,4.074867100018309,1.775054400000954,1.775054400000954,0.63279,0.13514608490757488,-0.059894287629493406,None,0.03321,2.0331489000236616,ahmed_base_continued,001,2023-04-29_13h46.10.803,expectation_shapes_perceived_time,2022.2.4,119.83266566098743,
33,0.5,none,red,green,1225.0108292300768,,,,,0,71,71,250,trial,,,,,,red,1.2250108292300768,1.2148760330578512,0.033,0.03305785123966942,1.2913408292300768,1.28099173553719,trial_list_0.5_red.csv,2.299986199999694,0.9969992999976967,5e-05,5e-05,1.2244160999835003,1.257770399999572,1.291468299983535,1.3246193999948446,2.0003795999800786,2.299986199999694,3.258222399977967,0.9582361999782734,2.299986199999694,2.500184000004083,3.8329472999903373,1.5329610999906436,0.5747249000123702,1.51843,-0.1475757431102493,0.008555115542623146,None,0.0334,2.0332124999840744,ahmed_base_continued,001,2023-04-29_13h46.10.803,expectation_shapes_perceived_time,2022.2.4,119.83266566098743,
233,0.5,none,red,green,945.3652270069952,,,,,0,72,72,130,trial,,,,,,red,0.9453652270069951,0.9338842975206612,0.233,0.23140495867768596,1.2116952270069952,1.1983471074380165,trial_list_0.5_red.csv,2.2999415999802295,0.9973656999936793,4e-05,4e-05,0.9416886999970302,0.9751689999829978,1.208244699984789,1.2416987999749836,1.9999077999964356,2.2999415999802295,2.6748686999781057,0.3749270999978762,2.2999415999802295,2.5000548999814782,3.5747521999874152,1.2748106000071857,0.8998835000093095,1.07416,-0.034129091633024904,-0.14382974331060497,None,0.03353,2.0335047999978997,ahmed_base_continued,001,2023-04-29_13h46.10.803,expectation_shapes_perceived_time,2022.2.4,119.83266566098743,
233,0.5,none,red,green,1600.6444602722977,,,,,0,73,73,368,trial,,,,,,red,1.6006444602722978,1.5867768595041323,0.233,0.23140495867768596,1.8669744602722975,1.8512396694214877,trial_list_0.5_red.csv,2.2995650000229944,0.9979116999893449,5e-05,5e-05,1.5998823000118136,1.6330365000176243,1.865814800024964,1.8990957000060007,1.9991526000085287,2.2995650000229944,2.7328310000011697,0.4332659999781754,2.2995650000229944,2.4996947000036016,3.808052600012161,1.5084875999891665,1.075221600010991,1.61058,-0.13899339778951897,0.05032519575137756,None,,,ahmed_base_continued,001,2023-04-29_13h46.10.803,expectation_shapes_perceived_time,2022.2.4,119.83266566098743,
-233,0.5,none,red,green,412.75845327463225,,,,,0,74,74,344,trial,,,,,,red,0.41275845327463223,0.4049586776859504,-0.233,-0.23140495867768596,0.14642845327463225,0.1487603305785124,trial_list_0.5_red.csv,2.299061300000176,0.9969252999871969,5e-05,5e-05,0.4083444999996573,0.441553999989992,0.14974659998551942,0.18336120000458322,1.9991868999786675,2.299061300000176,2.299061300000176,0.0,2.299061300000176,2.499124399997527,3.1243240000039805,0.8252627000038046,0.8252627000038046,0.49214,0.14777846880474246,0.0036488510815985793,None,,2.032377900002757,ahmed_base_continued,001,2023-04-29_13h46.10.803,expectation_shapes_perceived_time,2022.2.4,119.83266566098743,
-167,0.5,none,green,red,442.58273160042114,0,0,0,0,0,75,75,109,fam,0.5565465000108816,0.5565465000108816,270.0,2.5566877000092063,2.5566877000092063,,,,,,,,,,,,,,,,,,,,,,,,,,,,,,,,ahmed_base_continued,001,2023-04-29_13h46.10.803,expectation_shapes_perceived_time,2022.2.4,119.83266566098743,
-167,0.5,none,green,red,442.58273160042114,1,0,1,0,0,75,75,109,fam,0.49736189999384806,0.49736189999384806,270.0,2.497092099976726,2.497092099976726,,,,,,,,,,,,,,,,,,,,,,,,,,,,,,,,ahmed_base_continued,001,2023-04-29_13h46.10.803,expectation_shapes_perceived_time,2022.2.4,119.83266566098743,
-167,0.5,none,green,red,442.58273160042114,2,0,2,0,0,75,75,109,fam,0.4971185000031255,0.4971185000031255,270.0,2.4976161000085995,2.4976161000085995,,,,,,,,,,,,,,,,,,,,,,,,,,,,,,,,ahmed_base_continued,001,2023-04-29_13h46.10.803,expectation_shapes_perceived_time,2022.2.4,119.83266566098743,
-167,0.5,none,green,red,442.58273160042114,3,0,3,0,0,75,75,109,fam,0.4976510000124108,0.4976510000124108,270.0,2.496892900002422,2.496892900002422,,,,,,,,,,,,,,,,,,,,,,,,,,,,,,,,ahmed_base_continued,001,2023-04-29_13h46.10.803,expectation_shapes_perceived_time,2022.2.4,119.83266566098743,
-167,0.5,none,green,red,442.58273160042114,,,,,0,75,75,109,trial,,,,,,green,0.44258273160042116,0.4380165289256198,-0.167,-0.1652892561983471,0.24225273160042116,0.2396694214876033,trial_list_0.5_red.csv,2.3001531999907456,0.9984926000179257,3e-05,3e-05,0.4413209999911487,0.47469199998886324,0.2413970000052359,0.2747424000117462,2.000128499988932,2.3001531999907456,2.4079587000014726,0.10780550001072697,2.3001531999907456,2.499976199993398,3.177078699984122,0.8769254999933764,0.7691199999826495,0.66705,0.12793035072046965,-0.07406493989079822,None,,,ahmed_base_continued,001,2023-04-29_13h46.10.803,expectation_shapes_perceived_time,2022.2.4,119.83266566098743,
-233,0.5,none,red,green,1525.8752116267456,,,,,0,76,76,148,trial,,,,,,red,1.5258752116267456,1.512396694214876,-0.233,-0.23140495867768596,1.2595452116267456,1.2479338842975207,trial_list_0.5_red.csv,2.300368199998047,0.9949789000093006,3e-05,3e-05,1.5252366999920923,1.558813800016651,1.2583258000086062,1.2916578000003938,2.0001975999912247,2.300368199998047,2.475123000011081,0.17475480001303367,2.300368199998047,2.5000417999981437,3.725025399995502,1.4246571999974549,1.2499023999844212,1.37951,-0.13735806646789817,-0.054631049163368584,None,0.03348,2.0335096000053454,ahmed_base_continued,001,2023-04-29_13h46.10.803,expectation_shapes_perceived_time,2022.2.4,119.83266566098743,
-300,0.5,none,red,green,1441.5653414181347,,,,,0,77,77,448,trial,,,,,,red,1.4415653414181346,1.4297520661157026,-0.3,-0.2975206611570248,1.1082353414181347,1.0991735537190084,trial_list_0.5_red.csv,2.2999288999999408,0.99826409999514,4e-05,4e-05,1.4414976999978535,1.4749566999962553,1.1083072000183165,1.1418532000097912,2.000021999992896,2.2999288999999408,2.7917793999949936,0.4918504999950528,2.2999288999999408,2.5000599999912083,3.500070800015237,1.2001419000152964,0.7082914000202436,1.77051,-0.09758045797683002,0.11103983149087555,None,,,ahmed_base_continued,001,2023-04-29_13h46.10.803,expectation_shapes_perceived_time,2022.2.4,119.83266566098743,
-300,0.5,none,red,green,1172.7330433382278,,,,,0,78,78,178,trial,,,,,,red,1.172733043338228,1.1652892561983472,-0.3,-0.2975206611570248,0.8394030433382278,0.8347107438016529,trial_list_0.5_red.csv,2.2998418000061065,0.9962895000062417,4e-05,4e-05,1.1749112000106834,1.2081888999964576,0.8415852999896742,0.8751091999874916,1.999896399996942,2.2998418000061065,2.9330219000112265,0.63318010000512,2.2998418000061065,2.4998664000013378,4.457654900004854,2.157813099998748,1.524632999993628,1.50723,-0.14778534670932397,0.0033587578797573633,None,,,ahmed_base_continued,001,2023-04-29_13h46.10.803,expectation_shapes_perceived_time,2022.2.4,119.83266566098743,
100,0.5,none,red,green,348.25210796299046,,,,,0,79,79,80,trial,,,,,,red,0.34825210796299044,0.34710743801652894,0.1,0.09917355371900827,0.48158210796299045,0.4793388429752066,trial_list_0.5_red.csv,2.300038300018059,0.9989315000129864,4e-05,4e-05,0.3498639000172261,0.38314670001273043,0.48325620000832714,0.5167124000145122,1.9998544999980368,2.300038300018059,2.349780100019416,0.04974180000135675,2.300038300018059,2.499864700017497,3.6668499000079464,1.3668115999898873,1.3170697999885306,0.52023,0.14752510343111003,-0.009387961127434275,None,,,ahmed_base_continued,001,2023-04-29_13h46.10.803,expectation_shapes_perceived_time,2022.2.4,119.83266566098743,
33,0.5,none,red,green,1665.8854794608092,,,,,0,80,80,446,trial,,,,,,red,1.6658854794608091,1.6528925619834711,0.033,0.03305785123966942,1.7322154794608091,1.71900826446281,trial_list_0.5_red.csv,2.3000047000241466,0.9961253000074066,2e-05,2e-05,1.6670016999996733,1.7000842000124976,1.7338048000237904,1.7671675000165123,2.000308600021526,2.3000047000241466,2.3000047000241466,0.0,2.3000047000241466,2.5000922000035644,3.5749251000233926,1.274920399999246,1.274920399999246,1.86122,-0.062429044213975514,0.1339940461178011,None,0.0334,2.0335313999967184,ahmed_base_continued,001,2023-04-29_13h46.10.803,expectation_shapes_perceived_time,2022.2.4,119.83266566098743,
167,0.5,none,green,red,1486.2933339348433,,,,,0,81,81,429,trial,,,,,,green,1.4862933339348432,1.4710743801652892,0.167,0.1652892561983471,1.6866233339348433,1.6694214876033058,trial_list_0.5_red.csv,2.300233899994055,0.9976533000008203,3e-05,3e-05,1.4833131000050344,1.5164903000113554,1.6835953000118025,1.7166972999984864,1.9999529999913648,2.300233899994055,2.625252099998761,0.32501820000470616,2.300233899994055,2.4999998999992386,3.5500927999964915,1.2498589000024367,0.9248406999977306,1.85242,-0.0661086831762514,0.1322173663525028,None,,,ahmed_base_continued,001,2023-04-29_13h46.10.803,expectation_shapes_perceived_time,2022.2.4,119.83266566098743,
-167,0.5,none,green,red,1848.12705509141,,,,,0,82,82,153,trial,,,,,,green,1.84812705509141,1.8264462809917357,-0.167,-0.1652892561983471,1.64779705509141,1.6280991735537191,trial_list_0.5_red.csv,2.2999828000029083,0.996763099974487,4e-05,4e-05,1.8416965999931563,1.8751194000069518,1.6418030000058934,1.675032300001476,2.0001154000055976,2.2999828000029083,2.666619499999797,0.36663669999688864,2.2999828000029083,2.5000632000155747,3.7084692000062205,1.4084864000033122,1.0418497000064235,1.87703,-0.05569962182604791,0.13692823698903442,None,,,ahmed_base_continued,001,2023-04-29_13h46.10.803,expectation_shapes_perceived_time,2022.2.4,119.83266566098743,
-100,0.5,none,green,red,1526.0716770667354,,,,,0,83,83,453,trial,,,,,,green,1.5260716770667355,1.512396694214876,-0.1,-0.09917355371900827,1.3927416770667356,1.3801652892561984,trial_list_0.5_red.csv,2.3000346000189893,0.99674750000122,4e-05,4e-05,1.5250628000067081,1.5583588000154123,1.392005000001518,1.4250402000034228,2.000375300005544,2.3000346000189893,3.0584391000156756,0.7584044999966864,2.3000346000189893,2.5000604999950156,5.249935300002107,2.949900699983118,2.1914961999864317,1.60684,-0.139574984477778,0.04868894807364348,None,,,ahmed_base_continued,001,2023-04-29_13h46.10.803,expectation_shapes_perceived_time,2022.2.4,119.83266566098743,
-167,0.5,none,green,red,1608.723683887852,,,,,0,84,84,11,trial,,,,,,green,1.608723683887852,1.5950413223140496,-0.167,-0.1652892561983471,1.4083936838878521,1.396694214876033,trial_list_0.5_red.csv,2.3001479000085965,0.997189099987736,3e-05,3e-05,1.608468799997354,1.642130799998995,1.4085522000095807,1.4421952000120655,2.000270399992587,2.3001479000085965,3.050269400002435,0.7501214999938384,2.3001479000085965,2.500197399989702,3.6666351000021677,1.3664871999935713,0.6163656999997329,1.53602,-0.14687821580584806,0.016690706341573644,None,0.0334,,ahmed_base_continued,001,2023-04-29_13h46.10.803,expectation_shapes_perceived_time,2022.2.4,119.83266566098743,
-100,0.5,none,green,red,1126.5203597642717,,,,,0,85,85,61,trial,,,,,,green,1.1265203597642717,1.115702479338843,-0.1,-0.09917355371900827,0.9931903597642716,0.9834710743801653,trial_list_0.5_red.csv,2.2999893999949563,0.9975554999837186,3e-05,3e-05,1.1248920999933034,1.1583080999844242,0.9918929999985266,1.0250117999967188,2.0001558999938425,2.2999893999949563,2.7582145999767818,0.4582251999818254,2.2999893999949563,2.4999671999830753,3.749880299990764,1.4498908999958076,0.9916657000139821,0.85554,0.0648093199266073,-0.13285910584954494,None,0.03325,2.0335375999857206,ahmed_base_continued,001,2023-04-29_13h46.10.803,expectation_shapes_perceived_time,2022.2.4,119.83266566098743,
-167,0.5,none,green,red,1167.7389293529657,,,,,0,86,86,89,trial,,,,,,green,1.1677389293529656,1.15702479338843,-0.167,-0.1652892561983471,0.9674089293529656,0.9586776859504132,trial_list_0.5_red.csv,2.300465800013626,0.997112000011839,4e-05,4e-05,1.167248500016285,1.200642700016033,0.9674424999975599,1.0005024000129197,2.000212900020415,2.300465800013626,2.6004812000028323,0.30001539998920634,2.300465800013626,2.5006399000121746,3.117092700005742,0.8166268999921158,0.5166115000029095,1.10474,-0.047768258462087695,-0.1398927569246854,None,0.03333,2.0336906000156887,ahmed_base_continued,001,2023-04-29_13h46.10.803,expectation_shapes_perceived_time,2022.2.4,119.83266566098743,
-167,0.5,none,red,green,466.532260698285,,,,,0,87,87,494,trial,,,,,,red,0.46653226069828496,0.4628099173553719,-0.167,-0.1652892561983471,0.266202260698285,0.2644628099173554,trial_list_0.5_red.csv,2.300149499991676,0.9964517000189517,3e-05,3e-05,0.46657970000524074,0.5000678999931552,0.2666271000052802,0.30032149999169633,2.000248600001214,2.300149499991676,2.4081672999891452,0.10801779999746941,2.300149499991676,2.49994290000177,3.9832656999933533,1.6831162000016775,1.575098400004208,0.56013,0.14519401235026158,-0.027757678831667652,None,0.03324,2.033314700005576,ahmed_base_continued,001,2023-04-29_13h46.10.803,expectation_shapes_perceived_time,2022.2.4,119.83266566098743,
-167,0.5,none,green,red,884.1428723996761,,,,,0,88,88,275,trial,,,,,,green,0.884142872399676,0.8760330578512396,-0.167,-0.1652892561983471,0.683812872399676,0.6776859504132231,trial_list_0.5_red.csv,2.300307099998463,0.9969277000054717,5e-05,5e-05,0.8827905000071041,0.9161985999962781,0.6830365000059828,0.7161923999956343,2.000147399987327,2.300307099998463,2.766479999991134,0.46617289999267086,2.300307099998463,2.5001306000049226,3.4167022999899928,1.1163951999915298,0.6502222999988589,0.80022,0.08680604694376828,-0.11965157821978871,None,0.0333,2.033421400003135,ahmed_base_continued,001,2023-04-29_13h46.10.803,expectation_shapes_perceived_time,2022.2.4,119.83266566098743,
167,0.5,none,green,red,1115.7417025087102,,,,,0,89,89,467,trial,,,,,,green,1.1157417025087102,1.1074380165289257,0.167,0.1652892561983471,1.31607170250871,1.3057851239669422,trial_list_0.5_red.csv,2.299721799994586,0.9967938000045251,4e-05,4e-05,1.1165387000073679,1.1496925000101328,1.3158741000224836,1.3491313999984413,1.9999205000058282,2.299721799994586,3.174514700018335,0.8747929000237491,2.299721799994586,2.499675200000638,3.6411131000204477,1.3413913000258617,0.4665984000021126,1.02541,-0.011788218622525786,-0.14735273278157232,None,0.03302,2.0330556000117213,ahmed_base_continued,001,2023-04-29_13h46.10.803,expectation_shapes_perceived_time,2022.2.4,119.83266566098743,
-233,0.5,none,red,green,1748.9878176727302,,,,,0,90,90,138,trial,,,,,,red,1.7489878176727303,1.7355371900826446,-0.233,-0.23140495867768596,1.4826578176727303,1.4710743801652892,trial_list_0.5_red.csv,2.299958100018557,0.9969812999770511,3e-05,3e-05,1.7493853000050876,1.7827606000064407,1.4835623000108171,1.5165751000167802,1.9997618999914266,2.299958100018557,2.5917387999943458,0.2917806999757886,2.299958100018557,2.4996868000016548,3.074914400000125,0.774956299981568,0.4831756000057794,0.9444,0.025689557955474486,-0.14557416174768872,None,0.03311,2.0332881000067573,ahmed_base_continued,001,2023-04-29_13h46.10.803,expectation_shapes_perceived_time,2022.2.4,119.83266566098743,
-100,0.5,none,green,red,343.0087953595006,,,,,0,91,91,235,trial,,,,,,green,0.3430087953595006,0.33884297520661155,-0.1,-0.09917355371900827,0.20967879535950062,0.2066115702479339,trial_list_0.5_red.csv,2.2998587999900337,0.9963563999917824,4e-05,4e-05,0.3414749999938067,0.3748446999816224,0.20835109998006374,0.24179869997897185,2.0000352999777533,2.2998587999900337,2.2998587999900337,0.0,2.2998587999900337,2.4994202999805566,3.216524599993136,0.916665800003102,0.916665800003102,0.3488,0.13145764388095577,0.06760678828163438,None,,,ahmed_base_continued,001,2023-04-29_13h46.10.803,expectation_shapes_perceived_time,2022.2.4,119.83266566098743,
100,0.5,none,green,red,1547.5386688645538,,,,,0,92,92,39,trial,,,,,,green,1.5475386688645538,1.5289256198347108,0.1,0.09917355371900827,1.6808686688645538,1.6611570247933884,trial_list_0.5_red.csv,2.300081000023056,0.997107600007439,6e-05,6e-05,1.5418457000050694,1.575165400019614,1.6753346000041347,1.7085288000234868,2.0002829000004567,2.300081000023056,2.966714400012279,0.6666333999892231,2.300081000023056,2.5000521000183653,4.3752734000154305,2.0751923999923747,1.4085590000031516,0.59382,0.14144944499745588,-0.04294001008851339,None,0.03357,2.0334865000040736,ahmed_base_continued,001,2023-04-29_13h46.10.803,expectation_shapes_perceived_time,2022.2.4,119.83266566098743,
-300,0.5,none,red,green,553.8635765851642,,,,,0,93,93,452,trial,,,,,,red,0.5538635765851642,0.5454545454545454,-0.3,-0.2975206611570248,0.2205335765851642,0.21487603305785125,trial_list_0.5_red.csv,2.2998532000056002,0.9970253999927081,4e-05,4e-05,0.5498654000111856,0.5833812000055332,0.21673380001448095,0.2501101999951061,2.0001509000139777,2.2998532000056002,2.4915942999941763,0.19174109998857602,2.2998532000056002,2.499787100008689,3.166199500003131,0.8663462999975309,0.6746052000089549,0.691,0.12199981576148215,-0.08347355815259305,None,,,ahmed_base_continued,001,2023-04-29_13h46.10.803,expectation_shapes_perceived_time,2022.2.4,119.83266566098743,
233,0.5,none,red,green,1172.827184632412,,,,,0,94,94,340,trial,,,,,,red,1.1728271846324119,1.1652892561983472,0.233,0.23140495867768596,1.4391571846324118,1.4214876033057853,trial_list_0.5_red.csv,2.300033400009852,0.9977216999977827,3e-05,3e-05,1.174947699997574,1.2083149000245612,1.4334747999964748,1.4666037000133656,2.0001396000152454,2.300033400009852,2.5750190000107978,0.27498560000094585,2.300033400009852,2.499864000012167,3.7662345000135247,1.4662011000036728,1.191215500002727,1.23727,-0.10026574519991245,-0.10862122396657181,None,0.0332,2.0335643000144046,ahmed_base_continued,001,2023-04-29_13h46.10.803,expectation_shapes_perceived_time,2022.2.4,119.83266566098743,
-167,0.5,none,green,red,710.2915798632205,,,,,0,95,95,425,trial,,,,,,green,0.7102915798632204,0.7024793388429752,-0.167,-0.1652892561983471,0.5099615798632204,0.5041322314049587,trial_list_0.5_red.csv,2.3004686000058427,0.9975293000170495,3e-05,3e-05,0.7084344000031706,0.7419116000237409,0.5086566000245512,0.5421077000210062,2.000114399997983,2.3004686000058427,2.6833472000143956,0.3828786000085529,2.3004686000058427,2.5001368000230286,3.725129600003129,1.4246609999972861,1.0417823999887332,0.98646,0.006284674616244259,-0.1476898534817401,None,0.03341,2.03344030000153,ahmed_base_continued,001,2023-04-29_13h46.10.803,expectation_shapes_perceived_time,2022.2.4,119.83266566098743,
167,0.5,none,red,green,388.4944868693156,,,,,0,96,96,416,trial,,,,,,red,0.3884944868693156,0.38842975206611574,0.167,0.1652892561983471,0.5888244868693155,0.5867768595041323,trial_list_0.5_red.csv,2.2999293000029866,0.9975014999799896,5e-05,5e-05,0.39184739999473095,0.4249603000062052,0.5918653999979142,0.6252546000177972,1.9999442000116687,2.2999293000029866,2.2999293000029866,0.0,2.2999293000029866,2.4999146000191104,3.299965800018981,1.0000365000159945,1.0000365000159945,0.67781,0.12535408533544046,-0.07834630333465029,None,,,ahmed_base_continued,001,2023-04-29_13h46.10.803,expectation_shapes_perceived_time,2022.2.4,119.83266566098743,
233,0.5,none,red,green,556.9204719265811,,,,,0,97,97,418,trial,,,,,,red,0.556920471926581,0.5537190082644629,0.233,0.23140495867768596,0.8232504719265811,0.8181818181818182,trial_list_0.5_red.csv,2.300329999998212,0.9966239999921527,4e-05,4e-05,0.5587794000166468,0.5920871999987867,0.82536240000627,0.8587331000017002,2.000418300012825,2.300329999998212,2.541876700008288,0.24154670001007617,2.300329999998212,2.5004093000025023,3.050214499991853,0.7498844999936409,0.5083377999835648,1.18186,-0.07993668492866801,-0.12434595433348358,None,,,ahmed_base_continued,001,2023-04-29_13h46.10.803,expectation_shapes_perceived_time,2022.2.4,119.83266566098743,
300,0.5,none,red,green,1375.0574095697823,,,,,0,98,98,410,trial,,,,,,red,1.3750574095697823,1.3636363636363638,0.3,0.2975206611570248,1.7083874095697822,1.694214876033058,trial_list_0.5_red.csv,2.3002433000074234,0.9969133999838959,3e-05,3e-05,1.375002000015229,1.4086070000194013,1.7083282000094187,1.7419303000206128,1.999883900018176,2.3002433000074234,2.774931000021752,0.4746877000143286,2.3002433000074234,2.500133800000185,3.116863600007491,0.8166203000000678,0.3419325999857392,1.12685,-0.057363947628850845,-0.13623937561852073,None,,2.0333210000244435,ahmed_base_continued,001,2023-04-29_13h46.10.803,expectation_shapes_perceived_time,2022.2.4,119.83266566098743,
-233,0.5,none,green,red,759.8087291992011,,,,,0,99,99,133,trial,,,,,,green,0.7598087291992012,0.7520661157024794,-0.233,-0.23140495867768596,0.49347872919920116,0.487603305785124,trial_list_0.5_red.csv,2.3000200999958906,0.9966950000089128,3e-05,3e-05,0.7583949000108987,0.7917144999955781,0.4915927000110969,0.5249995999911334,1.9998339999874588,2.3000200999958906,2.3084442999970634,0.008424200001172721,2.3000200999958906,2.500039500009734,3.0082955000107177,0.708275400014827,0.6998512000136543,0.96774,0.014955763017524326,-0.1470650030056559,None,0.0333,2.033165700006066,ahmed_base_continued,001,2023-04-29_13h46.10.803,expectation_shapes_perceived_time,2022.2.4,119.83266566098743,
100,0.5,none,red,green,1378.4619546340414,0,0,0,0,0,100,100,158,fam,0.5565835000015795,0.5565835000015795,270.0,2.5562765000213403,2.5562765000213403,,,,,,,,,,,,,,,,,,,,,,,,,,,,,,,,ahmed_base_continued,001,2023-04-29_13h46.10.803,expectation_shapes_perceived_time,2022.2.4,119.83266566098743,
100,0.5,none,red,green,1378.4619546340414,1,0,1,0,0,100,100,158,fam,0.4975800999964122,0.4975800999964122,270.0,2.497753500007093,2.497753500007093,,,,,,,,,,,,,,,,,,,,,,,,,,,,,,,,ahmed_base_continued,001,2023-04-29_13h46.10.803,expectation_shapes_perceived_time,2022.2.4,119.83266566098743,
100,0.5,none,red,green,1378.4619546340414,2,0,2,0,0,100,100,158,fam,0.497325100004673,0.497325100004673,270.0,2.4974557000095956,2.4974557000095956,,,,,,,,,,,,,,,,,,,,,,,,,,,,,,,,ahmed_base_continued,001,2023-04-29_13h46.10.803,expectation_shapes_perceived_time,2022.2.4,119.83266566098743,
100,0.5,none,red,green,1378.4619546340414,3,0,3,0,0,100,100,158,fam,0.4971058000228368,0.4971058000228368,270.0,2.497036200016737,2.497036200016737,,,,,,,,,,,,,,,,,,,,,,,,,,,,,,,,ahmed_base_continued,001,2023-04-29_13h46.10.803,expectation_shapes_perceived_time,2022.2.4,119.83266566098743,
100,0.5,none,red,green,1378.4619546340414,,,,,0,100,100,158,trial,,,,,,red,1.3784619546340413,1.3636363636363638,0.1,0.09917355371900827,1.5117919546340413,1.4958677685950414,trial_list_0.5_red.csv,2.2993376000085846,0.9985250000027008,7e-05,7e-05,1.3748705000034533,1.4083488000032958,1.5082582000177354,1.5415529000165407,1.9998800000175834,2.2993376000085846,2.2993376000085846,0.0,2.2993376000085846,2.4993624000053387,3.583135199995013,1.2837975999864284,1.2837975999864284,1.61616,-0.13809003751333296,0.0527534974770036,None,,,ahmed_base_continued,001,2023-04-29_13h46.10.803,expectation_shapes_perceived_time,2022.2.4,119.83266566098743,
-167,0.5,none,green,red,710.2255190398478,,,,,0,101,101,377,trial,,,,,,green,0.7102255190398478,0.7024793388429752,-0.167,-0.1652892561983471,0.5098955190398478,0.5041322314049587,trial_list_0.5_red.csv,2.3000413000117987,0.9975616000010632,4e-05,4e-05,0.7084287999896333,0.741626000002725,0.5083644000114873,0.5419649000104982,2.0001325999910478,2.3000413000117987,2.3000413000117987,0.0,2.3000413000117987,2.500074899988249,3.1499731999938376,0.8499318999820389,0.8499318999820389,1.0584,-0.026970726938092902,-0.14534225072194512,None,0.03353,2.0333609000081196,ahmed_base_continued,001,2023-04-29_13h46.10.803,expectation_shapes_perceived_time,2022.2.4,119.83266566098743,
300,0.5,none,red,green,935.956049693788,,,,,0,102,102,4,trial,,,,,,red,0.935956049693788,0.9256198347107438,0.3,0.2975206611570248,1.2692860496937879,1.256198347107438,trial_list_0.5_red.csv,2.299902300001122,0.997429299983196,6e-05,6e-05,0.9333741999871563,0.966836899984628,1.2673375000013039,1.3004964999854565,2.000345499982359,2.299902300001122,2.6333830999792553,0.3334807999781333,2.299902300001122,2.4999470000038855,3.1415144999918994,0.8416121999907773,0.508131400012644,0.94126,0.027125187239251964,-0.14531350306742125,None,0.03357,2.0336794999893755,ahmed_base_continued,001,2023-04-29_13h46.10.803,expectation_shapes_perceived_time,2022.2.4,119.83266566098743,
-33,0.5,none,red,green,1451.9901255132113,,,,,0,103,103,70,trial,,,,,,red,1.4519901255132113,1.43801652892562,-0.033,-0.03305785123966942,1.3856601255132113,1.371900826446281,trial_list_0.5_red.csv,2.300072700018063,0.9976891000114847,4e-05,4e-05,1.4500159000162967,1.4833350999979302,1.38330750001478,1.4166444000147749,2.00024600001052,2.300072700018063,2.5584087000170257,0.2583359999989625,2.300072700018063,2.5001448999973945,3.2001260000106413,0.9000532999925781,0.6417172999936156,1.40766,-0.14164729741631982,-0.04228277534815517,None,0.03342,2.0336473000061233,ahmed_base_continued,001,2023-04-29_13h46.10.803,expectation_shapes_perceived_time,2022.2.4,119.83266566098743,
-167,0.5,none,green,red,833.7655814432708,,,,,0,104,104,223,trial,,,,,,green,0.8337655814432707,0.8264462809917356,-0.167,-0.1652892561983471,0.6334355814432707,0.628099173553719,trial_list_0.5_red.csv,2.300498600001447,0.997096800012514,4e-05,4e-05,0.8333142999908887,0.8668176999781281,0.6333927999949083,0.6667653999757022,2.0001095999905374,2.300498600001447,2.3087823999812827,0.008283799979835749,2.300498600001447,2.500151399988681,3.049958199990215,0.7494595999887679,0.7411758000089321,0.55072,0.1459506405033433,-0.023456352938037314,None,0.03342,2.0334795999806374,ahmed_base_continued,001,2023-04-29_13h46.10.803,expectation_shapes_perceived_time,2022.2.4,119.83266566098743,
-33,0.5,none,red,green,1051.6337151566645,,,,,0,105,105,0,trial,,,,,,red,1.0516337151566646,1.0413223140495869,-0.033,-0.03305785123966942,0.9853037151566645,0.975206611570248,trial_list_0.5_red.csv,2.300073099992005,0.9972567000077106,4e-05,4e-05,1.049531599972397,1.082756399991922,0.9831238999904599,1.0163632999756373,2.000131099979626,2.300073099992005,2.57469239999773,0.27461930000572465,2.300073099992005,2.500185299984878,2.991289699974004,0.691216599981999,0.41659729997627437,1.04428,-0.02049541096161975,-0.14639579258299823,None,0.03332,2.0332060999935493,ahmed_base_continued,001,2023-04-29_13h46.10.803,expectation_shapes_perceived_time,2022.2.4,119.83266566098743,
100,0.5,none,green,red,1561.9821927049506,,,,,0,106,106,155,trial,,,,,,green,1.5619821927049506,1.5454545454545454,0.1,0.09917355371900827,1.6953121927049506,1.677685950413223,trial_list_0.5_red.csv,2.299389300023904,0.9976898000168148,4e-05,4e-05,1.5583349000080489,1.591400600009365,1.6915414000104647,1.724608000018634,1.9996381000091787,2.299389300023904,2.5745669000025373,0.2751775999786332,2.299389300023904,2.499864500015974,3.966420700016897,1.667031399992993,1.3918538000143599,1.56673,-0.14458705107071732,0.03076320235547177,None,0.03304,2.0329856000025757,ahmed_base_continued,001,2023-04-29_13h46.10.803,expectation_shapes_perceived_time,2022.2.4,119.83266566098743,
-33,0.5,none,red,green,259.8014596535179,,,,,0,107,107,268,trial,,,,,,red,0.2598014596535179,0.25619834710743805,-0.033,-0.03305785123966942,0.19347145965351792,0.19008264462809918,trial_list_0.5_red.csv,2.2995920999965165,0.9966587999952026,4e-05,4e-05,0.25839919998543337,0.291867199994158,0.1918428000062704,0.22495549998711795,1.9999252999841701,2.2995920999965165,2.2995920999965165,0.0,2.2995920999965165,2.499564800004009,3.191453100007493,0.8918610000109766,0.8918610000109766,0.46217,0.1467808796982755,0.01752607518785379,None,0.03336,2.0334982000058517,ahmed_base_continued,001,2023-04-29_13h46.10.803,expectation_shapes_perceived_time,2022.2.4,119.83266566098743,
-33,0.5,none,green,red,884.0618290376925,,,,,0,108,108,123,trial,,,,,,green,0.8840618290376925,0.8760330578512396,-0.033,-0.03305785123966942,0.8177318290376925,0.8099173553719008,trial_list_0.5_red.csv,2.3000062000064645,0.9966638000041712,3e-05,3e-05,0.8834951000171714,0.9168058000213932,0.8167350000003353,0.8500432000146247,2.000102899997728,2.3000062000064645,2.3000062000064645,0.0,2.3000062000064645,2.5001850000116974,4.083300700003747,1.7832944999972824,1.7832944999972824,1.03704,-0.017161244629025362,-0.1468239818261059,None,0.03327,2.0334493000118528,ahmed_base_continued,001,2023-04-29_13h46.10.803,expectation_shapes_perceived_time,2022.2.4,119.83266566098743,
-300,0.5,none,red,green,867.676803444177,,,,,0,109,109,270,trial,,,,,,red,0.8676768034441771,0.859504132231405,-0.3,-0.2975206611570248,0.534346803444177,0.5289256198347108,trial_list_0.5_red.csv,2.300377000006847,0.9973401000024751,3e-05,3e-05,0.8670049000065774,0.9001237000047695,0.5337455999979284,0.5667653999989852,2.0004925999965053,2.300377000006847,2.433425700000953,0.13304869999410585,2.300377000006847,2.500176100002136,3.4085526000126265,1.1081756000057794,0.9751269000116736,1.05072,-0.023456352938037314,-0.1459506405033433,None,,,ahmed_base_continued,001,2023-04-29_13h46.10.803,expectation_shapes_perceived_time,2022.2.4,119.83266566098743,
233,0.5,none,red,green,457.5646388076037,,,,,0,110,110,160,trial,,,,,,red,0.45756463880760373,0.4545454545454546,0.233,0.23140495867768596,0.7238946388076037,0.71900826446281,trial_list_0.5_red.csv,2.2998977999959607,0.9974729999958072,3e-05,3e-05,0.4585168000194244,0.4916908000013791,0.724890100012999,0.7582483000005595,2.0002533000078984,2.2998977999959607,2.2998977999959607,0.0,2.2998977999959607,2.4999105000169948,2.8831859000201803,0.5832881000242196,0.5832881000242196,0.80435,0.08524733413011963,-0.12076705668433615,None,0.03332,2.033578000002308,ahmed_base_continued,001,2023-04-29_13h46.10.803,expectation_shapes_perceived_time,2022.2.4,119.83266566098743,
300,0.5,none,red,green,488.16463596578063,,,,,0,111,111,492,trial,,,,,,red,0.48816463596578064,0.4793388429752066,0.3,0.2975206611570248,0.8214946359657808,0.8099173553719008,trial_list_0.5_red.csv,2.300105500005884,0.9965530000044964,3e-05,3e-05,0.48354899999685585,0.5170176000101492,0.8170083000150044,0.8503986000141595,1.9998340000165626,2.300105500005884,2.300105500005884,0.0,2.300105500005884,2.5000480000162497,3.3917976999946404,1.0916921999887563,1.0916921999887563,1.04635,-0.021451288461725695,-0.14625878496631156,None,,,ahmed_base_continued,001,2023-04-29_13h46.10.803,expectation_shapes_perceived_time,2022.2.4,119.83266566098743,
-100,0.5,none,red,green,840.3656412526774,,,,,0,112,112,132,trial,,,,,,red,0.8403656412526774,0.8347107438016529,-0.1,-0.09917355371900827,0.7070356412526774,0.7024793388429752,trial_list_0.5_red.csv,2.300131700001657,0.9969503999745939,3e-05,3e-05,0.8415021999971941,0.8751035000022966,0.7083290000155102,0.7415430000110064,2.0003377000102773,2.300131700001657,2.450108699995326,0.14997699999366887,2.300131700001657,2.5001685000024736,3.0916266000131145,0.7914949000114575,0.6415179000177886,0.69302,0.12146876229312739,-0.08424446417103995,None,0.03316,2.0337140999909025,ahmed_base_continued,001,2023-04-29_13h46.10.803,expectation_shapes_perceived_time,2022.2.4,119.83266566098743,
-167,0.5,none,red,green,903.8539143483322,,,,,0,113,113,48,trial,,,,,,red,0.9038539143483322,0.8925619834710744,-0.167,-0.1652892561983471,0.7035239143483322,0.6942148760330579,trial_list_0.5_red.csv,2.30035560001852,0.9974212999804877,4e-05,4e-05,0.8999107000126969,0.9334640000015497,0.7002055000048131,0.7331596000003628,1.999888699996518,2.30035560001852,2.499929700017674,0.199574099999154,2.30035560001852,2.499929700017674,3.358117099996889,1.057761499978369,0.8581873999792151,0.78522,0.0923446142874532,-0.11543076785931652,None,0.03341,2.0332725000043865,ahmed_base_continued,001,2023-04-29_13h46.10.803,expectation_shapes_perceived_time,2022.2.4,119.83266566098743,
233,0.5,none,red,green,1376.7956006301313,,,,,0,114,114,386,trial,,,,,,red,1.3767956006301312,1.3636363636363638,0.233,0.23140495867768596,1.6431256006301311,1.6280991735537191,trial_list_0.5_red.csv,2.3002826999872923,0.997419399995124,4e-05,4e-05,1.3753141999768559,1.4088517999916803,1.6421478999836836,1.6749226999818347,1.9996532999794,2.3002826999872923,2.675175299984403,0.37489259999711066,2.3002826999872923,2.500215899985051,3.1915117999888025,0.8912291000015102,0.5163365000043996,1.25,-0.10452700597570448,-0.10452700597570448,None,0.03322,2.032982799981255,ahmed_base_continued,001,2023-04-29_13h46.10.803,expectation_shapes_perceived_time,2022.2.4,119.83266566098743,
-167,0.5,none,red,green,333.1879832955798,,,,,0,115,115,184,trial,,,,,,red,0.3331879832955798,0.3305785123966942,-0.167,-0.1652892561983471,0.1328579832955798,0.1322314049586777,trial_list_0.5_red.csv,2.2998984000005294,0.9973151000158396,3e-05,3e-05,0.33327480001025833,0.36640369999804534,0.13326400000369176,0.1666731000004802,1.999837600014871,2.2998984000005294,2.2998984000005294,0.0,2.2998984000005294,2.499990999989677,3.641893499996513,1.3419950999959838,1.3419950999959838,0.15012,0.06716007600952231,0.13168642354808296,None,0.03339,2.0335636000090744,ahmed_base_continued,001,2023-04-29_13h46.10.803,expectation_shapes_perceived_time,2022.2.4,119.83266566098743,
300,0.5,none,red,green,1203.3474528645456,,,,,0,116,116,474,trial,,,,,,red,1.2033474528645456,1.1900826446280992,0.3,0.2975206611570248,1.5366774528645455,1.5206611570247934,trial_list_0.5_red.csv,2.3000025000073947,0.9974707000073977,4e-05,4e-05,1.1999329999962356,1.2334273000014946,1.5333423999836668,1.5667785999830812,2.000127599982079,2.3000025000073947,2.574851299985312,0.2748487999779172,2.3000025000073947,2.5002264000067953,3.5581629000080284,1.2581604000006337,0.9833116000227164,1.31077,-0.12246329977501694,-0.08279208998874385,None,0.03356,2.033346599986544,ahmed_base_continued,001,2023-04-29_13h46.10.803,expectation_shapes_perceived_time,2022.2.4,119.83266566098743,
100,0.5,none,red,green,689.566929659055,,,,,0,117,117,232,trial,,,,,,red,0.689566929659055,0.6859504132231405,0.1,0.09917355371900827,0.822896929659055,0.8181818181818182,trial_list_0.5_red.csv,2.299980699986918,0.9975901999860071,4e-05,4e-05,0.6917399999802001,0.7251417999796104,0.8251369999779854,0.8584662000066601,1.9996955999813508,2.299980699986918,2.299980699986918,0.0,2.299980699986918,2.5002389999863226,3.2833109000057448,0.9833302000188269,0.9833302000188269,0.62112,0.1372506829217666,-0.05490027316870664,None,0.03345,2.0331792999932077,ahmed_base_continued,001,2023-04-29_13h46.10.803,expectation_shapes_perceived_time,2022.2.4,119.83266566098743,
-167,0.5,none,red,green,1481.899154433213,,,,,0,118,118,382,trial,,,,,,red,1.481899154433213,1.4710743801652892,-0.167,-0.1652892561983471,1.281569154433213,1.2727272727272727,trial_list_0.5_red.csv,2.299431599996751,0.998025199980475,6e-05,6e-05,1.4830050999880768,1.5160595999914221,1.2828611999866553,1.3160321999748703,1.9996447000012267,2.299431599996751,2.299431599996751,0.0,2.299431599996751,2.49943539997912,3.665949099988211,1.3665174999914598,1.3665174999914598,0.8937,0.04845251113692866,-0.13965723798291202,None,0.033,2.0329445999814197,ahmed_base_continued,001,2023-04-29_13h46.10.803,expectation_shapes_perceived_time,2022.2.4,119.83266566098743,
100,0.5,none,green,red,1679.8830902696145,,,,,0,119,119,405,trial,,,,,,green,1.6798830902696145,1.6611570247933884,0.1,0.09917355371900827,1.8132130902696144,1.7933884297520661,trial_list_0.5_red.csv,2.3002777000074275,0.9972111999813933,3e-05,3e-05,1.675185700005386,1.7084646000002977,1.8085999000177253,1.841999800002668,2.0003847000189126,2.3002777000074275,2.475172800011933,0.17489510000450537,2.3002777000074275,2.5002739000192378,3.316905100014992,1.0166274000075646,0.8417323000030592,1.77801,-0.09493519395210584,0.11330974762025536,None,0.03355,2.0335828000097536,ahmed_base_continued,001,2023-04-29_13h46.10.803,expectation_shapes_perceived_time,2022.2.4,119.83266566098743,
-167,0.5,none,green,red,806.5204874515971,,,,,0,120,120,197,trial,,,,,,green,0.8065204874515971,0.8016528925619835,-0.167,-0.1652892561983471,0.6061904874515971,0.6033057851239669,trial_list_0.5_red.csv,2.300090100005036,0.9963380999979563,3e-05,3e-05,0.8080689000198618,0.8415183000033721,0.6084017000102904,0.6416972000151873,1.9998560000094585,2.300090100005036,2.3500392000132706,0.04994910000823438,2.300090100005036,2.499943100003293,3.458372299995972,1.1582821999909356,1.1083330999827012,0.86047,0.06274130512878735,-0.13384811760807966,None,,,ahmed_base_continued,001,2023-04-29_13h46.10.803,expectation_shapes_perceived_time,2022.2.4,119.83266566098743,
233,0.5,none,red,green,1056.3364249451413,,,,,0,121,121,388,trial,,,,,,red,1.0563364249451412,1.0495867768595042,0.233,0.23140495867768596,1.3226664249451412,1.3057851239669422,trial_list_0.5_red.csv,2.300282700016396,0.9970931000134442,3e-05,3e-05,1.0580594000057317,1.0913855000108015,1.316866300010588,1.350436400010949,2.0000665000115987,2.300282700016396,2.300282700016396,0.0,2.300282700016396,2.4999027000158094,3.199940799997421,0.8996580999810249,0.8996580999810249,0.83973,0.0713231498966361,-0.12947894904312401,None,,,ahmed_base_continued,001,2023-04-29_13h46.10.803,expectation_shapes_perceived_time,2022.2.4,119.83266566098743,
-233,0.5,none,red,green,406.2858127059079,,,,,0,122,122,442,trial,,,,,,red,0.4062858127059079,0.4049586776859504,-0.233,-0.23140495867768596,0.13995581270590793,0.14049586776859505,trial_list_0.5_red.csv,2.2997426000074483,0.9969653000007384,4e-05,4e-05,0.4083587000204716,0.44166030001360923,0.14209680000203662,0.1749353000195697,2.0000437000126112,2.2997426000074483,2.2997426000074483,0.0,2.2997426000074483,2.4997189000132494,3.0914236000098754,0.791681000002427,0.791681000002427,0.53878,0.1467276034440915,-0.017966645319684674,None,,,ahmed_base_continued,001,2023-04-29_13h46.10.803,expectation_shapes_perceived_time,2022.2.4,119.83266566098743,
33,0.5,none,green,red,408.4174087207186,,,,,0,123,123,215,trial,,,,,,green,0.4084174087207186,0.4049586776859504,0.033,0.03305785123966942,0.4747474087207186,0.47107438016528924,trial_list_0.5_red.csv,2.299899400008144,0.997557800001232,3e-05,3e-05,0.40842150000389665,0.4418283999839332,0.4749043000047095,0.5084180999838281,2.00024530000519,2.299899400008144,2.299899400008144,0.0,2.299899400008144,2.4995850999839604,3.0082323999959044,0.7083329999877606,0.7083329999877606,0.39758,0.14023769450772117,0.04674589816924039,None,,,ahmed_base_continued,001,2023-04-29_13h46.10.803,expectation_shapes_perceived_time,2022.2.4,119.83266566098743,
-300,0.5,none,red,green,626.5160018575941,,,,,0,124,124,306,trial,,,,,,red,0.6265160018575942,0.6198347107438017,-0.3,-0.2975206611570248,0.29318600185759414,0.2892561983471075,trial_list_0.5_red.csv,2.300150199997006,0.9972014999948442,3e-05,3e-05,0.6248965999984648,0.6582203999860212,0.2918645000027027,0.32492369998362847,1.999976399994921,2.300150199997006,2.300150199997006,0.0,2.300150199997006,2.500035499979276,3.3082565999939106,1.0081063999969047,1.0081063999969047,0.47222,0.14726085144727855,0.012885324501636871,None,,,ahmed_base_continued,001,2023-04-29_13h46.10.803,expectation_shapes_perceived_time,2022.2.4,119.83266566098743,
300,0.5,none,red,green,840.7713264620493,0,0,0,0,0,125,125,58,fam,0.5564733000064734,0.5564733000064734,270.0,2.5562506999995094,2.5562506999995094,,,,,,,,,,,,,,,,,,,,,,,,,,,,,,,,ahmed_base_continued,001,2023-04-29_13h46.10.803,expectation_shapes_perceived_time,2022.2.4,119.83266566098743,
300,0.5,none,red,green,840.7713264620493,1,0,1,0,0,125,125,58,fam,0.4970434000133537,0.4970434000133537,270.0,2.497248600004241,2.497248600004241,,,,,,,,,,,,,,,,,,,,,,,,,,,,,,,,ahmed_base_continued,001,2023-04-29_13h46.10.803,expectation_shapes_perceived_time,2022.2.4,119.83266566098743,
300,0.5,none,red,green,840.7713264620493,2,0,2,0,0,125,125,58,fam,0.49863359998562373,0.49863359998562373,270.0,2.498815300001297,2.498815300001297,,,,,,,,,,,,,,,,,,,,,,,,,,,,,,,,ahmed_base_continued,001,2023-04-29_13h46.10.803,expectation_shapes_perceived_time,2022.2.4,119.83266566098743,
300,0.5,none,red,green,840.7713264620493,3,0,3,0,0,125,125,58,fam,0.4978760000085458,0.4978760000085458,270.0,2.497599499998614,2.497599499998614,,,,,,,,,,,,,,,,,,,,,,,,,,,,,,,,ahmed_base_continued,001,2023-04-29_13h46.10.803,expectation_shapes_perceived_time,2022.2.4,119.83266566098743,
300,0.5,none,red,green,840.7713264620493,,,,,0,125,125,58,trial,,,,,,red,0.8407713264620493,0.8347107438016529,0.3,0.2975206611570248,1.1741013264620492,1.1652892561983472,trial_list_0.5_red.csv,2.2998425000114366,0.9985336000099778,3e-05,3e-05,0.8418844999978319,0.8749102000147104,1.1749223000078928,1.2083152999985032,1.9998439000046346,2.2998425000114366,2.2998425000114366,0.0,2.2998425000114366,2.499735800025519,3.4251839000207838,1.1253414000093471,1.1253414000093471,1.12888,-0.05823053316987949,-0.13587124406305215,None,0.03294,2.0332357000152115,ahmed_base_continued,001,2023-04-29_13h46.10.803,expectation_shapes_perceived_time,2022.2.4,119.83266566098743,
167,0.5,none,red,green,1453.314764597484,,,,,0,126,126,86,trial,,,,,,red,1.4533147645974842,1.43801652892562,0.167,0.1652892561983471,1.653644764597484,1.6363636363636365,trial_list_0.5_red.csv,2.3007391999999527,0.9966562000045087,2e-05,2e-05,1.4503061999857891,1.483709699998144,1.6503547999891452,1.683567599975504,2.0004632999771275,2.3007391999999527,2.3007391999999527,0.0,2.3007391999999527,2.500206299999263,3.000093399983598,0.6993541999836452,0.6993541999836452,1.26344,-0.10884651824852105,-0.10002112487701935,None,,,ahmed_base_continued,001,2023-04-29_13h46.10.803,expectation_shapes_perceived_time,2022.2.4,119.83266566098743,
33,0.5,none,green,red,1319.2062938850197,,,,,0,127,127,119,trial,,,,,,green,1.3192062938850198,1.3057851239669422,0.033,0.03305785123966942,1.3855362938850195,1.371900826446281,trial_list_0.5_red.csv,2.299801799992565,0.9978607000084594,3e-05,3e-05,1.3165665999986231,1.350010199996177,1.3833139999769628,1.416671299986774,2.0000683999969624,2.299801799992565,2.299801799992565,0.0,2.299801799992565,2.4999072999926284,3.1666351999738254,0.8668333999812603,0.8668333999812603,1.25723,-0.10687502129130819,-0.10212502034502782,None,,,ahmed_base_continued,001,2023-04-29_13h46.10.803,expectation_shapes_perceived_time,2022.2.4,119.83266566098743,
100,0.5,none,red,green,945.9564994504336,,,,,0,128,128,438,trial,,,,,,red,0.9459564994504336,0.9338842975206612,0.1,0.09917355371900827,1.0792864994504334,1.0661157024793388,trial_list_0.5_red.csv,2.300597099994775,0.9971091999905184,3e-05,3e-05,0.9418264999985695,0.9749160000064876,1.0750438999966718,1.108249100012472,2.0008091000199784,2.300597099994775,2.300597099994775,0.0,2.300597099994775,2.5003635000030044,3.4836322000192013,1.1830351000244264,1.1830351000244264,1.22006,-0.09424749702292864,-0.11388239223603877,None,0.03328,2.0340587999962736,ahmed_base_continued,001,2023-04-29_13h46.10.803,expectation_shapes_perceived_time,2022.2.4,119.83266566098743,
233,0.5,none,red,green,265.66182184636153,,,,,0,129,129,102,trial,,,,,,red,0.26566182184636156,0.2644628099173554,0.233,0.23140495867768596,0.5319918218463615,0.5289256198347108,trial_list_0.5_red.csv,2.300160799990408,0.9966354999924079,4e-05,4e-05,0.26640429999679327,0.2996988999948371,0.532878800004255,0.5662410999939311,2.000201599992579,2.300160799990408,2.300160799990408,0.0,2.300160799990408,2.500505300005898,3.0917017000028864,0.7915409000124782,0.7915409000124782,0.4825,0.14760006098897355,0.008124773999393039,None,,,ahmed_base_continued,001,2023-04-29_13h46.10.803,expectation_shapes_perceived_time,2022.2.4,119.83266566098743,
100,0.5,none,red,green,1497.438700847606,,,,,0,130,130,320,trial,,,,,,red,1.497438700847606,1.4793388429752066,0.1,0.09917355371900827,1.630768700847606,1.6115702479338843,trial_list_0.5_red.csv,2.2998434999899473,0.9975812999764457,4e-05,4e-05,1.4914420999994036,1.5247103000001516,1.624909000005573,1.6581641999946442,1.9998345999920275,2.2998434999899473,2.308190100011416,0.008346600021468475,2.2998434999899473,2.499630400008755,3.2578087000001688,0.9579652000102215,0.949618599988753,1.58237,-0.14290175942007696,0.037826936317079195,None,,,ahmed_base_continued,001,2023-04-29_13h46.10.803,expectation_shapes_perceived_time,2022.2.4,119.83266566098743,
167,0.5,none,green,red,1223.1918897811056,,,,,0,131,131,301,trial,,,,,,green,1.2231918897811056,1.2148760330578512,0.167,0.1652892561983471,1.4235218897811055,1.4132231404958677,trial_list_0.5_red.csv,2.299778399989009,0.9967665000003763,3e-05,3e-05,1.2251302999793552,1.2583773999940604,1.4250916999881156,1.458612299989909,1.9994735999789555,2.299778399989009,2.308220099977916,0.008441699988907203,2.299778399989009,2.500041399995098,2.8248539999767672,0.5250755999877583,0.5166338999988511,1.36209,-0.13416426747779422,-0.0620623822346259,None,,,ahmed_base_continued,001,2023-04-29_13h46.10.803,expectation_shapes_perceived_time,2022.2.4,119.83266566098743,
-100,0.5,none,red,green,1006.1712505937954,,,,,0,132,132,10,trial,,,,,,red,1.0061712505937954,1.0,-0.1,-0.09917355371900827,0.8728412505937954,0.8677685950413223,trial_list_0.5_red.csv,2.3001133000070695,0.9965511999907903,6e-05,6e-05,1.0084284000040498,1.041884400008712,0.8750921000028029,0.9085281000006944,2.000104900012957,2.3001133000070695,2.3001133000070695,0.0,2.3001133000070695,2.5002823999966495,3.124663700000383,0.8245503999933135,0.8245503999933135,0.64526,0.13269637654434027,-0.0651418575763125,None,0.03342,2.033763999992516,ahmed_base_continued,001,2023-04-29_13h46.10.803,expectation_shapes_perceived_time,2022.2.4,119.83266566098743,
-100,0.5,none,green,red,343.7735246839316,,,,,0,133,133,189,trial,,,,,,green,0.34377352468393163,0.33884297520661155,-0.1,-0.09917355371900827,0.21044352468393163,0.2066115702479339,trial_list_0.5_red.csv,2.2997601000242867,0.9985664999985602,4e-05,4e-05,0.3415153000096325,0.3748255000100471,0.20837810001103207,0.2417528000078164,1.9998738000285812,2.2997601000242867,2.30812890001107,0.008368799986783415,2.2997601000242867,2.499994500016328,3.9744915000046603,1.6747313999803737,1.6663625999935903,0.27151,0.11134562088330739,0.09723138725021208,None,,,ahmed_base_continued,001,2023-04-29_13h46.10.803,expectation_shapes_perceived_time,2022.2.4,119.83266566098743,
167,0.5,none,red,green,1199.5532519902572,,,,,0,134,134,170,trial,,,,,,red,1.1995532519902572,1.1900826446280992,0.167,0.1652892561983471,1.399883251990257,1.3884297520661157,trial_list_0.5_red.csv,2.2999410000047646,0.9977483999973629,3e-05,3e-05,1.2001119999913499,1.2333684999903198,1.4000259999884292,1.433416899992153,2.00015340000391,2.2999410000047646,2.2999410000047646,0.0,2.2999410000047646,2.499583900003927,3.9914327999867965,1.6914917999820318,1.6914917999820318,1.28173,-0.1144090841598405,-0.09360743249441497,None,0.03339,2.033400199987227,ahmed_base_continued,001,2023-04-29_13h46.10.803,expectation_shapes_perceived_time,2022.2.4,119.83266566098743,
-233,0.5,none,green,red,1697.026183406876,,,,,0,135,135,291,trial,,,,,,green,1.697026183406876,1.677685950413223,-0.233,-0.23140495867768596,1.430696183406876,1.4132231404958677,trial_list_0.5_red.csv,2.300089800002752,0.997717400023248,4e-05,4e-05,1.6916913999884855,1.7251008999883197,1.4252485999895725,1.4583282999810763,2.0001523999962956,2.300089800002752,2.300089800002752,0.0,2.300089800002752,2.499876099987887,3.1497478999954183,0.8496580999926664,0.8496580999926664,1.26704,-0.10996898018942276,-0.09878569406846452,None,0.0333,2.033443399996031,ahmed_base_continued,001,2023-04-29_13h46.10.803,expectation_shapes_perceived_time,2022.2.4,119.83266566098743,
