delay,expectation,congruency,stim_color,distractor_color,targetTimeMs,famLoop.thisRepN,famLoop.thisTrialN,famLoop.thisN,famLoop.thisIndex,trialss.thisRepN,trialss.thisTrialN,trialss.thisN,trialss.thisIndex,isTrial,handMove.started,audioCue2Start.started,handOri,handMove.ended,audioCue2End.started,target_color,expected_target_onset,expected_target_onset_in_frames,expected_delay,expected_delays_frame,expected_distractor,expected_distractor_frame,expBlockFiles,fixationPoint.started,fixationPoint.stopped,audCueStart.started,placeholder.started,audCueStart.stopped,target.started,target.stopped,distractor.started,distractor.stopped,audCueEnd.started,audCueEnd.stopped,responsePointer.started,cueForRep.started,space2pass.started,responseStarted,rtUntillMotionTreshold,responsePointer.stopped,rTAfterMotionTreshold,rtDurationBtwRespMotion,perceivedTime,resp_x_coord,resp_y_coord,space2pass.keys,participant,session,date,expName,psychopyVersion,frameRate,
,,,,,,0,0,0,0,0,-1,-1,0,fam,0.5566285999957472,0.5566285999957472,270.0,2.556627199985087,2.556627199985087,,,,,,,,,,,,,,,,,,,,,,,,,,,,,,,,ahmed_high0_cont,001,2023-04-29_14h47.24.687,expectation_shapes_perceived_time,2022.2.4,119.99587212453673,
,,,,,,1,0,1,0,0,-1,-1,0,fam,0.49777740001445636,0.49777740001445636,270.0,2.497499000019161,2.497499000019161,,,,,,,,,,,,,,,,,,,,,,,,,,,,,,,,ahmed_high0_cont,001,2023-04-29_14h47.24.687,expectation_shapes_perceived_time,2022.2.4,119.99587212453673,
,,,,,,2,0,2,0,0,-1,-1,0,fam,0.4971658000140451,0.4971658000140451,270.0,2.4975345999991987,2.4975345999991987,,,,,,,,,,,,,,,,,,,,,,,,,,,,,,,,ahmed_high0_cont,001,2023-04-29_14h47.24.687,expectation_shapes_perceived_time,2022.2.4,119.99587212453673,
,,,,,,3,0,3,0,0,-1,-1,0,fam,0.4970037000020966,0.4970037000020966,270.0,2.4973693000210915,2.4973693000210915,,,,,,,,,,,,,,,,,,,,,,,,,,,,,,,,ahmed_high0_cont,001,2023-04-29_14h47.24.687,expectation_shapes_perceived_time,2022.2.4,119.99587212453673,
,,,,,,0,0,0,0,0,-1,-1,0,fam,0.556523199978983,0.556523199978983,270.0,2.556729899981292,2.556729899981292,,,,,,,,,,,,,,,,,,,,,,,,,,,,,,,,ahmed_high0_cont,001,2023-04-29_14h47.24.687,expectation_shapes_perceived_time,2022.2.4,119.99587212453673,
,,,,,,1,0,1,0,0,-1,-1,0,fam,0.49701890000142157,0.49701890000142157,270.0,2.4971760000044014,2.4971760000044014,,,,,,,,,,,,,,,,,,,,,,,,,,,,,,,,ahmed_high0_cont,001,2023-04-29_14h47.24.687,expectation_shapes_perceived_time,2022.2.4,119.99587212453673,
,,,,,,2,0,2,0,0,-1,-1,0,fam,0.49894710001535714,0.49894710001535714,270.0,2.49888580001425,2.49888580001425,,,,,,,,,,,,,,,,,,,,,,,,,,,,,,,,ahmed_high0_cont,001,2023-04-29_14h47.24.687,expectation_shapes_perceived_time,2022.2.4,119.99587212453673,
,,,,,,3,0,3,0,0,-1,-1,0,fam,0.4973126999975648,0.4973126999975648,270.0,2.4974143999861553,2.4974143999861553,,,,,,,,,,,,,,,,,,,,,,,,,,,,,,,,ahmed_high0_cont,001,2023-04-29_14h47.24.687,expectation_shapes_perceived_time,2022.2.4,119.99587212453673,
233,0.1999999999999999,unmet,red,green,861.589684558267,,,,,0,0,0,309,trial,,,,,,red,0.861589684558267,0.8583333333333333,0.233,0.23333333333333334,1.1279196845582669,1.125,trial_list_0.8_green.csv,2.2993690999865066,0.9983207999903243,3e-05,3e-05,0.03311,0.8584564999910071,0.8918115999840666,1.1249484999862034,1.1584178000048269,1.9998812999983784,2.033363599999575,2.2993690999865066,2.2993690999865066,2.4993287000106648,3.016606999997748,0.7172379000112414,3.6747482999926433,1.3753792000061367,0.6581412999948952,0.92202,0.035852467268031776,-0.1434098690721271,None,ahmed_high0_cont,001,2023-04-29_14h47.24.687,expectation_shapes_perceived_time,2022.2.4,119.99587212453673,
-33,0.8,met,green,red,489.8115719991358,,,,,0,1,1,98,trial,,,,,,green,0.48981157199913583,0.49166666666666664,-0.033,-0.03333333333333333,0.42348157199913583,0.425,trial_list_0.8_green.csv,2.299743199982913,0.9968987999891397,4e-05,4e-05,,0.4914654000021983,0.5246356999850832,0.42495399998733774,0.4584450999973342,1.9997061000030953,,2.299743199982913,2.299743199982913,2.50008239998715,2.399746299983235,0.10000310000032187,3.0331615999748465,0.7334183999919333,0.6334152999916114,0.62888,0.13587124406305215,-0.05823053316987949,None,ahmed_high0_cont,001,2023-04-29_14h47.24.687,expectation_shapes_perceived_time,2022.2.4,119.99587212453673,
-100,0.8,met,green,red,1814.526736584696,,,,,0,2,2,154,trial,,,,,,green,1.814526736584696,1.8166666666666667,-0.1,-0.1,1.681196736584696,1.6833333333333333,trial_list_0.8_green.csv,2.299820999993244,0.9969656000030227,4e-05,4e-05,0.03327,1.8163595999940298,1.8496509999968112,1.6829185000096913,1.7163569999975152,1.9995524999976624,2.033059100009268,2.299820999993244,2.299820999993244,2.499696600018069,2.399456300016027,0.09963530002278276,3.1163301000196952,0.816509100026451,0.7168738000036683,1.67017,-0.1271984918332827,0.07531489648023318,None,ahmed_high0_cont,001,2023-04-29_14h47.24.687,expectation_shapes_perceived_time,2022.2.4,119.99587212453673,
-233,0.8,met,green,red,1740.408703372748,,,,,0,3,3,2,trial,,,,,,green,1.740408703372748,1.7416666666666667,-0.233,-0.23333333333333334,1.474078703372748,1.475,trial_list_0.8_green.csv,2.3000581999949645,0.9983657999837305,4e-05,4e-05,,1.7415066999965347,1.7750289000105113,1.4748150999948848,1.5084533999906853,1.9998211000056472,,2.3000581999949645,2.3000581999949645,2.4997906000062358,2.841569000011077,0.5415108000161126,3.799632800015388,1.4995746000204235,0.9580638000043109,1.45411,-0.14629024512867636,-0.02123568074448528,None,ahmed_high0_cont,001,2023-04-29_14h47.24.687,expectation_shapes_perceived_time,2022.2.4,119.99587212453673,
100,0.8,met,green,red,1593.2261966569522,,,,,0,4,4,202,trial,,,,,,green,1.593226196656952,1.5916666666666666,0.1,0.1,1.726556196656952,1.7249999999999999,trial_list_0.8_green.csv,2.3001917999936268,0.9974231999949552,3e-05,3e-05,,1.5916188999835867,1.625055100012105,1.724960799998371,1.7583161999937147,1.999967200012179,,2.3001917999936268,2.3001917999936268,2.500203900010092,2.5750700999924447,0.27487829999881797,3.616948799986858,1.3167569999932311,1.0418786999944132,1.56387,-0.14485767649047226,0.029462578269248595,None,ahmed_high0_cont,001,2023-04-29_14h47.24.687,expectation_shapes_perceived_time,2022.2.4,119.99587212453673,
233,0.8,met,green,red,478.48659172839217,,,,,0,5,5,464,trial,,,,,,green,0.4784865917283922,0.475,0.233,0.23333333333333334,0.7448165917283922,0.7416666666666667,trial_list_0.8_green.csv,2.299932900001295,0.9963836999959312,2e-05,2e-05,0.03346,0.47499890002654865,0.5084367000090424,0.7416098000248894,0.7749897000030614,2.000037300022086,2.033321100025205,2.299932900001295,2.299932900001295,2.500047400011681,2.47507260000566,0.1751397000043653,2.9166726000257768,0.6167397000244819,0.44160000002011657,1.04439,-0.020545786824496554,-0.14638873112453793,None,ahmed_high0_cont,001,2023-04-29_14h47.24.687,expectation_shapes_perceived_time,2022.2.4,119.99587212453673,
167,0.8,met,green,red,308.8889048631649,,,,,0,6,6,261,trial,,,,,,green,0.3088889048631649,0.30833333333333335,0.167,0.16666666666666666,0.5092189048631649,0.5083333333333333,trial_list_0.8_green.csv,2.3165477000002284,0.9981122000026517,2e-05,2e-05,0.03321,0.30826130000059493,0.3415019999956712,0.5081592999922577,0.5414314999943599,1.9997861000010744,2.0332807000086177,2.3165477000002284,2.3165477000002284,2.5166012000117917,2.3165477000002284,0.0,2.949849800002994,0.6333021000027657,0.6333021000027657,0.88194,0.05357807832367567,-0.13777220140373744,None,ahmed_high0_cont,001,2023-04-29_14h47.24.687,expectation_shapes_perceived_time,2022.2.4,119.99587212453673,
33,0.1999999999999999,unmet,red,green,458.7677532440959,,,,,0,7,7,41,trial,,,,,,red,0.4587677532440959,0.4583333333333333,0.033,0.03333333333333333,0.5250977532440959,0.525,trial_list_0.8_green.csv,2.3000450000108685,0.9973207000002731,3e-05,3e-05,0.03333,0.4583186999952886,0.4917687000124715,0.5250371999864001,0.5582257999922149,2.0000020999868866,2.0333410000021104,2.3000450000108685,2.3000450000108685,2.4997332000057213,2.3000450000108685,0.0,2.8250041999854147,0.5249591999745462,0.5249591999745462,1.04712,-0.021802768859780143,-0.14620680294205507,None,ahmed_high0_cont,001,2023-04-29_14h47.24.687,expectation_shapes_perceived_time,2022.2.4,119.99587212453673,
-100,0.8,met,green,red,373.58239112836617,,,,,0,8,8,191,trial,,,,,,green,0.37358239112836616,0.375,-0.1,-0.1,0.2402523911283662,0.24166666666666667,trial_list_0.8_green.csv,2.2999428000184707,0.9974530000181403,3e-05,3e-05,0.0333,0.37496939999982715,0.40836230001877993,0.24171020000358112,0.27500950000830926,2.00014899999951,2.033432200027164,2.2999428000184707,2.2999428000184707,2.500028200011002,2.408417200000258,0.10847439998178743,3.3498450000188313,1.0499022000003606,0.9414278000185732,0.55463,0.14565168949928636,-0.025246292846542968,None,ahmed_high0_cont,001,2023-04-29_14h47.24.687,expectation_shapes_perceived_time,2022.2.4,119.99587212453673,
233,0.8,met,green,red,1233.1411314896934,,,,,0,9,9,394,trial,,,,,,green,1.2331411314896934,1.2333333333333334,0.233,0.23333333333333334,1.4994711314896934,1.5,trial_list_0.8_green.csv,2.3000378999859095,0.9982656000065617,3e-05,3e-05,0.03343,1.2336291999963578,1.2668423999857623,1.49992019997444,1.5335207999742124,2.0001432999852113,2.033544699981576,2.3000378999859095,2.3000378999859095,2.4999564999889117,2.616731299989624,0.3166934000037145,3.2917078999744263,0.9916699999885168,0.6749765999848023,0.71315,0.1159004053690722,-0.09175448758384883,None,ahmed_high0_cont,001,2023-04-29_14h47.24.687,expectation_shapes_perceived_time,2022.2.4,119.99587212453673,
33,0.8,met,green,red,292.40890859331057,,,,,0,10,10,373,trial,,,,,,green,0.2924089085933106,0.2916666666666667,0.033,0.03333333333333333,0.35873890859331053,0.35833333333333334,trial_list_0.8_green.csv,2.30045079998672,0.9968063999840524,1e-05,1e-05,,0.29229949999717064,0.32558829998015426,0.35877169997547753,0.3921146999928169,2.0004185999860056,,2.30045079998672,2.30045079998672,2.500290899974061,2.30045079998672,0.0,3.233530099998461,0.933079300011741,0.933079300011741,0.36361,0.13445963682457843,0.06141983410505435,None,ahmed_high0_cont,001,2023-04-29_14h47.24.687,expectation_shapes_perceived_time,2022.2.4,119.99587212453673,
100,0.8,met,green,red,880.5366574874749,,,,,0,11,11,225,trial,,,,,,green,0.8805366574874749,0.8833333333333333,0.1,0.1,1.013866657487475,1.0166666666666666,trial_list_0.8_green.csv,2.3000189999875147,0.997921200003475,4e-05,4e-05,0.0331,0.882964099990204,0.9162219999998342,1.0161934999923687,1.0497396999853663,1.9998265999893192,2.033003499993356,2.3000189999875147,2.3000189999875147,2.4999507000029553,2.4083487000025343,0.10832970001501963,3.016259199997876,0.7162402000103611,0.6079104999953415,0.64446,0.13285910584954494,-0.0648093199266073,None,ahmed_high0_cont,001,2023-04-29_14h47.24.687,expectation_shapes_perceived_time,2022.2.4,119.99587212453673,
300,0.8,met,green,red,498.22127824740767,,,,,0,12,12,33,trial,,,,,,green,0.4982212782474077,0.5,0.3,0.3,0.8315512782474077,0.8333333333333334,trial_list_0.8_green.csv,2.2999810999899637,0.9974977999809198,3e-05,3e-05,,0.5004534999898169,0.533862299984321,0.8339207000099123,0.8671061999921221,2.000074499985203,,2.2999810999899637,2.2999810999899637,2.4999976999824867,2.7004885000060312,0.40050740001606755,3.1416793999960646,0.8416983000061009,0.44119089999003336,0.79296,0.08951036234752155,-0.11764219051388544,None,ahmed_high0_cont,001,2023-04-29_14h47.24.687,expectation_shapes_perceived_time,2022.2.4,119.99587212453673,
167,0.1999999999999999,unmet,red,green,1049.7943178316857,,,,,0,13,13,499,trial,,,,,,red,1.0497943178316858,1.05,0.167,0.16666666666666666,1.2501243178316856,1.25,trial_list_0.8_green.csv,2.2994789000076707,0.9973484000074677,5e-05,5e-05,0.03325,1.04979540000204,1.0831494000158273,1.2496415000059642,1.2830114999960642,1.9994917000003625,,2.2994789000076707,2.2994789000076707,2.4991993000148796,2.4408626000222284,0.1413837000145577,2.882890100008808,0.5834112000011373,0.44202749998657964,1.13935,-0.06266831428759188,-0.13388230779621904,None,ahmed_high0_cont,001,2023-04-29_14h47.24.687,expectation_shapes_perceived_time,2022.2.4,119.99587212453673,
233,0.1999999999999999,unmet,red,green,1270.8967072938935,,,,,0,14,14,39,trial,,,,,,red,1.2708967072938935,1.275,0.233,0.23333333333333334,1.5372267072938934,1.5333333333333332,trial_list_0.8_green.csv,2.299615200026892,0.9976585000113118,4e-05,4e-05,0.03324,1.274658400012413,1.3080081000225618,1.5326978000230156,1.566161499998998,1.999775000003865,2.033084200025769,2.299615200026892,2.299615200026892,2.49960640000063,2.5579968000238296,0.25838159999693744,3.02448390002246,0.724868699995568,0.4664870999986306,1.05653,-0.026115101762070846,-0.14549842410296615,None,ahmed_high0_cont,001,2023-04-29_14h47.24.687,expectation_shapes_perceived_time,2022.2.4,119.99587212453673,
300,0.8,met,green,red,407.7624115092307,,,,,0,15,15,48,trial,,,,,,green,0.40776241150923065,0.4083333333333333,0.3,0.3,0.7410924115092307,0.7416666666666667,trial_list_0.8_green.csv,2.2998912999755703,0.9971844000101555,4e-05,4e-05,,0.4081370999920182,0.4414985999756027,0.741563599993242,0.7747249999956694,1.999917999986792,,2.2998912999755703,2.2998912999755703,2.5000313999771606,2.9248040999809746,0.6249128000054043,3.466682199999923,1.1667909000243526,0.5418781000189483,0.55257,0.1458122115556408,-0.02430203525927347,None,ahmed_high0_cont,001,2023-04-29_14h47.24.687,expectation_shapes_perceived_time,2022.2.4,119.99587212453673,
-233,0.8,met,green,red,627.3669395753745,,,,,0,16,16,93,trial,,,,,,green,0.6273669395753746,0.625,-0.233,-0.23333333333333334,0.3610369395753746,0.35833333333333334,trial_list_0.8_green.csv,2.3004713999980595,0.9961463999934494,2e-05,2e-05,0.03317,0.6255496999947354,0.6587187999975868,0.35856179997790605,0.3918771999888122,2.0004808999947272,2.0337473999825306,2.3004713999980595,2.3004713999980595,2.500516999978572,2.9590216999931727,0.6585502999951132,3.858556999999564,1.5580856000015046,0.8995353000063915,0.68506,0.12353691690536701,-0.08118140253781261,None,ahmed_high0_cont,001,2023-04-29_14h47.24.687,expectation_shapes_perceived_time,2022.2.4,119.99587212453673,
-233,0.8,met,green,red,591.5751678233376,,,,,0,17,17,313,trial,,,,,,green,0.5915751678233375,0.5916666666666667,-0.233,-0.23333333333333334,0.32524516782333757,0.325,trial_list_0.8_green.csv,2.300111399992602,0.9975127999787219,3e-05,3e-05,0.03327,0.5915793000021949,0.6249496999953408,0.3243951000040397,0.35778739998931997,1.9999577999988105,2.033132700016722,2.300111399992602,2.300111399992602,2.49997840001015,2.308406299998751,0.008294900006148964,3.758234500011895,1.458123100019293,1.449828200013144,0.75,0.10452700597570448,-0.10452700597570448,None,ahmed_high0_cont,001,2023-04-29_14h47.24.687,expectation_shapes_perceived_time,2022.2.4,119.99587212453673,
-33,0.8,met,green,red,1507.0861748339228,,,,,0,18,18,366,trial,,,,,,green,1.5070861748339228,1.5083333333333333,-0.033,-0.03333333333333333,1.4407561748339228,1.4416666666666667,trial_list_0.8_green.csv,2.299741199996788,0.9975702000083402,4e-05,4e-05,0.03329,1.5083357999974396,1.5415117999946233,1.441777900006855,1.4749382000009064,1.999566300015431,2.033087899995735,2.299741199996788,2.299741199996788,2.499771700007841,3.0332030999998096,0.7334619000030216,3.5579910000087693,1.2582498000119813,0.5247879000089597,1.46626,-0.14699405893920564,-0.015637665844596346,None,ahmed_high0_cont,001,2023-04-29_14h47.24.687,expectation_shapes_perceived_time,2022.2.4,119.99587212453673,
-100,0.8,met,green,red,1382.31738158003,,,,,0,19,19,438,trial,,,,,,green,1.38231738158003,1.3833333333333333,-0.1,-0.1,1.24898738158003,1.25,trial_list_0.8_green.csv,2.2998780999914743,0.9970811000093818,4e-05,4e-05,,1.3831266000051983,1.4165560000110418,1.2498701000004075,1.283267499995418,2.0001514999894425,2.0334636000043247,2.2998780999914743,2.2998780999914743,2.49978069998906,3.0749558999959845,0.7750778000045102,3.841447999991942,1.541569900000468,0.7664920999959577,1.44743,-0.1458122115556408,-0.02430203525927347,None,ahmed_high0_cont,001,2023-04-29_14h47.24.687,expectation_shapes_perceived_time,2022.2.4,119.99587212453673,
100,0.8,met,green,red,1402.6899112097096,,,,,0,20,20,487,trial,,,,,,green,1.4026899112097095,1.4,0.1,0.1,1.5360199112097095,1.5333333333333332,trial_list_0.8_green.csv,2.299765400006436,0.9969886000035331,5e-05,5e-05,0.03299,1.3997216999996454,1.4332850000064354,1.5331872000242583,1.5663989000022411,1.999927299999399,2.033151900017401,2.299765400006436,2.299765400006436,2.499927900003968,3.3831758000014815,1.0834103999950457,4.46648540001479,2.166720000008354,1.0833096000133082,1.3661,-0.1349359975171565,-0.0603661041524121,None,ahmed_high0_cont,001,2023-04-29_14h47.24.687,expectation_shapes_perceived_time,2022.2.4,119.99587212453673,
33,0.8,met,green,red,575.9343708825452,,,,,0,21,21,160,trial,,,,,,green,0.5759343708825452,0.575,0.033,0.03333333333333333,0.6422643708825452,0.6416666666666666,trial_list_0.8_green.csv,2.3002927000052296,0.9972767999861389,3e-05,3e-05,,0.5746738000016194,0.6079037000017706,0.6413033999851905,0.6746582000050694,2.000229600002058,,2.3002927000052296,2.3002927000052296,2.50021860000561,2.3002927000052296,0.0,3.0920020999910776,0.791709399985848,0.791709399985848,0.77192,0.0970876346591916,-0.11147098794203478,None,ahmed_high0_cont,001,2023-04-29_14h47.24.687,expectation_shapes_perceived_time,2022.2.4,119.99587212453673,
-33,0.8,met,green,red,1780.1951503036005,,,,,0,22,22,250,trial,,,,,,green,1.7801951503036004,1.7833333333333332,-0.033,-0.03333333333333333,1.7138651503036006,1.7166666666666666,trial_list_0.8_green.csv,2.3003215999924578,0.9969998000015039,3e-05,3e-05,,1.7830776999762747,1.816696999972919,1.7163589999836404,1.749744099972304,2.0000782999850344,,2.3003215999924578,2.3003215999924578,2.5001498999772593,2.608398699987447,0.3080770999949891,3.2667414999741595,0.9664198999817017,0.6583427999867126,1.7277,-0.11158780968024307,0.09695334283693251,None,ahmed_high0_cont,001,2023-04-29_14h47.24.687,expectation_shapes_perceived_time,2022.2.4,119.99587212453673,
-233,0.8,met,green,red,462.6626894670381,,,,,0,23,23,331,trial,,,,,,green,0.4626626894670381,0.4666666666666667,-0.233,-0.23333333333333334,0.1963326894670381,0.2,trial_list_0.8_green.csv,2.2993925999908242,0.9967680999834556,4e-05,4e-05,0.03326,0.46672189998207614,0.5001446999958716,0.20004399999743327,0.23347799998009577,2.000157799979206,2.0333679000032134,2.2993925999908242,2.2993925999908242,2.499372599995695,2.6083433000021614,0.3089507000113372,3.4417136999836657,1.1423210999928415,0.8333703999815043,0.40194,0.14086483308038183,0.044820628707394214,None,ahmed_high0_cont,001,2023-04-29_14h47.24.687,expectation_shapes_perceived_time,2022.2.4,119.99587212453673,
33,0.8,met,green,red,1655.4569739015978,,,,,0,24,24,109,trial,,,,,,green,1.6554569739015979,1.6583333333333332,0.033,0.03333333333333333,1.7217869739015979,1.7249999999999999,trial_list_0.8_green.csv,2.2999587999947835,0.9973746000032406,4e-05,4e-05,,1.6584619999921415,1.6917357000056654,1.725092599983327,1.7582670999981929,2.0000548999814782,,2.2999587999947835,2.2999587999947835,2.499855000001844,3.308276700001443,1.0083179000066593,4.6249416999926325,2.324982899997849,1.3166649999911897,1.60361,-0.14006163388991835,0.04727080143784744,None,ahmed_high0_cont,001,2023-04-29_14h47.24.687,expectation_shapes_perceived_time,2022.2.4,119.99587212453673,
-33,0.8,met,green,red,920.135604125051,0,0,0,0,0,25,25,79,fam,0.5641193000192288,0.5641193000192288,270.0,2.5645320000185166,2.5645320000185166,,,,,,,,,,,,,,,,,,,,,,,,,,,,,,,,ahmed_high0_cont,001,2023-04-29_14h47.24.687,expectation_shapes_perceived_time,2022.2.4,119.99587212453673,
-33,0.8,met,green,red,920.135604125051,1,0,1,0,0,25,25,79,fam,0.4969959000009112,0.4969959000009112,270.0,2.496511500008637,2.496511500008637,,,,,,,,,,,,,,,,,,,,,,,,,,,,,,,,ahmed_high0_cont,001,2023-04-29_14h47.24.687,expectation_shapes_perceived_time,2022.2.4,119.99587212453673,
-33,0.8,met,green,red,920.135604125051,2,0,2,0,0,25,25,79,fam,0.4992887999978848,0.4992887999978848,270.0,2.499165699991863,2.499165699991863,,,,,,,,,,,,,,,,,,,,,,,,,,,,,,,,ahmed_high0_cont,001,2023-04-29_14h47.24.687,expectation_shapes_perceived_time,2022.2.4,119.99587212453673,
-33,0.8,met,green,red,920.135604125051,3,0,3,0,0,25,25,79,fam,0.4975071999942884,0.4975071999942884,270.0,2.497800399985863,2.497800399985863,,,,,,,,,,,,,,,,,,,,,,,,,,,,,,,,ahmed_high0_cont,001,2023-04-29_14h47.24.687,expectation_shapes_perceived_time,2022.2.4,119.99587212453673,
-33,0.8,met,green,red,920.135604125051,,,,,0,25,25,79,trial,,,,,,green,0.920135604125051,0.9166666666666666,-0.033,-0.03333333333333333,0.853805604125051,0.85,trial_list_0.8_green.csv,2.2999852999928407,0.998231500008842,6e-05,6e-05,0.03355,0.9168854999879841,0.950203699991107,0.8501590999949258,0.8837939999939408,2.0002243999915663,2.033411700016586,2.2999852999928407,2.2999852999928407,2.500098299991805,2.2999852999928407,0.0,2.8833030000096187,0.583317700016778,0.583317700016778,0.7339,0.10967901101445421,-0.09910754007330198,None,ahmed_high0_cont,001,2023-04-29_14h47.24.687,expectation_shapes_perceived_time,2022.2.4,119.99587212453673,
33,0.8,met,green,red,995.8563132605672,,,,,0,26,26,26,trial,,,,,,green,0.9958563132605671,0.9916666666666667,0.033,0.03333333333333333,1.0621863132605671,1.0583333333333333,trial_list_0.8_green.csv,2.299946099985391,0.9961201999976765,6e-05,6e-05,0.03338,0.9919083999993745,1.0250380999932531,1.0584325999952853,1.091670299996622,1.9999940000125207,2.0335148999874946,2.299946099985391,2.299946099985391,2.5000887000060175,2.299946099985391,0.0,2.716449700004887,0.41650360001949593,0.41650360001949593,1.10514,-0.04794275983300374,-0.13983304951292755,None,ahmed_high0_cont,001,2023-04-29_14h47.24.687,expectation_shapes_perceived_time,2022.2.4,119.99587212453673,
-167,0.8,met,green,red,1236.1005186348175,,,,,0,27,27,378,trial,,,,,,green,1.2361005186348175,1.2333333333333334,-0.167,-0.16666666666666666,1.0357705186348176,1.0333333333333332,trial_list_0.8_green.csv,2.2997623999835923,0.997164000000339,4e-05,4e-05,0.03309,1.2331974999979138,1.266487099986989,1.0333345999824814,1.0663438999908976,1.9998847999959253,2.033058200002415,2.2997623999835923,2.2997623999835923,2.4998416999878827,2.3581321999954525,0.05836980001186021,3.016244700003881,0.7164823000202887,0.6581125000084285,0.78522,0.0923446142874532,-0.11543076785931652,None,ahmed_high0_cont,001,2023-04-29_14h47.24.687,expectation_shapes_perceived_time,2022.2.4,119.99587212453673,
-167,0.8,met,green,red,1721.273691218886,,,,,0,28,28,215,trial,,,,,,green,1.721273691218886,1.7249999999999999,-0.167,-0.16666666666666666,1.520943691218886,1.525,trial_list_0.8_green.csv,2.3000097000040114,0.9969717999920249,4e-05,4e-05,,1.7249352000071667,1.75833790001343,1.5250472000043374,1.5582799999974668,2.0002592999953777,2.033261100004893,2.3000097000040114,2.3000097000040114,2.4998116999922786,2.4668372999876738,0.16682759998366237,3.208216099999845,0.9082063999958336,0.7413788000121713,0.94743,0.02430203525927347,-0.1458122115556408,None,ahmed_high0_cont,001,2023-04-29_14h47.24.687,expectation_shapes_perceived_time,2022.2.4,119.99587212453673,
-100,0.1999999999999999,unmet,red,green,1578.869296972504,,,,,0,29,29,30,trial,,,,,,red,1.578869296972504,1.575,-0.1,-0.1,1.445539296972504,1.4416666666666667,trial_list_0.8_green.csv,2.300129300012486,0.9976102999935392,4e-05,4e-05,,1.5750851000193506,1.6082076000166126,1.441620800003875,1.474807000020519,2.000126900005853,,2.300129300012486,2.300129300012486,2.4997491000103764,2.474958600010723,0.17482929999823682,2.799812600016594,0.4996833000041079,0.32485400000587106,1.18373,-0.08066332323374309,-0.12387581782324833,None,ahmed_high0_cont,001,2023-04-29_14h47.24.687,expectation_shapes_perceived_time,2022.2.4,119.99587212453673,
-167,0.8,met,green,red,1185.7900054551042,,,,,0,30,30,8,trial,,,,,,green,1.1857900054551043,1.1833333333333333,-0.167,-0.16666666666666666,0.9854600054551041,0.9833333333333333,trial_list_0.8_green.csv,2.3002352000039537,0.9965061999973841,3e-05,3e-05,,1.183794400014449,1.216841299989028,0.9836868999991566,1.0168177000014111,2.000060599995777,,2.3002352000039537,2.3002352000039537,2.500054700009059,2.5923673000070266,0.292132100003073,2.966444899997441,0.6662096999934874,0.37407759999041446,1.2549,-0.10612255562066533,-0.10290672060185728,None,ahmed_high0_cont,001,2023-04-29_14h47.24.687,expectation_shapes_perceived_time,2022.2.4,119.99587212453673,
-100,0.8,met,green,red,753.9497762843864,,,,,0,31,31,36,trial,,,,,,green,0.7539497762843864,0.75,-0.1,-0.1,0.6206197762843864,0.6166666666666667,trial_list_0.8_green.csv,2.3001121999986935,0.9974700000020675,3e-05,3e-05,0.03336,0.7498137999791652,0.7831200999789871,0.6164771000039764,0.6501014999812469,2.0001891999854706,2.033368000003975,2.3001121999986935,2.3001121999986935,2.50006590000703,2.3001121999986935,0.0,3.074920699989889,0.7748084999911953,0.7748084999911953,0.64245,0.13326630223669303,-0.06396782507361266,None,ahmed_high0_cont,001,2023-04-29_14h47.24.687,expectation_shapes_perceived_time,2022.2.4,119.99587212453673,
33,0.8,met,green,red,922.4257782408068,,,,,0,32,32,205,trial,,,,,,green,0.9224257782408068,0.9249999999999999,0.033,0.03333333333333333,0.9887557782408068,0.9916666666666667,trial_list_0.8_green.csv,2.300046400021529,0.9974064999842085,3e-05,3e-05,,0.9253719000262208,0.9586506000196096,0.992045600025449,1.0254214000015054,2.0004006000235677,2.033494300005259,2.300046400021529,2.300046400021529,2.500060200021835,2.308423300011782,0.00837689999025315,2.816746800002875,0.516700399981346,0.5083234999910928,0.66289,0.12888647908318956,-0.07238829647138043,None,ahmed_high0_cont,001,2023-04-29_14h47.24.687,expectation_shapes_perceived_time,2022.2.4,119.99587212453673,
233,0.8,met,green,red,1070.8623924517674,,,,,0,33,33,322,trial,,,,,,green,1.0708623924517673,1.0666666666666667,0.233,0.23333333333333334,1.3371923924517672,1.3333333333333333,trial_list_0.8_green.csv,2.300077699997928,0.9975654000008944,4e-05,4e-05,0.0333,1.0666167000017595,1.1000142999982927,1.333540499996161,1.366887099982705,2.000066099979449,,2.300077699997928,2.300077699997928,2.499990999989677,2.5999546999810264,0.29987699998309836,3.016201899998123,0.7161242000001948,0.4162472000170965,0.61031,0.1390359783123183,-0.0502074366127816,None,ahmed_high0_cont,001,2023-04-29_14h47.24.687,expectation_shapes_perceived_time,2022.2.4,119.99587212453673,
33,0.8,met,green,red,982.1954469287092,,,,,0,34,34,233,trial,,,,,,green,0.9821954469287092,0.9833333333333333,0.033,0.03333333333333333,1.0485254469287093,1.05,trial_list_0.8_green.csv,2.2999959000153467,0.9988588999840431,4e-05,4e-05,0.03303,0.9834328000142705,1.0168013000220526,1.0497468000103254,1.0831880000187084,1.9999787000124343,2.033328800025629,2.2999959000153467,2.2999959000153467,2.4999596000125166,2.4500309000140987,0.15003499999875203,2.966398900025524,0.6664030000101775,0.5163680000114255,0.99242,0.003518610171514852,-0.14778162720362378,None,ahmed_high0_cont,001,2023-04-29_14h47.24.687,expectation_shapes_perceived_time,2022.2.4,119.99587212453673,
-100,0.8,met,green,red,520.8338288746309,,,,,0,35,35,483,trial,,,,,,green,0.5208338288746308,0.5166666666666666,-0.1,-0.1,0.38750382887463086,0.3833333333333333,trial_list_0.8_green.csv,2.3003537000040524,0.9967839999881107,2e-05,2e-05,,0.5172503000067081,0.5506839999870863,0.38421659998130053,0.4178042999992613,2.000356999982614,,2.3003537000040524,2.3003537000040524,2.500667499989504,2.3003537000040524,0.0,3.167136899981415,0.8667831999773625,0.8667831999773625,0.67126,0.1269379077248453,-0.07575326751321412,None,ahmed_high0_cont,001,2023-04-29_14h47.24.687,expectation_shapes_perceived_time,2022.2.4,119.99587212453673,
-300,0.8,met,green,red,551.2271029286713,,,,,0,36,36,28,trial,,,,,,green,0.5512271029286714,0.55,-0.3,-0.3,0.21789710292867137,0.21666666666666667,trial_list_0.8_green.csv,2.3000394999980927,0.9972698999918066,3e-05,3e-05,0.0335,0.5499739999941085,0.5830284999974538,0.2170207000162918,0.2501717999984976,2.000264500005869,2.0334058000007644,2.3000394999980927,2.3000394999980927,2.5003230000147596,2.4334223000041675,0.13338280000607483,3.0082108000060543,0.7081713000079617,0.5747885000018869,0.73864,0.10819113587143636,-0.10072967822513043,None,ahmed_high0_cont,001,2023-04-29_14h47.24.687,expectation_shapes_perceived_time,2022.2.4,119.99587212453673,
-300,0.8,met,green,red,628.328468984446,,,,,0,37,37,289,trial,,,,,,green,0.6283284689844459,0.625,-0.3,-0.3,0.294998468984446,0.2916666666666667,trial_list_0.8_green.csv,2.2996933999820612,0.997597500012489,3e-05,3e-05,0.03319,0.6249174999829847,0.6581901999888942,0.2917236000066623,0.32480949998716824,1.9994832999946084,2.0328714000061154,2.2996933999820612,2.2996933999820612,2.499763300002087,2.2996933999820612,0.0,3.1665906999842264,0.8668973000021651,0.8668973000021651,0.90166,0.04494428551456848,-0.14082542794564792,None,ahmed_high0_cont,001,2023-04-29_14h47.24.687,expectation_shapes_perceived_time,2022.2.4,119.99587212453673,
167,0.8,met,green,red,1011.3567843056376,,,,,0,38,38,213,trial,,,,,,green,1.0113567843056375,1.0083333333333333,0.167,0.16666666666666666,1.2116867843056376,1.2083333333333333,trial_list_0.8_green.csv,2.299473399994895,0.9979090999986511,6e-05,6e-05,0.03311,1.0077655999921262,1.041251899994677,1.2077959000016563,1.2410761000064667,1.9994239000079688,2.0328328000032343,2.299473399994895,2.299473399994895,2.4990729999844916,2.5990110999846365,0.29953769998974167,2.9995330999954604,0.7000597000005655,0.40052200001082383,1.17311,-0.07648674255301478,-0.12649730499152448,None,ahmed_high0_cont,001,2023-04-29_14h47.24.687,expectation_shapes_perceived_time,2022.2.4,119.99587212453673,
233,0.8,met,green,red,976.6887029138312,,,,,0,39,39,395,trial,,,,,,green,0.9766887029138313,0.975,0.233,0.23333333333333334,1.243018702913831,1.2416666666666667,trial_list_0.8_green.csv,2.3000607000140008,0.996479299996281,3e-05,3e-05,0.03334,0.9752174000022933,1.0082562000025064,1.2418714000086766,1.2751496999990195,2.0001993000041693,2.033492100017611,2.3000607000140008,2.3000607000140008,2.4999719000188634,2.533298399997875,0.23323769998387434,3.916579900018405,1.6165192000044044,1.38328150002053,1.11586,-0.05262447868494365,-0.1381392565479771,None,ahmed_high0_cont,001,2023-04-29_14h47.24.687,expectation_shapes_perceived_time,2022.2.4,119.99587212453673,
167,0.1999999999999999,unmet,red,green,455.89165889385225,,,,,0,40,40,80,trial,,,,,,red,0.45589165889385225,0.4583333333333333,0.167,0.16666666666666666,0.6562216588938523,0.6583333333333333,trial_list_0.8_green.csv,2.2998533999780193,0.9970186999998987,3e-05,3e-05,,0.45808289997512475,0.49152469998807646,0.6582252999942284,0.6914350999868475,1.9998724999895785,,2.2998533999780193,2.2998533999780193,2.4998173999774735,2.2998533999780193,0.0,2.9415357999969274,0.6416824000189081,0.6416824000189081,0.68585,0.12333437518752552,-0.08148878360604365,None,ahmed_high0_cont,001,2023-04-29_14h47.24.687,expectation_shapes_perceived_time,2022.2.4,119.99587212453673,
-33,0.8,met,green,red,464.8173949688779,,,,,0,41,41,57,trial,,,,,,green,0.4648173949688779,0.4666666666666667,-0.033,-0.03333333333333333,0.3984873949688779,0.4,trial_list_0.8_green.csv,2.299927700019907,0.9975140999886207,7e-05,7e-05,0.03317,0.46663020001142286,0.4999064000148792,0.4001581000047736,0.43325719999847934,1.999998700019205,,2.299927700019907,2.299927700019907,2.499843099998543,2.408275199995842,0.10834749997593462,2.867342900019139,0.5674151999992318,0.4590677000232972,0.67989,0.1248382218566999,-0.07916570166522433,None,ahmed_high0_cont,001,2023-04-29_14h47.24.687,expectation_shapes_perceived_time,2022.2.4,119.99587212453673,
300,0.1999999999999999,unmet,red,green,344.3477046810269,,,,,0,42,42,469,trial,,,,,,red,0.34434770468102693,0.3416666666666667,0.3,0.3,0.677677704681027,0.675,trial_list_0.8_green.csv,2.299992900021607,0.9960112999833655,4e-05,4e-05,0.0333,0.3418662000040058,0.37529840000206605,0.6749386000155937,0.7080096999998204,1.999822200014023,,2.299992900021607,2.299992900021607,2.499996700003976,2.4166373000189196,0.11664439999731258,2.8999999000225216,0.6000070000009146,0.483362600003602,0.75758,0.10200935761783463,-0.10698542384309487,None,ahmed_high0_cont,001,2023-04-29_14h47.24.687,expectation_shapes_perceived_time,2022.2.4,119.99587212453673,
233,0.8,met,green,red,222.30048196707003,,,,,0,43,43,401,trial,,,,,,green,0.22230048196707003,0.225,0.233,0.23333333333333334,0.48863048196707,0.49166666666666664,trial_list_0.8_green.csv,2.3001592000073288,0.9968509000027552,3e-05,3e-05,,0.225086199992802,0.25861109999823384,0.49155929998960346,0.524962499999674,1.9996903999999631,2.0329170000040904,2.3001592000073288,2.3001592000073288,2.4999919999972917,2.3001592000073288,0.0,3.066946899984032,0.7667876999767032,0.7667876999767032,0.37975,0.13740057895889188,0.054524039269401546,None,ahmed_high0_cont,001,2023-04-29_14h47.24.687,expectation_shapes_perceived_time,2022.2.4,119.99587212453673,
233,0.8,met,green,red,242.75893414476624,,,,,0,44,44,32,trial,,,,,,green,0.24275893414476624,0.24166666666666667,0.233,0.23333333333333334,0.5090889341447663,0.5083333333333333,trial_list_0.8_green.csv,2.300118899991503,0.9964435999863781,4e-05,4e-05,0.03309,0.241659699997399,0.2748231000150554,0.5083394999965094,0.5416533999959938,1.9998921999940649,2.033244399994146,2.300118899991503,2.300118899991503,2.5000990999978967,2.6917974000098184,0.3916785000183154,3.041004400001839,0.7408855000103358,0.34920699999202043,0.48183,0.1475827544238695,0.008433300252792542,None,ahmed_high0_cont,001,2023-04-29_14h47.24.687,expectation_shapes_perceived_time,2022.2.4,119.99587212453673,
-233,0.8,met,green,red,906.4437741952844,,,,,0,45,45,356,trial,,,,,,green,0.9064437741952844,0.9083333333333333,-0.233,-0.23333333333333334,0.6401137741952844,0.6416666666666666,trial_list_0.8_green.csv,2.300272699998459,0.9986706000054255,4e-05,4e-05,0.0335,0.9084231999877375,0.9418156999745406,0.6417046999849845,0.6750274999940302,1.9999669999815524,2.0332832999993116,2.300272699998459,2.300272699998459,2.5000097999873105,2.483355499978643,0.18308279998018406,2.883170399989467,0.5828976999910083,0.3998149000108242,1.0,0.0,-0.14782350948509485,None,ahmed_high0_cont,001,2023-04-29_14h47.24.687,expectation_shapes_perceived_time,2022.2.4,119.99587212453673,
100,0.8,met,green,red,1669.5760039441952,,,,,0,46,46,220,trial,,,,,,green,1.6695760039441951,1.6666666666666667,0.1,0.1,1.802906003944195,1.8,trial_list_0.8_green.csv,2.300468200002797,0.9962414000183344,1e-05,1e-05,,1.6670740999979898,1.7002998999960255,1.8003975999890827,1.8339424000005238,2.0003142999776173,,2.300468200002797,2.300468200002797,2.500712199980626,2.5506692999915686,0.2502010999887716,3.000252300000284,0.6997840999974869,0.4495830000087153,1.55625,-0.14552153904556703,0.02598598911527982,None,ahmed_high0_cont,001,2023-04-29_14h47.24.687,expectation_shapes_perceived_time,2022.2.4,119.99587212453673,
-233,0.8,met,green,red,1430.396286244168,,,,,0,47,47,423,trial,,,,,,green,1.4303962862441681,1.4333333333333333,-0.233,-0.23333333333333334,1.1640662862441682,1.1666666666666667,trial_list_0.8_green.csv,2.2996411999920383,0.996972499997355,3e-05,3e-05,,1.432985199993709,1.4663450999942143,1.1660098000138532,1.1993893000180833,1.999680700013414,,2.2996411999920383,2.2996411999920383,2.499688400013838,2.7162929000041913,0.416651700012153,3.116368799994234,0.8167276000021957,0.40007589999004267,0.98326,0.007769431166648373,-0.14761919216631908,None,ahmed_high0_cont,001,2023-04-29_14h47.24.687,expectation_shapes_perceived_time,2022.2.4,119.99587212453673,
33,0.8,met,green,red,955.9019692184778,,,,,0,48,48,292,trial,,,,,,green,0.9559019692184778,0.9583333333333334,0.033,0.03333333333333333,1.0222319692184778,1.025,trial_list_0.8_green.csv,2.2995063999842387,0.9971012999885716,5e-05,5e-05,0.03346,0.9580061999731697,0.9914243999810424,1.0245023999887053,1.0583166999858804,1.9991976999735925,2.0325064999924507,2.2995063999842387,2.2995063999842387,2.499448199989274,2.816387599974405,0.5168811999901664,3.824532599974191,1.5250261999899521,1.0081449999997858,0.95781,0.019536904930460012,-0.1465267869784501,None,ahmed_high0_cont,001,2023-04-29_14h47.24.687,expectation_shapes_perceived_time,2022.2.4,119.99587212453673,
33,0.8,met,green,red,391.4281675133929,,,,,0,49,49,74,trial,,,,,,green,0.39142816751339293,0.39166666666666666,0.033,0.03333333333333333,0.4577581675133929,0.4583333333333333,trial_list_0.8_green.csv,2.2999183000065386,0.9975019999837968,3e-05,3e-05,0.03346,0.39215020000119694,0.4255960999871604,0.45886939999763854,0.49227190000237897,1.9995514999900479,,2.2999183000065386,2.2999183000065386,2.499903199990513,2.391567999991821,0.0916496999852825,2.875194099993678,0.5752757999871392,0.4836261000018567,0.71904,0.11418264615491339,-0.09388350906070655,None,ahmed_high0_cont,001,2023-04-29_14h47.24.687,expectation_shapes_perceived_time,2022.2.4,119.99587212453673,
33,0.1999999999999999,unmet,red,green,902.792998604336,0,0,0,0,0,50,50,406,fam,0.5564740000118036,0.5564740000118036,270.0,2.556235600000946,2.556235600000946,,,,,,,,,,,,,,,,,,,,,,,,,,,,,,,,ahmed_high0_cont,001,2023-04-29_14h47.24.687,expectation_shapes_perceived_time,2022.2.4,119.99587212453673,
33,0.1999999999999999,unmet,red,green,902.792998604336,1,0,1,0,0,50,50,406,fam,0.49676380000892095,0.49676380000892095,270.0,2.496790500008501,2.496790500008501,,,,,,,,,,,,,,,,,,,,,,,,,,,,,,,,ahmed_high0_cont,001,2023-04-29_14h47.24.687,expectation_shapes_perceived_time,2022.2.4,119.99587212453673,
33,0.1999999999999999,unmet,red,green,902.792998604336,2,0,2,0,0,50,50,406,fam,0.4970403000188526,0.4970403000188526,270.0,2.4972168000240345,2.4972168000240345,,,,,,,,,,,,,,,,,,,,,,,,,,,,,,,,ahmed_high0_cont,001,2023-04-29_14h47.24.687,expectation_shapes_perceived_time,2022.2.4,119.99587212453673,
33,0.1999999999999999,unmet,red,green,902.792998604336,3,0,3,0,0,50,50,406,fam,0.49678419998963363,0.49678419998963363,270.0,2.4967488999827765,2.4967488999827765,,,,,,,,,,,,,,,,,,,,,,,,,,,,,,,,ahmed_high0_cont,001,2023-04-29_14h47.24.687,expectation_shapes_perceived_time,2022.2.4,119.99587212453673,
33,0.1999999999999999,unmet,red,green,902.792998604336,,,,,0,50,50,406,trial,,,,,,red,0.902792998604336,0.9,0.033,0.03333333333333333,0.969122998604336,0.9666666666666667,trial_list_0.8_green.csv,2.29988659999799,0.9980174000083935,7e-05,7e-05,0.03348,0.9000801999936812,0.9333708999911323,0.9668025000137277,1.0001658000110183,2.0002502000133973,2.033408999996027,2.29988659999799,2.29988659999799,2.5002122999867424,2.5251101999892853,0.2252235999912955,3.100329500011867,0.8004429000138771,0.5752193000225816,0.69331,0.12139100869970085,-0.08435646367267348,None,ahmed_high0_cont,001,2023-04-29_14h47.24.687,expectation_shapes_perceived_time,2022.2.4,119.99587212453673,
100,0.8,met,green,red,222.31915218806435,,,,,0,51,51,496,trial,,,,,,green,0.22231915218806436,0.225,0.1,0.1,0.3556491521880643,0.35833333333333334,trial_list_0.8_green.csv,2.300157699995907,0.9956282000057399,3e-05,3e-05,0.03309,0.22543649998260662,0.25874289998319,0.35828349998337217,0.3913278999971226,1.999836899980437,2.033290699997451,2.300157699995907,2.300157699995907,2.499787999986438,2.300157699995907,0.0,3.174748699995689,0.8745909999997821,0.8745909999997821,0.47556,0.14738809319469942,0.011337545630361493,None,ahmed_high0_cont,001,2023-04-29_14h47.24.687,expectation_shapes_perceived_time,2022.2.4,119.99587212453673,
-167,0.8,met,green,red,1378.8609229370795,,,,,0,52,52,284,trial,,,,,,green,1.3788609229370796,1.375,-0.167,-0.16666666666666666,1.1785309229370795,1.175,trial_list_0.8_green.csv,2.299969899991993,0.9976429000089411,4e-05,4e-05,0.03298,1.3753572999848984,1.4083114999812096,1.1749191999842878,1.2084904999937862,2.0002440999960527,,2.299969899991993,2.299969899991993,2.4996555999969132,2.7328174999856856,0.4328475999936927,3.158073599974159,0.8581036999821663,0.4252560999884736,0.84105,0.07078560248161761,-0.12977360454963227,None,ahmed_high0_cont,001,2023-04-29_14h47.24.687,expectation_shapes_perceived_time,2022.2.4,119.99587212453673,
-233,0.8,met,green,red,1596.822850227017,,,,,0,53,53,355,trial,,,,,,green,1.596822850227017,1.6,-0.233,-0.23333333333333334,1.330492850227017,1.3333333333333333,trial_list_0.8_green.csv,2.300130999996327,0.9965575000096578,3e-05,3e-05,0.03369,1.599853499996243,1.6333376999828033,1.3328512999869417,1.3662263999867719,1.9998424999939743,2.0333729999838397,2.300130999996327,2.300130999996327,2.499857599992538,2.591688799991971,0.291557799995644,3.008369599992875,0.7082385999965481,0.41668080000090413,0.79421,0.08904990296995027,-0.11799112143518412,None,ahmed_high0_cont,001,2023-04-29_14h47.24.687,expectation_shapes_perceived_time,2022.2.4,119.99587212453673,
100,0.8,met,green,red,723.8849335604222,,,,,0,54,54,256,trial,,,,,,green,0.7238849335604222,0.725,0.1,0.1,0.8572149335604222,0.8583333333333333,trial_list_0.8_green.csv,2.2991250999912154,0.9977486999996472,4e-05,4e-05,0.03328,0.7247271999949589,0.7580441999889445,0.8581187999807298,0.8912604999786709,1.9997719999810215,2.0328704999992624,2.2991250999912154,2.2991250999912154,2.4994264999986626,2.5245653999736533,0.22544029998243786,3.1163629999791738,0.8172378999879584,0.5917976000055205,0.79958,0.08704705890981455,-0.11947635536641214,None,ahmed_high0_cont,001,2023-04-29_14h47.24.687,expectation_shapes_perceived_time,2022.2.4,119.99587212453673,
100,0.8,met,green,red,1189.0737961831212,,,,,0,55,55,245,trial,,,,,,green,1.1890737961831213,1.1916666666666667,0.1,0.1,1.3224037961831212,1.325,trial_list_0.8_green.csv,2.299684300000081,0.9975583000050392,5e-05,5e-05,0.03321,1.191417800000636,1.224872199993115,1.3246105999860447,1.3578945999906864,1.99970599997323,,2.299684300000081,2.299684300000081,2.4996117999835405,2.299684300000081,0.0,3.8579679999966174,1.5582836999965366,1.5582836999965366,0.87194,0.05788105851387028,-0.13602048750759516,None,ahmed_high0_cont,001,2023-04-29_14h47.24.687,expectation_shapes_perceived_time,2022.2.4,119.99587212453673,
-167,0.8,met,green,red,1720.6922981816476,,,,,0,56,56,127,trial,,,,,,green,1.7206922981816477,1.7166666666666666,-0.167,-0.16666666666666666,1.5203622981816478,1.5166666666666666,trial_list_0.8_green.csv,2.3001156999962404,0.996948899992276,4e-05,4e-05,,1.7167321000015363,1.7498113999899942,1.5164522000122815,1.5498726000078022,1.9997823000012431,,2.3001156999962404,2.3001156999962404,2.5000328000169247,2.7255796999961603,0.4254639999999199,3.132844700012356,0.8327290000161156,0.4072650000161957,1.11652,-0.05291135741060684,-0.13802962802767002,None,ahmed_high0_cont,001,2023-04-29_14h47.24.687,expectation_shapes_perceived_time,2022.2.4,119.99587212453673,
-300,0.1999999999999999,unmet,red,green,1461.7606285746142,,,,,0,57,57,316,trial,,,,,,red,1.4617606285746143,1.4583333333333333,-0.3,-0.3,1.1284306285746142,1.125,trial_list_0.8_green.csv,2.299767199991038,0.9967137000057846,4e-05,4e-05,0.03345,1.4582269999955315,1.4918596999777947,1.1249444999848492,1.1583938999974634,1.9996568999777082,2.0331294999923557,2.299767199991038,2.299767199991038,2.500105299986899,2.3080678999831434,0.008300699992105365,3.508276799984742,1.2085095999937039,1.2002089000015985,1.21578,-0.0927088617083937,-0.11513842502494054,None,ahmed_high0_cont,001,2023-04-29_14h47.24.687,expectation_shapes_perceived_time,2022.2.4,119.99587212453673,
-167,0.8,met,green,red,1831.6013334329152,,,,,0,58,58,169,trial,,,,,,green,1.8316013334329153,1.8333333333333333,-0.167,-0.16666666666666666,1.6312713334329152,1.6333333333333333,trial_list_0.8_green.csv,2.3004852999874856,0.996480400004657,3e-05,3e-05,0.03352,1.8337914999865461,1.8669132000068203,1.633752599998843,1.6669084999884944,2.0002596999984235,,2.3004852999874856,2.3004852999874856,2.5003175000019837,2.6252702999918256,0.32478500000433996,3.8002122000034433,1.4997269000159577,1.1749419000116177,1.52915,-0.14720405440637035,0.013518739690380952,None,ahmed_high0_cont,001,2023-04-29_14h47.24.687,expectation_shapes_perceived_time,2022.2.4,119.99587212453673,
300,0.8,met,green,red,1540.2351223711978,,,,,0,59,59,1,trial,,,,,,green,1.5402351223711979,1.5416666666666667,0.3,0.3,1.8735651223711978,1.875,trial_list_0.8_green.csv,2.3006098000041675,0.9970120000070892,5e-05,5e-05,,1.5421277999994345,1.5754467000078876,1.8754418000171427,1.9090033000102267,2.0004738999996334,2.033984900015639,2.3006098000041675,2.3006098000041675,2.50050310001825,3.033906600001501,0.7332967999973334,3.5419172999972943,1.2413074999931268,0.5080106999957934,1.63764,-0.13421774268678338,0.06194665047082311,None,ahmed_high0_cont,001,2023-04-29_14h47.24.687,expectation_shapes_perceived_time,2022.2.4,119.99587212453673,
100,0.8,met,green,red,1330.9616200441756,,,,,0,60,60,391,trial,,,,,,green,1.3309616200441756,1.3333333333333333,0.1,0.1,1.4642916200441756,1.4666666666666666,trial_list_0.8_green.csv,2.300242800003616,0.9971216999983881,4e-05,4e-05,0.03339,1.333543600019766,1.3666237000143155,1.4667934000026435,1.500160199997481,2.000106699997559,2.033610900019994,2.300242800003616,2.300242800003616,2.5000136000162456,2.64178790000733,0.34154510000371374,3.1251252999936696,0.8248824999900535,0.48333739998633973,1.38953,-0.13900971392678751,-0.05028010929266783,None,ahmed_high0_cont,001,2023-04-29_14h47.24.687,expectation_shapes_perceived_time,2022.2.4,119.99587212453673,
167,0.8,met,green,red,816.0749149705073,,,,,0,61,61,404,trial,,,,,,green,0.8160749149705073,0.8166666666666667,0.167,0.16666666666666666,1.0164049149705072,1.0166666666666666,trial_list_0.8_green.csv,2.299984199984465,0.997386999981245,2e-05,2e-05,0.03302,0.8167984999890905,0.8498423999990337,1.0165400999831036,1.0497205999854486,2.0000057999859564,,2.299984199984465,2.299984199984465,2.499700499989558,2.299984199984465,0.0,2.8664385000010952,0.5664543000166304,0.5664543000166304,0.93667,0.029215273392746544,-0.1449077560280229,None,ahmed_high0_cont,001,2023-04-29_14h47.24.687,expectation_shapes_perceived_time,2022.2.4,119.99587212453673,
-167,0.1999999999999999,unmet,red,green,1690.2315665954534,,,,,0,62,62,393,trial,,,,,,red,1.6902315665954535,1.6916666666666667,-0.167,-0.16666666666666666,1.4899015665954534,1.4916666666666667,trial_list_0.8_green.csv,2.299476100015454,0.9966175000008661,4e-05,4e-05,0.03345,1.6915933999989647,1.7249858000141103,1.4916094000218436,1.5248830000055023,1.999815999995917,2.033455700002378,2.299476100015454,2.299476100015454,2.4994324000144843,2.4994324000144843,0.1999562999990303,3.2748279999941587,0.9753518999787048,0.7753955999796744,1.12832,-0.057989107336633025,-0.13597445858244986,None,ahmed_high0_cont,001,2023-04-29_14h47.24.687,expectation_shapes_perceived_time,2022.2.4,119.99587212453673,
-167,0.8,met,green,red,1310.1930004174524,,,,,0,63,63,77,trial,,,,,,green,1.3101930004174525,1.3083333333333333,-0.167,-0.16666666666666666,1.1098630004174523,1.1083333333333334,trial_list_0.8_green.csv,2.299966399994446,0.9964634999923874,4e-05,4e-05,,1.308280500001274,1.3416671000013594,1.1082700999977533,1.141873000015039,1.999911399994744,,2.299966399994446,2.299966399994446,2.4999539999989793,2.616856300010113,0.3168899000156671,3.05783090001205,0.7578645000176039,0.4409746000019368,1.2549,-0.10612255562066533,-0.10290672060185728,None,ahmed_high0_cont,001,2023-04-29_14h47.24.687,expectation_shapes_perceived_time,2022.2.4,119.99587212453673,
-167,0.8,met,green,red,615.3463160635883,,,,,0,64,64,369,trial,,,,,,green,0.6153463160635884,0.6166666666666667,-0.167,-0.16666666666666666,0.41501631606358835,0.4166666666666667,trial_list_0.8_green.csv,2.3000261000124738,0.998443300020881,4e-05,4e-05,,0.6165524999960326,0.6500693999987561,0.41660580001189373,0.44998589999158867,1.9999741000065114,,2.3000261000124738,2.3000261000124738,2.500189499987755,2.308144899987383,0.008118799974909052,2.8247011000057682,0.5246749999932945,0.5165562000183854,0.67439,0.12618795425369142,-0.07699603988360831,None,ahmed_high0_cont,001,2023-04-29_14h47.24.687,expectation_shapes_perceived_time,2022.2.4,119.99587212453673,
-300,0.8,met,green,red,708.6363655241189,,,,,0,65,65,97,trial,,,,,,green,0.7086363655241189,0.7083333333333334,-0.3,-0.3,0.3753063655241189,0.375,trial_list_0.8_green.csv,2.299813300021924,0.9970651000039652,4e-05,4e-05,0.03345,0.7078346000052989,0.7412666000018362,0.37449310001102276,0.4078699000237975,1.9999538999982178,2.0333952000073623,2.299813300021924,2.299813300021924,2.4997714000055566,2.3082129000104032,0.008399599988479167,3.0332714000251144,0.7334581000031903,0.7250585000147112,0.60549,0.13978026623921583,-0.048096435695214046,None,ahmed_high0_cont,001,2023-04-29_14h47.24.687,expectation_shapes_perceived_time,2022.2.4,119.99587212453673,
300,0.1999999999999999,unmet,red,green,1358.250395274833,,,,,0,66,66,252,trial,,,,,,red,1.358250395274833,1.3583333333333334,0.3,0.3,1.691580395274833,1.6916666666666667,trial_list_0.8_green.csv,2.300082600006135,0.9975616000010632,4e-05,4e-05,0.03337,1.3578319000080228,1.3911795000021812,1.6914755000034347,1.7248213000129908,2.0001097999920603,2.0333444999996573,2.300082600006135,2.300082600006135,2.4997549999970943,2.300082600006135,0.0,3.883381899999222,1.5832992999930866,1.5832992999930866,1.52646,-0.14731289134624298,0.012276074278853584,None,ahmed_high0_cont,001,2023-04-29_14h47.24.687,expectation_shapes_perceived_time,2022.2.4,119.99587212453673,
300,0.8,met,green,red,1412.1405754620328,,,,,0,67,67,426,trial,,,,,,green,1.4121405754620329,1.4083333333333332,0.3,0.3,1.7454705754620328,1.7416666666666667,trial_list_0.8_green.csv,2.2999531000095885,0.9977095999929588,5e-05,5e-05,,1.4074840000248514,1.4408351000165567,1.741274500003783,1.7745272000029217,1.999499300000025,,2.2999531000095885,2.2999531000095885,2.4999292000138666,2.649549699999625,0.34959659999003634,3.149489100003848,0.8495359999942593,0.499939400004223,1.36756,-0.13521218389629117,-0.05974491846580308,None,ahmed_high0_cont,001,2023-04-29_14h47.24.687,expectation_shapes_perceived_time,2022.2.4,119.99587212453673,
-100,0.8,met,green,red,1817.1424477644089,,,,,0,68,68,462,trial,,,,,,green,1.817142447764409,1.8166666666666667,-0.1,-0.1,1.683812447764409,1.6833333333333333,trial_list_0.8_green.csv,2.2998436000198126,0.9969446999893989,4e-05,4e-05,,1.8165954000141937,1.8497965999995358,1.683375900000101,1.716469600010896,1.999638600012986,,2.2998436000198126,2.2998436000198126,2.4997895999986213,2.4579002000100445,0.15805659999023192,3.9248643000028096,1.625020699982997,1.4669640999927651,1.74184,-0.10717196064863221,0.1018133626162006,None,ahmed_high0_cont,001,2023-04-29_14h47.24.687,expectation_shapes_perceived_time,2022.2.4,119.99587212453673,
300,0.1999999999999999,unmet,red,green,752.4619789705375,,,,,0,69,69,468,trial,,,,,,red,0.7524619789705376,0.75,0.3,0.3,1.0857919789705375,1.0833333333333333,trial_list_0.8_green.csv,2.3000830999808386,0.996267499984242,4e-05,4e-05,0.03346,0.7501262999721803,0.7834984999790322,1.083286599983694,1.1169217999849934,2.0000313999771606,2.03351759997895,2.3000830999808386,2.3000830999808386,2.499695199978305,2.4665617999853566,0.16647870000451803,3.0499217999749817,0.7498386999941431,0.5833599999896251,1.11514,-0.05231357181905808,-0.1382572969503678,None,ahmed_high0_cont,001,2023-04-29_14h47.24.687,expectation_shapes_perceived_time,2022.2.4,119.99587212453673,
167,0.8,met,green,red,1166.3445794990016,,,,,0,70,70,116,trial,,,,,,green,1.1663445794990017,1.1666666666666667,0.167,0.16666666666666666,1.3666745794990016,1.3666666666666667,trial_list_0.8_green.csv,2.3001179000129923,0.9968318000028376,3e-05,3e-05,0.0335,1.1668686000048183,1.2001700999971945,1.3667474999965634,1.400084599998081,2.0003274000191595,2.033729000017047,2.3001179000129923,2.3001179000129923,2.499956200015731,2.483432700013509,0.1833148000005167,3.2168081999989226,0.9166902999859303,0.7333754999854136,1.12112,-0.05490027316870664,-0.1372506829217666,None,ahmed_high0_cont,001,2023-04-29_14h47.24.687,expectation_shapes_perceived_time,2022.2.4,119.99587212453673,
167,0.1999999999999999,unmet,red,green,929.6242909027236,,,,,0,71,71,81,trial,,,,,,red,0.9296242909027236,0.9333333333333333,0.167,0.16666666666666666,1.1299542909027236,1.1333333333333333,trial_list_0.8_green.csv,2.300022999988869,0.9977093999914359,4e-05,4e-05,0.03325,0.9334393999888562,0.9666626999969594,1.1333764000155497,1.1666641999909189,2.000040499988245,2.0335040999925695,2.300022999988869,2.300022999988869,2.499874200002523,2.300022999988869,0.0,3.516443000000436,1.216420000011567,1.216420000011567,1.40989,-0.14193943853502208,-0.041291473028370065,None,ahmed_high0_cont,001,2023-04-29_14h47.24.687,expectation_shapes_perceived_time,2022.2.4,119.99587212453673,
-33,0.8,met,green,red,514.7137577150683,,,,,0,72,72,35,trial,,,,,,green,0.5147137577150682,0.5166666666666666,-0.033,-0.03333333333333333,0.4483837577150683,0.45,trial_list_0.8_green.csv,2.2999802000122145,0.9971879000077024,2e-05,2e-05,0.03303,0.5171774000045843,0.5506015999999363,0.45024640002520755,0.4835956000024453,2.0001663000148255,,2.2999802000122145,2.2999802000122145,2.500224100018386,2.2999802000122145,0.0,2.841852600016864,0.5418724000046495,0.5418724000046495,0.77857,0.09473666576975973,-0.11347578647147046,None,ahmed_high0_cont,001,2023-04-29_14h47.24.687,expectation_shapes_perceived_time,2022.2.4,119.99587212453673,
33,0.8,met,green,red,1185.0526131860183,,,,,0,73,73,419,trial,,,,,,green,1.1850526131860184,1.1833333333333333,0.033,0.03333333333333333,1.2513826131860182,1.25,trial_list_0.8_green.csv,2.3000460999901406,0.9975380999967456,4e-05,4e-05,,1.1832716999924742,1.216635699995095,1.2498803999915253,1.28308220001054,1.9998597000085283,,2.3000460999901406,2.3000460999901406,2.4999767999979667,2.3081676000147127,0.008121500024572015,2.974685799999861,0.6746397000097204,0.6665181999851484,0.92334,0.035259563470102465,-0.14355679412827432,None,ahmed_high0_cont,001,2023-04-29_14h47.24.687,expectation_shapes_perceived_time,2022.2.4,119.99587212453673,
-33,0.8,met,green,red,1332.8060309874852,,,,,0,74,74,19,trial,,,,,,green,1.3328060309874852,1.3333333333333333,-0.033,-0.03333333333333333,1.2664760309874852,1.2666666666666666,trial_list_0.8_green.csv,2.2997710999916308,0.9974954000208527,4e-05,4e-05,0.03334,1.3334049999830313,1.3667564999777824,1.2666577999771107,1.2999933999963105,1.9999489999900106,2.0329923999961466,2.2997710999916308,2.2997710999916308,2.4998922999948263,2.2997710999916308,0.0,3.033150100003695,0.7333790000120644,0.7333790000120644,1.06163,-0.028443380859461808,-0.14506124238325524,None,ahmed_high0_cont,001,2023-04-29_14h47.24.687,expectation_shapes_perceived_time,2022.2.4,119.99587212453673,
33,0.8,met,green,red,1093.0411282137716,0,0,0,0,0,75,75,332,fam,0.5565312000107951,0.5565312000107951,270.0,2.5566974000248592,2.5566974000248592,,,,,,,,,,,,,,,,,,,,,,,,,,,,,,,,ahmed_high0_cont,001,2023-04-29_14h47.24.687,expectation_shapes_perceived_time,2022.2.4,119.99587212453673,
33,0.8,met,green,red,1093.0411282137716,1,0,1,0,0,75,75,332,fam,0.4987241000053473,0.4987241000053473,270.0,2.49875329999486,2.49875329999486,,,,,,,,,,,,,,,,,,,,,,,,,,,,,,,,ahmed_high0_cont,001,2023-04-29_14h47.24.687,expectation_shapes_perceived_time,2022.2.4,119.99587212453673,
33,0.8,met,green,red,1093.0411282137716,2,0,2,0,0,75,75,332,fam,0.4975792999903206,0.4975792999903206,270.0,2.4974106999870855,2.4974106999870855,,,,,,,,,,,,,,,,,,,,,,,,,,,,,,,,ahmed_high0_cont,001,2023-04-29_14h47.24.687,expectation_shapes_perceived_time,2022.2.4,119.99587212453673,
33,0.8,met,green,red,1093.0411282137716,3,0,3,0,0,75,75,332,fam,0.49792799999704584,0.49792799999704584,270.0,2.4976059999899007,2.4976059999899007,,,,,,,,,,,,,,,,,,,,,,,,,,,,,,,,ahmed_high0_cont,001,2023-04-29_14h47.24.687,expectation_shapes_perceived_time,2022.2.4,119.99587212453673,
33,0.8,met,green,red,1093.0411282137716,,,,,0,75,75,332,trial,,,,,,green,1.0930411282137715,1.0916666666666666,0.033,0.03333333333333333,1.1593711282137715,1.1583333333333332,trial_list_0.8_green.csv,2.2998299000028055,0.9983914000040386,4e-05,4e-05,0.03327,1.0914702000154648,1.1249907000164967,1.1581934000132605,1.1914359999937005,1.999861599993892,2.0333948000043165,2.2998299000028055,2.2998299000028055,2.4998876999889035,2.649785100016743,0.34995520001393743,3.182979000004707,0.8831491000019014,0.533193899987964,0.7635,0.10000257425683215,-0.10886356184920967,None,ahmed_high0_cont,001,2023-04-29_14h47.24.687,expectation_shapes_perceived_time,2022.2.4,119.99587212453673,
100,0.8,met,green,red,694.4462546804713,,,,,0,76,76,354,trial,,,,,,green,0.6944462546804713,0.6916666666666667,0.1,0.1,0.8277762546804713,0.825,trial_list_0.8_green.csv,2.3000576000194997,0.9971160999848507,3e-05,3e-05,,0.6914480999985244,0.7250487999990582,0.8248924000072293,0.8582352000230458,2.0000045000051614,,2.3000576000194997,2.3000576000194997,2.4998474000021815,2.3000576000194997,0.0,3.1329138000146486,0.8328561999951489,0.8328561999951489,0.81283,0.08199772971808414,-0.1229965945771262,None,ahmed_high0_cont,001,2023-04-29_14h47.24.687,expectation_shapes_perceived_time,2022.2.4,119.99587212453673,
-233,0.8,met,green,red,1374.516684854928,,,,,0,77,77,149,trial,,,,,,green,1.374516684854928,1.375,-0.233,-0.23333333333333334,1.108186684854928,1.1083333333333334,trial_list_0.8_green.csv,2.299926300009247,0.9982611000014003,4e-05,4e-05,0.03341,1.3753062000032514,1.4083692000131123,1.1080518999951892,1.1416757999977563,1.9998448000114877,2.0331244000117294,2.299926300009247,2.299926300009247,2.49969900000724,2.299926300009247,0.0,3.52486730000237,1.2249409999931231,1.2249409999931231,1.189,-0.08270324088790265,-0.12252331983392986,None,ahmed_high0_cont,001,2023-04-29_14h47.24.687,expectation_shapes_perceived_time,2022.2.4,119.99587212453673,
300,0.8,met,green,red,1147.085761228764,,,,,0,78,78,441,trial,,,,,,green,1.1470857612287642,1.15,0.3,0.3,1.480415761228764,1.4833333333333334,trial_list_0.8_green.csv,2.2999430999916513,0.9970948999980465,4e-05,4e-05,0.03312,1.1500472000043374,1.1832810000050813,1.4831148000084795,1.5164917999936733,2.000067899993155,,2.2999430999916513,2.2999430999916513,2.4997574999870267,2.4831464999879245,0.18320339999627322,3.566609600005904,1.266666500014253,1.0834631000179797,0.91549,0.0387890517887177,-0.14264360980367155,None,ahmed_high0_cont,001,2023-04-29_14h47.24.687,expectation_shapes_perceived_time,2022.2.4,119.99587212453673,
300,0.8,met,green,red,1126.8730798159652,,,,,0,79,79,254,trial,,,,,,green,1.1268730798159652,1.125,0.3,0.3,1.460203079815965,1.4583333333333333,trial_list_0.8_green.csv,2.2997637999942526,0.9963812000059988,4e-05,4e-05,0.03329,1.124874400004046,1.1581717999943066,1.4584555000183173,1.4915730000066105,1.9997933999984525,2.032982600008836,2.2997637999942526,2.2997637999942526,2.4998948000138626,2.2997637999942526,0.0,3.199960400001146,0.9001966000068933,0.9001966000068933,0.99609,0.0018136488739096883,-0.14781238322363957,None,ahmed_high0_cont,001,2023-04-29_14h47.24.687,expectation_shapes_perceived_time,2022.2.4,119.99587212453673,
300,0.8,met,green,red,673.2834107930433,,,,,0,80,80,62,trial,,,,,,green,0.6732834107930433,0.675,0.3,0.3,1.0066134107930433,1.0083333333333333,trial_list_0.8_green.csv,2.3001025000121444,0.996574499993585,3e-05,3e-05,0.03354,0.6749885000172071,0.7085357000178192,1.008475400012685,1.0415572999918368,2.0000829999917187,2.0335400000039954,2.3001025000121444,2.3001025000121444,2.4999376999912784,2.3169612000056077,0.016858699993463233,2.899739300017245,0.5996368000051007,0.5827781000116374,0.72971,0.11097310668941981,-0.09765633388668946,None,ahmed_high0_cont,001,2023-04-29_14h47.24.687,expectation_shapes_perceived_time,2022.2.4,119.99587212453673,
-167,0.8,met,green,red,931.2607120632345,,,,,0,81,81,66,trial,,,,,,green,0.9312607120632345,0.9333333333333333,-0.167,-0.16666666666666666,0.7309307120632345,0.7333333333333333,trial_list_0.8_green.csv,2.299741399998311,0.9981771000020672,4e-05,4e-05,0.03317,0.9330675000092015,0.9664778000151273,0.7328764999983832,0.7662257000047248,1.9997536000155378,2.0330891000048723,2.299741399998311,2.299741399998311,2.4997995999874547,2.299741399998311,0.0,3.432982099999208,1.133240700000897,1.133240700000897,0.83475,0.0733409990601163,-0.12834674835520354,None,ahmed_high0_cont,001,2023-04-29_14h47.24.687,expectation_shapes_perceived_time,2022.2.4,119.99587212453673,
-100,0.8,met,green,red,1426.2604880729557,,,,,0,82,82,258,trial,,,,,,green,1.4262604880729557,1.425,-0.1,-0.1,1.2929304880729557,1.2916666666666667,trial_list_0.8_green.csv,2.3000192000181414,0.9976329999917652,4e-05,4e-05,,1.4247347000055015,1.458256000012625,1.2913442999997642,1.3248136000183877,1.9998943000100553,,2.3000192000181414,2.3000192000181414,2.4999261000193655,2.308066500001587,0.008047299983445555,3.0329970000020694,0.732977799983928,0.7249305000004824,0.91273,0.04002256135762745,-0.14230244038267534,None,ahmed_high0_cont,001,2023-04-29_14h47.24.687,expectation_shapes_perceived_time,2022.2.4,119.99587212453673,
-233,0.8,met,green,red,517.1712701295586,,,,,0,83,83,492,trial,,,,,,green,0.5171712701295585,0.5166666666666666,-0.233,-0.23333333333333334,0.2508412701295586,0.25,trial_list_0.8_green.csv,2.299997900001472,0.9973343999881763,3e-05,3e-05,0.0332,0.5162995999853592,0.5497997000056785,0.24981320000370033,0.2831880000012461,2.0000401999859605,2.033633799990639,2.299997900001472,2.299997900001472,2.4999462999985553,2.299997900001472,0.0,2.816526699985843,0.5165287999843713,0.5165287999843713,0.53522,0.14691938167960722,-0.016324375742178578,None,ahmed_high0_cont,001,2023-04-29_14h47.24.687,expectation_shapes_perceived_time,2022.2.4,119.99587212453673,
-233,0.8,met,green,red,1492.118559455468,,,,,0,84,84,6,trial,,,,,,green,1.492118559455468,1.4916666666666667,-0.233,-0.23333333333333334,1.225788559455468,1.225,trial_list_0.8_green.csv,2.2999316000205,0.9968985999876168,4e-05,4e-05,,1.4914084000047296,1.5250181000155862,1.2248455000226386,1.2581224000023212,2.000038800004404,,2.2999316000205,2.2999316000205,2.4996887000161223,2.2999316000205,0.0,3.199700400000438,0.8997687999799382,0.8997687999799382,0.81179,0.08240187795998943,-0.12272620121700555,None,ahmed_high0_cont,001,2023-04-29_14h47.24.687,expectation_shapes_perceived_time,2022.2.4,119.99587212453673,
233,0.8,met,green,red,748.143110409754,,,,,0,85,85,382,trial,,,,,,green,0.7481431104097539,0.75,0.233,0.23333333333333334,1.014473110409754,1.0166666666666666,trial_list_0.8_green.csv,2.3000095000024885,0.9974330000113696,4e-05,4e-05,,0.7499445000139531,0.7834353999933228,1.0166309000051115,1.0499379000102635,1.9999449999886565,,2.3000095000024885,2.3000095000024885,2.4995570000028238,2.3000095000024885,0.0,2.941623899998376,0.6416143999958877,0.6416143999958877,0.74672,0.10559899252966376,-0.10344391104946653,None,ahmed_high0_cont,001,2023-04-29_14h47.24.687,expectation_shapes_perceived_time,2022.2.4,119.99587212453673,
167,0.8,met,green,red,1375.6179501014035,,,,,0,86,86,472,trial,,,,,,green,1.3756179501014034,1.375,0.167,0.16666666666666666,1.5759479501014033,1.575,trial_list_0.8_green.csv,2.2999194000149146,0.997786099993391,4e-05,4e-05,,1.375075799995102,1.4085184000141453,1.5748370999936014,1.608244700008072,2.000024700013455,,2.2999194000149146,2.2999194000149146,2.5000618000049144,2.4830860999936704,0.1831666999787558,3.049721299990779,0.7498018999758642,0.5666351999971084,1.10242,-0.046745898169240394,-0.14023769450772117,None,ahmed_high0_cont,001,2023-04-29_14h47.24.687,expectation_shapes_perceived_time,2022.2.4,119.99587212453673,
233,0.1999999999999999,unmet,red,green,647.0392103999707,,,,,0,87,87,230,trial,,,,,,red,0.6470392103999707,0.65,0.233,0.23333333333333334,0.9133692103999708,0.9166666666666666,trial_list_0.8_green.csv,2.300115199992433,0.9974336999875959,2e-05,2e-05,,0.6500433000037447,0.683310899999924,0.9169063000008464,0.9502415000170004,2.000020300009055,,2.300115199992433,2.300115199992433,2.500221900001634,2.391873599990504,0.09175839999807067,2.9084486000065226,0.6083334000140894,0.5165750000160187,0.80991,0.08312264078306279,-0.1222391776221512,None,ahmed_high0_cont,001,2023-04-29_14h47.24.687,expectation_shapes_perceived_time,2022.2.4,119.99587212453673,
-233,0.8,met,green,red,1800.893230331821,,,,,0,88,88,432,trial,,,,,,green,1.800893230331821,1.8,-0.233,-0.23333333333333334,1.534563230331821,1.5333333333333332,trial_list_0.8_green.csv,2.3001031999883708,0.9972411000053398,3e-05,3e-05,,1.8004302000044845,1.8338109999895096,1.5333041999838315,1.566745299991453,2.000284699985059,,2.3001031999883708,2.3001031999883708,2.5000524999923073,2.441736300010234,0.14163310002186336,2.900159299984807,0.6000560999964364,0.45842299997457303,1.27722,-0.11307185775011111,-0.09521840652640937,None,ahmed_high0_cont,001,2023-04-29_14h47.24.687,expectation_shapes_perceived_time,2022.2.4,119.99587212453673,
300,0.8,met,green,red,189.7945345002853,,,,,0,89,89,452,trial,,,,,,green,0.1897945345002853,0.19166666666666665,0.3,0.3,0.5231245345002853,0.525,trial_list_0.8_green.csv,2.300108299998101,0.9974172000074759,4e-05,4e-05,,0.19147160000284202,0.22499390001758002,0.5251681999943685,0.5582392000069376,2.0001658000110183,,2.300108299998101,2.300108299998101,2.4999409000156447,2.5167562999995425,0.2166480000014417,2.999637000000803,0.699528700002702,0.48288070000126027,0.42038,0.14322348332071919,0.03658994099434432,None,ahmed_high0_cont,001,2023-04-29_14h47.24.687,expectation_shapes_perceived_time,2022.2.4,119.99587212453673,
-233,0.8,met,green,red,1477.9751180039004,,,,,0,90,90,130,trial,,,,,,green,1.4779751180039005,1.475,-0.233,-0.23333333333333334,1.2116451180039005,1.2083333333333333,trial_list_0.8_green.csv,2.3001133000070695,0.9973732999933418,4e-05,4e-05,,1.4749354000086896,1.5083036000141874,1.2085054999915883,1.2417187000100967,2.0000784999865573,,2.3001133000070695,2.3001133000070695,2.5000714999914635,2.374872399988817,0.07475909998174757,3.016791900008684,0.7166786000016145,0.641919500019867,1.53007,-0.1471645785283859,0.013941907439531298,None,ahmed_high0_cont,001,2023-04-29_14h47.24.687,expectation_shapes_perceived_time,2022.2.4,119.99587212453673,
-100,0.8,met,green,red,1432.9508824821614,,,,,0,91,91,248,trial,,,,,,green,1.4329508824821615,1.4333333333333333,-0.1,-0.1,1.2996208824821616,1.3,trial_list_0.8_green.csv,2.299895500007551,0.9976677999948151,4e-05,4e-05,0.03344,1.4332812000066042,1.466631099989172,1.3001133000070695,1.3335545000154525,2.0001935999898706,2.0336317000037525,2.299895500007551,2.299895500007551,2.500122500001453,2.299895500007551,0.0,2.7080494000110775,0.40815390000352636,0.40815390000352636,1.37567,-0.13668916166053663,-0.05628377244845627,None,ahmed_high0_cont,001,2023-04-29_14h47.24.687,expectation_shapes_perceived_time,2022.2.4,119.99587212453673,
100,0.8,met,green,red,482.3829657237086,,,,,0,92,92,240,trial,,,,,,green,0.4823829657237086,0.48333333333333334,0.1,0.1,0.6157129657237086,0.6166666666666667,trial_list_0.8_green.csv,2.3001096000079997,0.9973500999913085,3e-05,3e-05,0.0334,0.48331740000867285,0.5171344999980647,0.6168780000007246,0.6501556000148412,2.000054900010582,2.0337315000069793,2.3001096000079997,2.3001096000079997,2.5001637999957893,2.3001096000079997,0.0,3.1752519000147004,0.8751423000067007,0.8751423000067007,0.8056,0.08477121630133719,-0.12110173757333884,None,ahmed_high0_cont,001,2023-04-29_14h47.24.687,expectation_shapes_perceived_time,2022.2.4,119.99587212453673,
-233,0.8,met,green,red,1787.0841069314415,,,,,0,93,93,272,trial,,,,,,green,1.7870841069314416,1.7833333333333332,-0.233,-0.23333333333333334,1.5207541069314416,1.5166666666666666,trial_list_0.8_green.csv,2.299906500003999,0.9974271999963094,3e-05,3e-05,0.03328,1.7834120000188705,1.8166799000173341,1.516672199999448,1.5500391999958083,1.9998136000067461,,2.299906500003999,2.299906500003999,2.4998897000041325,2.299906500003999,0.0,2.916732100013178,0.6168256000091787,0.6168256000091787,1.54103,-0.1465969448999703,0.019003307672218372,None,ahmed_high0_cont,001,2023-04-29_14h47.24.687,expectation_shapes_perceived_time,2022.2.4,119.99587212453673,
-167,0.8,met,green,red,570.843731397301,,,,,0,94,94,168,trial,,,,,,green,0.5708437313973009,0.5666666666666667,-0.167,-0.16666666666666666,0.370513731397301,0.36666666666666664,trial_list_0.8_green.csv,2.2998032000032254,0.9973355999973137,4e-05,4e-05,0.03341,0.5667773000022862,0.6000224000017624,0.36692200001562014,0.4001304999983404,1.9996509000193328,2.033224800019525,2.2998032000032254,2.2998032000032254,2.5000521000183653,2.2998032000032254,0.0,2.933152700017672,0.6333495000144467,0.6333495000144467,0.48884,0.1477325971090387,0.00518359989856276,None,ahmed_high0_cont,001,2023-04-29_14h47.24.687,expectation_shapes_perceived_time,2022.2.4,119.99587212453673,
167,0.8,met,green,red,1228.5317116907734,,,,,0,95,95,195,trial,,,,,,green,1.2285317116907735,1.225,0.167,0.16666666666666666,1.4288617116907734,1.425,trial_list_0.8_green.csv,2.3002220999915153,0.9964152999746148,4e-05,4e-05,,1.2250906999979634,1.2583509999967646,1.4250803999893833,1.4583619999757502,2.000040299986722,,2.3002220999915153,2.3002220999915153,2.4999401999812108,2.533372799982317,0.2331506999908015,3.433457599981921,1.1332354999904055,0.900084799999604,1.43628,-0.14487156108702323,-0.02939422978577283,None,ahmed_high0_cont,001,2023-04-29_14h47.24.687,expectation_shapes_perceived_time,2022.2.4,119.99587212453673,
-167,0.8,met,green,red,1341.339157677782,,,,,0,96,96,480,trial,,,,,,green,1.341339157677782,1.3416666666666666,-0.167,-0.16666666666666666,1.141009157677782,1.1416666666666666,trial_list_0.8_green.csv,2.2998271000105888,0.9974840999930166,4e-05,4e-05,0.03323,1.3417409000103362,1.3750469000078738,1.1415396000084002,1.1749547000217717,2.000010600022506,2.0332469000131823,2.2998271000105888,2.2998271000105888,2.499983700021403,2.2998271000105888,0.0,3.0412833000009414,0.7414561999903526,0.7414561999903526,1.14615,-0.06551244481519093,-0.1325138088307271,None,ahmed_high0_cont,001,2023-04-29_14h47.24.687,expectation_shapes_perceived_time,2022.2.4,119.99587212453673,
-300,0.1999999999999999,unmet,red,green,1426.116648077943,,,,,0,97,97,45,trial,,,,,,red,1.426116648077943,1.425,-0.3,-0.3,1.0927866480779431,1.0916666666666666,trial_list_0.8_green.csv,2.300156000012066,0.9977202000154648,3e-05,3e-05,0.03321,1.4247549000137951,1.458407400001306,1.091465600009542,1.1250696000060998,1.9998452000145335,2.0333033000060823,2.300156000012066,2.300156000012066,2.4998042000224814,2.308390899997903,0.008234899985836819,3.3248728000035044,1.0247167999914382,1.0164819000056013,1.22556,-0.09620226476688626,-0.1122359755613673,None,ahmed_high0_cont,001,2023-04-29_14h47.24.687,expectation_shapes_perceived_time,2022.2.4,119.99587212453673,
300,0.1999999999999999,unmet,red,green,581.7930790351173,,,,,0,98,98,54,trial,,,,,,red,0.5817930790351173,0.5833333333333334,0.3,0.3,0.9151230790351174,0.9166666666666666,trial_list_0.8_green.csv,2.300231800007168,0.996737600013148,8e-05,8e-05,,0.583201100002043,0.6166251999966335,0.9164816999982577,0.9498121000069659,2.00024900000426,,2.300231800007168,2.300231800007168,2.4998478000052273,2.3083804000052623,0.008148599998094141,2.7414740000094753,0.4412422000023071,0.43309360000421293,0.58656,0.1423912982574978,-0.03970526586026381,None,ahmed_high0_cont,001,2023-04-29_14h47.24.687,expectation_shapes_perceived_time,2022.2.4,119.99587212453673,
33,0.1999999999999999,unmet,red,green,1614.2993313029574,,,,,0,99,99,380,trial,,,,,,red,1.6142993313029574,1.6166666666666667,0.033,0.03333333333333333,1.6806293313029572,1.6833333333333333,trial_list_0.8_green.csv,2.299954500020249,0.997253700013971,3e-05,3e-05,,1.616272100014612,1.6494565000175498,1.6833031999995,1.7164330999949016,1.999911399994744,,2.299954500020249,2.299954500020249,2.499680900014937,2.299954500020249,0.0,2.983055599994259,0.6831010999740101,0.6831010999740101,1.74705,-0.10549032667293554,0.1035547243486615,None,ahmed_high0_cont,001,2023-04-29_14h47.24.687,expectation_shapes_perceived_time,2022.2.4,119.99587212453673,
-300,0.8,met,green,red,1738.5213737689642,0,0,0,0,0,100,100,339,fam,0.5562241000006907,0.5562241000006907,270.0,2.55630110000493,2.55630110000493,,,,,,,,,,,,,,,,,,,,,,,,,,,,,,,,ahmed_high0_cont,001,2023-04-29_14h47.24.687,expectation_shapes_perceived_time,2022.2.4,119.99587212453673,
-300,0.8,met,green,red,1738.5213737689642,1,0,1,0,0,100,100,339,fam,0.49816529999952763,0.49816529999952763,270.0,2.498299799975939,2.498299799975939,,,,,,,,,,,,,,,,,,,,,,,,,,,,,,,,ahmed_high0_cont,001,2023-04-29_14h47.24.687,expectation_shapes_perceived_time,2022.2.4,119.99587212453673,
-300,0.8,met,green,red,1738.5213737689642,2,0,2,0,0,100,100,339,fam,0.49812180001754314,0.49812180001754314,270.0,2.4982424000045285,2.4982424000045285,,,,,,,,,,,,,,,,,,,,,,,,,,,,,,,,ahmed_high0_cont,001,2023-04-29_14h47.24.687,expectation_shapes_perceived_time,2022.2.4,119.99587212453673,
-300,0.8,met,green,red,1738.5213737689642,3,0,3,0,0,100,100,339,fam,0.4976105999958236,0.4976105999958236,270.0,2.497415699996054,2.497415699996054,,,,,,,,,,,,,,,,,,,,,,,,,,,,,,,,ahmed_high0_cont,001,2023-04-29_14h47.24.687,expectation_shapes_perceived_time,2022.2.4,119.99587212453673,
-300,0.8,met,green,red,1738.5213737689642,,,,,0,100,100,339,trial,,,,,,green,1.7385213737689642,1.7416666666666667,-0.3,-0.3,1.4051913737689643,1.4083333333333332,trial_list_0.8_green.csv,2.2999529000080656,0.9979441000032239,2e-05,2e-05,0.0333,1.741614300000947,1.7753147000039462,1.4083918000105768,1.4415903000044636,2.0000604999950156,2.0334772000205703,2.2999529000080656,2.2999529000080656,2.499888499994995,2.4248687000072096,0.12491579999914393,3.0248335000069346,0.724880599998869,0.5999647999997251,1.47199,-0.14725141033361303,-0.012992771500024678,None,ahmed_high0_cont,001,2023-04-29_14h47.24.687,expectation_shapes_perceived_time,2022.2.4,119.99587212453673,
300,0.8,met,green,red,873.654194185323,,,,,0,101,101,216,trial,,,,,,green,0.8736541941853231,0.875,0.3,0.3,1.2069841941853228,1.2083333333333333,trial_list_0.8_green.csv,2.299630599998636,0.9975503000023309,4e-05,4e-05,0.03315,0.8746359000215307,0.9082369999960065,1.207783300022129,1.2410860999953002,1.9995791999972425,2.0329250000067987,2.299630599998636,2.299630599998636,2.4995250000210945,2.466333600023063,0.16670300002442673,2.874685600021621,0.575055000022985,0.4083519999985583,1.07701,-0.03541373938303445,-0.1435188385522975,None,ahmed_high0_cont,001,2023-04-29_14h47.24.687,expectation_shapes_perceived_time,2022.2.4,119.99587212453673,
-167,0.1999999999999999,unmet,red,green,1347.2722347142485,,,,,0,102,102,346,trial,,,,,,red,1.3472722347142485,1.35,-0.167,-0.16666666666666666,1.1469422347142486,1.15,trial_list_0.8_green.csv,2.299768500000937,0.9975151999969967,4e-05,4e-05,0.03332,1.3497743000043556,1.382942099997308,1.149557199998526,1.1833180999965407,1.9997064000053797,2.0330688999965787,2.299768500000937,2.299768500000937,2.499756699980935,2.299768500000937,0.0,2.9747794999857433,0.6750109999848064,0.6750109999848064,1.02371,-0.011001014462749568,-0.14741359380084423,None,ahmed_high0_cont,001,2023-04-29_14h47.24.687,expectation_shapes_perceived_time,2022.2.4,119.99587212453673,
-100,0.8,met,green,red,741.8796257522094,,,,,0,103,103,72,trial,,,,,,green,0.7418796257522094,0.7416666666666667,-0.1,-0.1,0.6085496257522094,0.6083333333333333,trial_list_0.8_green.csv,2.3000562000088394,0.9968283999769483,4e-05,4e-05,0.03318,0.7417646000103559,0.7748382000136189,0.6081242999935057,0.6414979000110179,2.0000096000148915,2.0333142000017688,2.3000562000088394,2.3000562000088394,2.4998340999882203,2.3000562000088394,0.0,2.9665074000076856,0.6664511999988463,0.6664511999988463,0.73461,0.10945670314441922,-0.09935300746954975,None,ahmed_high0_cont,001,2023-04-29_14h47.24.687,expectation_shapes_perceived_time,2022.2.4,119.99587212453673,
-233,0.8,met,green,red,859.954728131526,,,,,0,104,104,10,trial,,,,,,green,0.8599547281315261,0.8583333333333333,-0.233,-0.23333333333333334,0.593624728131526,0.5916666666666667,trial_list_0.8_green.csv,2.299975700007053,0.9977951000037137,6e-05,6e-05,0.03363,0.8586855000176001,0.8916433000122197,0.5918709000106901,0.6252459000097588,1.9999410000164062,2.033341600006679,2.299975700007053,2.299975700007053,2.499941000016406,2.299975700007053,0.0,2.791433300008066,0.4914576000010129,0.4914576000010129,0.64919,0.13188180213075323,-0.06677559601557126,None,ahmed_high0_cont,001,2023-04-29_14h47.24.687,expectation_shapes_perceived_time,2022.2.4,119.99587212453673,
-100,0.1999999999999999,unmet,red,green,715.7475450021101,,,,,0,105,105,222,trial,,,,,,red,0.7157475450021101,0.7166666666666667,-0.1,-0.1,0.5824175450021101,0.5833333333333334,trial_list_0.8_green.csv,2.300255299982382,0.9980296000139788,2e-05,2e-05,0.03343,0.7167373999836855,0.7498450999846682,0.5838774000003468,0.6173342999827582,2.0001307999773417,2.0334899999725167,2.300255299982382,2.300255299982382,2.5002129999920726,2.30848189999233,0.008226600009948015,3.141723799984902,0.8414685000025202,0.8332418999925721,0.83743,0.07225762233942581,-0.12895978431411412,None,ahmed_high0_cont,001,2023-04-29_14h47.24.687,expectation_shapes_perceived_time,2022.2.4,119.99587212453673,
-233,0.8,met,green,red,1618.6327444934373,,,,,0,106,106,368,trial,,,,,,green,1.6186327444934372,1.6166666666666667,-0.233,-0.23333333333333334,1.3523027444934372,1.35,trial_list_0.8_green.csv,2.300094399979571,0.997393400000874,3e-05,3e-05,0.03341,1.617086999991443,1.6499572999891825,1.3505108999961521,1.383597899985034,2.0000416999973822,2.0333936999959406,2.300094399979571,2.300094399979571,2.5029585999727715,2.300094399979571,0.0,2.783459699974628,0.4833652999950573,0.4833652999950573,0.83211,0.07440209125091893,-0.12773456374051567,None,ahmed_high0_cont,001,2023-04-29_14h47.24.687,expectation_shapes_perceived_time,2022.2.4,119.99587212453673,
-100,0.8,met,green,red,1546.7400211367485,,,,,0,107,107,246,trial,,,,,,green,1.5467400211367486,1.55,-0.1,-0.1,1.4134100211367486,1.4166666666666667,trial_list_0.8_green.csv,2.3001065000134986,0.9971819999918807,3e-05,3e-05,,1.5498716000001878,1.583264600019902,1.4167435000126716,1.4500117000134196,1.9999561000149697,,2.3001065000134986,2.3001065000134986,2.5003448000061326,2.3001065000134986,0.0,2.758545700024115,0.45843920001061633,0.45843920001061633,1.63868,-0.1340141419050534,0.062385893645455895,None,ahmed_high0_cont,001,2023-04-29_14h47.24.687,expectation_shapes_perceived_time,2022.2.4,119.99587212453673,
33,0.8,met,green,red,1277.7354394103972,,,,,0,108,108,128,trial,,,,,,green,1.2777354394103972,1.275,0.033,0.03333333333333333,1.3440654394103972,1.3416666666666666,trial_list_0.8_green.csv,2.299876100005349,0.9973645000136457,5e-05,5e-05,,1.2749291000072844,1.3083451999991667,1.3416013999958523,1.3749863000120968,1.9997509999957401,,2.299876100005349,2.299876100005349,2.499746999994386,2.341384500003187,0.04150839999783784,2.958127699996112,0.6582515999907628,0.6167431999929249,1.70483,-0.11825880758807587,0.0886941056910569,None,ahmed_high0_cont,001,2023-04-29_14h47.24.687,expectation_shapes_perceived_time,2022.2.4,119.99587212453673,
-233,0.8,met,green,red,1381.0324776298664,,,,,0,109,109,384,trial,,,,,,green,1.3810324776298664,1.3833333333333333,-0.233,-0.23333333333333334,1.1147024776298664,1.1166666666666667,trial_list_0.8_green.csv,2.2995811000000685,0.9985224999836646,4e-05,4e-05,0.03327,1.3829115999978967,1.4162846000108402,1.1162330000079237,1.1496345000050496,1.99958550001611,2.0329206000023987,2.2995811000000685,2.2995811000000685,2.4995754999981727,2.424661600001855,0.12508050000178628,2.9995774000126403,0.6999963000125717,0.5749158000107855,1.53631,-0.14686254920175906,0.016828000429368228,None,ahmed_high0_cont,001,2023-04-29_14h47.24.687,expectation_shapes_perceived_time,2022.2.4,119.99587212453673,
167,0.8,met,green,red,885.7219805441827,,,,,0,110,110,328,trial,,,,,,green,0.8857219805441826,0.8833333333333333,0.167,0.16666666666666666,1.0860519805441826,1.0833333333333333,trial_list_0.8_green.csv,2.3001089000026695,0.9974275999993552,3e-05,3e-05,0.03334,0.8837460000067949,0.9168654999812134,1.0836822999990545,1.1170855999807827,2.0000162000069395,2.0334430999937467,2.3001089000026695,2.3001089000026695,2.5000280999811366,2.3001089000026695,0.0,2.916659599984996,0.6165506999823265,0.6165506999823265,1.23843,-0.10065949419456408,-0.1082564371526444,None,ahmed_high0_cont,001,2023-04-29_14h47.24.687,expectation_shapes_perceived_time,2022.2.4,119.99587212453673,
-233,0.8,met,green,red,822.4256095933736,,,,,0,111,111,418,trial,,,,,,green,0.8224256095933735,0.825,-0.233,-0.23333333333333334,0.5560956095933736,0.5583333333333333,trial_list_0.8_green.csv,2.300070900004357,0.9975927000050433,3e-05,3e-05,0.03326,0.8249020999937784,0.858298700011801,0.5583125000121072,0.5915749999985565,1.9998529000149574,2.033681800006889,2.300070900004357,2.300070900004357,2.499931900005322,2.300070900004357,0.0,2.7831708999874536,0.4830999999830965,0.4830999999830965,0.69814,0.12009770614066059,-0.0861877655832976,None,ahmed_high0_cont,001,2023-04-29_14h47.24.687,expectation_shapes_perceived_time,2022.2.4,119.99587212453673,
-233,0.8,met,green,red,1411.053020353983,,,,,0,112,112,55,trial,,,,,,green,1.4110530203539828,1.4083333333333332,-0.233,-0.23333333333333334,1.1447230203539829,1.1416666666666666,trial_list_0.8_green.csv,2.299951900000451,0.9969968000077643,2e-05,2e-05,0.03297,1.4079649999912363,1.4413444999954663,1.1416800000006333,1.1751549000036903,1.9998966999992263,2.033444500004407,2.299951900000451,2.299951900000451,2.499791100010043,2.4665520999988075,0.1666001999983564,3.058319700008724,0.7583678000082728,0.5917676000099164,0.72609,0.11207759655843856,-0.09638673304025716,None,ahmed_high0_cont,001,2023-04-29_14h47.24.687,expectation_shapes_perceived_time,2022.2.4,119.99587212453673,
-100,0.1999999999999999,unmet,red,green,1677.1215883851607,,,,,0,113,113,337,trial,,,,,,red,1.6771215883851607,1.675,-0.1,-0.1,1.5437915883851607,1.5416666666666667,trial_list_0.8_green.csv,2.299895000003744,0.9979313999938313,4e-05,4e-05,0.03336,1.6746863999869674,1.7084000000031665,1.5416190999967512,1.5751383999886457,1.9998469999991357,2.0334337999811396,2.299895000003744,2.299895000003744,2.4997858999995515,2.299895000003744,0.0,3.033153600001242,0.7332585999974981,0.7332585999974981,1.67931,-0.12498313687674119,0.07893671802741549,None,ahmed_high0_cont,001,2023-04-29_14h47.24.687,expectation_shapes_perceived_time,2022.2.4,119.99587212453673,
300,0.8,met,green,red,244.56347379956003,,,,,0,114,114,466,trial,,,,,,green,0.24456347379956003,0.24166666666666667,0.3,0.3,0.57789347379956,0.575,trial_list_0.8_green.csv,2.3000666000007186,0.9969448999909218,2e-05,2e-05,,0.2415585000126157,0.27486340000177734,0.5746988999890164,0.6082212000037543,1.9999396000057459,,2.3000666000007186,2.3000666000007186,2.499819099990418,2.3081781000073534,0.008111500006634742,2.9083206999930553,0.6082540999923367,0.600142599985702,0.37935,0.13733079971301054,0.05469955581789403,None,ahmed_high0_cont,001,2023-04-29_14h47.24.687,expectation_shapes_perceived_time,2022.2.4,119.99587212453673,
-300,0.1999999999999999,unmet,red,green,1529.9918865461473,,,,,0,115,115,286,trial,,,,,,red,1.5299918865461473,1.5333333333333332,-0.3,-0.3,1.1966618865461474,1.2,trial_list_0.8_green.csv,2.300047299999278,0.9965053999912925,4e-05,4e-05,0.03325,1.5331359999836423,1.5666390999977011,1.199667299981229,1.2332867999793962,2.000251199991908,2.0337087999796495,2.300047299999278,2.300047299999278,2.4999969999771565,2.300047299999278,0.0,2.958368999999948,0.6583217000006698,0.6583217000006698,1.50994,-0.14775138285992512,0.00461723071437266,None,ahmed_high0_cont,001,2023-04-29_14h47.24.687,expectation_shapes_perceived_time,2022.2.4,119.99587212453673,
167,0.8,met,green,red,1063.230756768136,,,,,0,116,116,106,trial,,,,,,green,1.063230756768136,1.0666666666666667,0.167,0.16666666666666666,1.263560756768136,1.2666666666666666,trial_list_0.8_green.csv,2.3000339999853168,0.9972254999738652,6e-05,6e-05,0.0334,1.0666024999809451,1.1001421999826562,1.2668117999855895,1.3000717999821063,1.9995971999887843,2.033191499998793,2.3000339999853168,2.3000339999853168,2.499888299993472,2.3000339999853168,0.0,3.033096300001489,0.7330623000161722,0.7330623000161722,1.10826,-0.04931076679717315,-0.1393565148615763,None,ahmed_high0_cont,001,2023-04-29_14h47.24.687,expectation_shapes_perceived_time,2022.2.4,119.99587212453673,
167,0.1999999999999999,unmet,red,green,1215.8935190491177,,,,,0,117,117,159,trial,,,,,,red,1.2158935190491176,1.2166666666666666,0.167,0.16666666666666666,1.4162235190491177,1.4166666666666667,trial_list_0.8_green.csv,2.2998987000028137,0.9955390999966767,3e-05,3e-05,,1.21670799999265,1.2499968000047375,1.4167931999836583,1.4501050999970175,1.9999109999916982,,2.2998987000028137,2.2998987000028137,2.499632599996403,2.2998987000028137,0.0,2.7748686999839265,0.4749699999811128,0.4749699999811128,0.79859,0.08741745213938275,-0.11920561655370376,None,ahmed_high0_cont,001,2023-04-29_14h47.24.687,expectation_shapes_perceived_time,2022.2.4,119.99587212453673,
100,0.8,met,green,red,1442.5129526555868,,,,,0,118,118,489,trial,,,,,,green,1.4425129526555869,1.4416666666666667,0.1,0.1,1.5758429526555866,1.575,trial_list_0.8_green.csv,2.2999206999957096,0.996173399995314,4e-05,4e-05,0.0336,1.4418843000021297,1.4752309000177775,1.5751885999925435,1.60851819999516,1.9999953999940772,2.033485299994936,2.2999206999957096,2.2999206999957096,2.4999486000160687,2.2999206999957096,0.0,3.225152099999832,0.9252314000041224,0.9252314000041224,1.66264,-0.12894357254103608,0.07228654824270205,None,ahmed_high0_cont,001,2023-04-29_14h47.24.687,expectation_shapes_perceived_time,2022.2.4,119.99587212453673,
-300,0.8,met,green,red,1666.404491632771,,,,,0,119,119,306,trial,,,,,,green,1.666404491632771,1.6666666666666667,-0.3,-0.3,1.333074491632771,1.3333333333333333,trial_list_0.8_green.csv,2.300014200009173,0.9973841999890283,3e-05,3e-05,,1.6666479000123218,1.7002280000015162,1.3335080000106245,1.3666585000173654,2.0001037000038195,,2.300014200009173,2.300014200009173,2.4998068000131752,2.300014200009173,0.0,2.8747722000116482,0.5747580000024755,0.5747580000024755,0.46662,0.14701128625290602,0.015474872237148002,None,ahmed_high0_cont,001,2023-04-29_14h47.24.687,expectation_shapes_perceived_time,2022.2.4,119.99587212453673,
-100,0.8,met,green,red,1595.5498458392449,,,,,0,120,120,408,trial,,,,,,green,1.595549845839245,1.5916666666666666,-0.1,-0.1,1.462219845839245,1.4583333333333333,trial_list_0.8_green.csv,2.2999349999881815,0.9976533000008203,4e-05,4e-05,0.03334,1.5913978999888059,1.6247978000028525,1.458151099999668,1.4915691000060178,1.9998306999914348,2.033141199994134,2.2999349999881815,2.2999349999881815,2.499921999988146,2.2999349999881815,0.0,3.0751339999842457,0.7751989999960642,0.7751989999960642,1.65445,-0.13076010881581016,0.06894623919379081,None,ahmed_high0_cont,001,2023-04-29_14h47.24.687,expectation_shapes_perceived_time,2022.2.4,119.99587212453673,
-300,0.8,met,green,red,911.5270615889464,,,,,0,121,121,318,trial,,,,,,green,0.9115270615889464,0.9083333333333333,-0.3,-0.3,0.5781970615889463,0.575,trial_list_0.8_green.csv,2.2999061000009533,0.9964092999871355,3e-05,3e-05,,0.908232699992368,0.9418108999961987,0.5748475000145845,0.6084776000061538,1.999673200014513,,2.2999061000009533,2.2999061000009533,2.499738400016213,2.2999061000009533,0.0,2.7747381000081077,0.4748320000071544,0.4748320000071544,1.10539,-0.04805443224390533,-0.13979471198227006,None,ahmed_high0_cont,001,2023-04-29_14h47.24.687,expectation_shapes_perceived_time,2022.2.4,119.99587212453673,
-100,0.1999999999999999,unmet,red,green,923.2286847099406,,,,,0,122,122,271,trial,,,,,,red,0.9232286847099406,0.9249999999999999,-0.1,-0.1,0.7898986847099405,0.7916666666666666,trial_list_0.8_green.csv,2.3000370000081602,0.997365399991395,3e-05,3e-05,0.0334,0.9248935999930836,0.9581940000061877,0.7916474000085145,0.8250233000144362,1.9998607000161428,2.0333492000063416,2.3000370000081602,2.3000370000081602,2.499995099991793,2.716579800006002,0.41654279999784194,3.0832184000173584,0.7831814000091981,0.3666386000113562,0.74552,0.1059887051821298,-0.1030445744826262,None,ahmed_high0_cont,001,2023-04-29_14h47.24.687,expectation_shapes_perceived_time,2022.2.4,119.99587212453673,
300,0.8,met,green,red,945.0559630786048,,,,,0,123,123,237,trial,,,,,,green,0.9450559630786048,0.9416666666666667,0.3,0.3,1.2783859630786045,1.275,trial_list_0.8_green.csv,2.3002344999986235,0.9974187999905553,3e-05,3e-05,0.03334,0.9417264999938197,0.9749888000078499,1.2751532999973278,1.3083447999961209,2.000045199994929,2.0334958999883384,2.3002344999986235,2.3002344999986235,2.500248600001214,2.3002344999986235,0.0,3.0083236999926157,0.7080891999939922,0.7080891999939922,1.14573,-0.0653388732731552,-0.1325994781131679,None,ahmed_high0_cont,001,2023-04-29_14h47.24.687,expectation_shapes_perceived_time,2022.2.4,119.99587212453673,
-300,0.1999999999999999,unmet,red,green,470.7552089788835,,,,,0,124,124,282,trial,,,,,,red,0.4707552089788835,0.4666666666666667,-0.3,-0.3,0.13742520897888352,0.13333333333333333,trial_list_0.8_green.csv,2.299849999981234,0.996990800020285,6e-05,6e-05,0.03346,0.46666219999315217,0.5000742999836802,0.13288879999890924,0.1662644000025466,1.9999236000003293,2.0332887999829836,2.299849999981234,2.299849999981234,2.4999475000076927,2.450842599995667,0.15099260001443326,3.0246352999820374,0.7247853000008035,0.5737926999863703,0.65862,0.12984651039634204,-0.0706517777156567,None,ahmed_high0_cont,001,2023-04-29_14h47.24.687,expectation_shapes_perceived_time,2022.2.4,119.99587212453673,
300,0.8,met,green,red,1263.2951185217064,0,0,0,0,0,125,125,85,fam,0.5641012000269257,0.5641012000269257,270.0,2.5640533000114374,2.5640533000114374,,,,,,,,,,,,,,,,,,,,,,,,,,,,,,,,ahmed_high0_cont,001,2023-04-29_14h47.24.687,expectation_shapes_perceived_time,2022.2.4,119.99587212453673,
300,0.8,met,green,red,1263.2951185217064,1,0,1,0,0,125,125,85,fam,0.4975030999921728,0.4975030999921728,270.0,2.4976610000012442,2.4976610000012442,,,,,,,,,,,,,,,,,,,,,,,,,,,,,,,,ahmed_high0_cont,001,2023-04-29_14h47.24.687,expectation_shapes_perceived_time,2022.2.4,119.99587212453673,
300,0.8,met,green,red,1263.2951185217064,2,0,2,0,0,125,125,85,fam,0.4966061000013724,0.4966061000013724,270.0,2.49721140001202,2.49721140001202,,,,,,,,,,,,,,,,,,,,,,,,,,,,,,,,ahmed_high0_cont,001,2023-04-29_14h47.24.687,expectation_shapes_perceived_time,2022.2.4,119.99587212453673,
300,0.8,met,green,red,1263.2951185217064,3,0,3,0,0,125,125,85,fam,0.49699120002333075,0.49699120002333075,270.0,2.4970066000241786,2.4970066000241786,,,,,,,,,,,,,,,,,,,,,,,,,,,,,,,,ahmed_high0_cont,001,2023-04-29_14h47.24.687,expectation_shapes_perceived_time,2022.2.4,119.99587212453673,
300,0.8,met,green,red,1263.2951185217064,,,,,0,125,125,85,trial,,,,,,green,1.2632951185217065,1.2666666666666666,0.3,0.3,1.5966251185217064,1.6,trial_list_0.8_green.csv,2.299943899997743,0.9984342000097968,4e-05,4e-05,,1.2668655999877956,1.30000079999445,1.6000313000113238,1.6331993000057992,2.000137700000778,,2.299943899997743,2.299943899997743,2.499798600008944,2.308260899997549,0.008316999999806285,2.9080131000082474,0.6080692000105046,0.5997522000106983,0.75,0.10452700597570448,-0.10452700597570448,None,ahmed_high0_cont,001,2023-04-29_14h47.24.687,expectation_shapes_perceived_time,2022.2.4,119.99587212453673,
-167,0.8,met,green,red,696.9173900967019,,,,,0,126,126,275,trial,,,,,,green,0.6969173900967018,0.7,-0.167,-0.16666666666666666,0.4965873900967019,0.5,trial_list_0.8_green.csv,2.300209700013511,0.9981341999955475,3e-05,3e-05,0.0333,0.7000771999883,0.7336993000062648,0.5000707999861334,0.5334296000073664,2.000125799997477,2.0334493000118528,2.300209700013511,2.300209700013511,2.5003289000014775,2.3085859999991953,0.008376299985684454,2.733521299989661,0.4333115999761503,0.42493529999046586,0.56134,0.14508738383984227,-0.028309733432164346,None,ahmed_high0_cont,001,2023-04-29_14h47.24.687,expectation_shapes_perceived_time,2022.2.4,119.99587212453673,
-33,0.1999999999999999,unmet,red,green,824.2095429906752,,,,,0,127,127,371,trial,,,,,,red,0.8242095429906753,0.825,-0.033,-0.03333333333333333,0.7578795429906752,0.7583333333333333,trial_list_0.8_green.csv,2.3000170000013895,0.9972193999856245,7e-05,7e-05,,0.8252300999884028,0.8584737000055611,0.7585384999983944,0.7918863999948371,2.000297899998259,,2.3000170000013895,2.3000170000013895,2.5002840999804903,2.30838629999198,0.008369299990590662,2.967008799983887,0.6669917999824975,0.6586224999919068,0.63964,0.13382656542003885,-0.06278726259653297,None,ahmed_high0_cont,001,2023-04-29_14h47.24.687,expectation_shapes_perceived_time,2022.2.4,119.99587212453673,
-233,0.8,met,green,red,867.3749480076932,,,,,0,128,128,359,trial,,,,,,green,0.8673749480076932,0.8666666666666667,-0.233,-0.23333333333333334,0.6010449480076931,0.6,trial_list_0.8_green.csv,2.29994950001128,0.996206899988465,3e-05,3e-05,0.03322,0.8665474000154063,0.9003095000225585,0.5999372000223957,0.6332745000254363,2.0000762000272516,2.0335676000104286,2.29994950001128,2.29994950001128,2.4999547000043094,2.308283200021833,0.008333700010553002,3.058334500005003,0.7583849999937229,0.7500512999831699,1.15081,-0.06744461706748403,-0.13154091981246888,None,ahmed_high0_cont,001,2023-04-29_14h47.24.687,expectation_shapes_perceived_time,2022.2.4,119.99587212453673,
-33,0.8,met,green,red,654.0272389303068,,,,,0,129,129,42,trial,,,,,,green,0.6540272389303068,0.65,-0.033,-0.03333333333333333,0.5876972389303068,0.5916666666666667,trial_list_0.8_green.csv,2.2996847000031266,0.9969281999801751,4e-05,4e-05,0.03325,0.6497928000171669,0.6833673000219278,0.591457900009118,0.6247789000044577,1.9998254000092857,2.0332414000004064,2.2996847000031266,2.2996847000031266,2.4993818000075407,2.3077971000166144,0.008112400013487786,2.9413406000239775,0.6416559000208508,0.633543500007363,0.68353,0.12392430497985293,-0.08058881182738904,None,ahmed_high0_cont,001,2023-04-29_14h47.24.687,expectation_shapes_perceived_time,2022.2.4,119.99587212453673,
300,0.8,met,green,red,1376.9710056233566,,,,,0,130,130,437,trial,,,,,,green,1.3769710056233566,1.375,0.3,0.3,1.7103010056233565,1.7083333333333333,trial_list_0.8_green.csv,2.3001160999992862,0.9978675999736879,3e-05,3e-05,0.03337,1.3751012000138871,1.408643500006292,1.7084095999889541,1.741712599992752,2.0001004000077955,2.03358049999224,2.3001160999992862,2.3001160999992862,2.5000723999983165,2.3001160999992862,0.0,2.95842390001053,0.6583078000112437,0.6583078000112437,1.15244,-0.06811933053137179,-0.13119278472708643,None,ahmed_high0_cont,001,2023-04-29_14h47.24.687,expectation_shapes_perceived_time,2022.2.4,119.99587212453673,
-100,0.8,met,green,red,790.2152269954624,,,,,0,131,131,298,trial,,,,,,green,0.7902152269954624,0.7916666666666666,-0.1,-0.1,0.6568852269954624,0.6583333333333333,trial_list_0.8_green.csv,2.299552999989828,0.9966140000033192,2e-05,2e-05,0.03319,0.7913798999798018,0.8246983999852091,0.6581245999841485,0.6912772999785375,1.9997380999848247,2.0332865999953356,2.299552999989828,2.299552999989828,2.499492699978873,2.299552999989828,0.0,2.8078461999830324,0.5082931999932043,0.5082931999932043,0.61718,0.1379195794948272,-0.053197552090861924,None,ahmed_high0_cont,001,2023-04-29_14h47.24.687,expectation_shapes_perceived_time,2022.2.4,119.99587212453673,
100,0.8,met,green,red,514.2951122164527,,,,,0,132,132,293,trial,,,,,,green,0.5142951122164527,0.5166666666666666,0.1,0.1,0.6476251122164528,0.65,trial_list_0.8_green.csv,2.2999819999968167,0.9967818000004627,3e-05,3e-05,0.03333,0.5167087999871001,0.5499860999989323,0.6500098000105936,0.6834098999970593,2.00002089998452,2.033373999991454,2.2999819999968167,2.2999819999968167,2.4998841999913566,2.2999819999968167,0.0,2.841665699990699,0.5416836999938823,0.5416836999938823,0.63194,0.13530508037719657,-0.05953423536596649,None,ahmed_high0_cont,001,2023-04-29_14h47.24.687,expectation_shapes_perceived_time,2022.2.4,119.99587212453673,
33,0.8,met,green,red,1255.7975633146625,,,,,0,133,133,150,trial,,,,,,green,1.2557975633146625,1.2583333333333333,0.033,0.03333333333333333,1.3221275633146625,1.325,trial_list_0.8_green.csv,2.3001442000095267,0.996192799997516,3e-05,3e-05,0.03334,1.2583311000198592,1.291624600009527,1.325017700000899,1.358353999996325,1.999871300009545,2.0331876999989618,2.3001442000095267,2.3001442000095267,2.499876599991694,2.3001442000095267,0.0,2.7833395000197925,0.4831953000102658,0.4831953000102658,0.8196,0.07936281941253046,-0.12471300193397643,None,ahmed_high0_cont,001,2023-04-29_14h47.24.687,expectation_shapes_perceived_time,2022.2.4,119.99587212453673,
-33,0.8,met,green,red,1667.514585312528,,,,,0,134,134,0,trial,,,,,,green,1.667514585312528,1.6666666666666667,-0.033,-0.03333333333333333,1.601184585312528,1.6,trial_list_0.8_green.csv,2.300141199986683,0.9970182999968529,2e-05,2e-05,,1.6666413999919314,1.699953999981517,1.6001499999838416,1.6335991999949329,2.0000093999842647,,2.300141199986683,2.300141199986683,2.5003660999936983,2.300141199986683,0.0,2.8672119999828283,0.5670707999961451,0.5670707999961451,1.22066,-0.09446213387632597,-0.11370442040668867,None,ahmed_high0_cont,001,2023-04-29_14h47.24.687,expectation_shapes_perceived_time,2022.2.4,119.99587212453673,
-233,0.8,met,green,red,403.3398531612008,,,,,0,135,135,307,trial,,,,,,green,0.4033398531612008,0.4,-0.233,-0.23333333333333334,0.1370098531612008,0.13333333333333333,trial_list_0.8_green.csv,2.2996910999936517,0.9973187999858055,4e-05,4e-05,0.03274,0.39959430001908913,0.43282889999682084,0.1333341000135988,0.16662360000191256,1.9998956000199541,2.0331438000139315,2.2996910999936517,2.2996910999936517,2.4999741000065114,2.2996910999936517,0.0,3.0828520999930333,0.7831609999993816,0.7831609999993816,1.06636,-0.030593345246272458,-0.1446230866187425,None,ahmed_high0_cont,001,2023-04-29_14h47.24.687,expectation_shapes_perceived_time,2022.2.4,119.99587212453673,
-167,0.1999999999999999,unmet,red,green,1582.0363919654667,,,,,0,136,136,409,trial,,,,,,red,1.5820363919654667,1.5833333333333333,-0.167,-0.16666666666666666,1.3817063919654669,1.3833333333333333,trial_list_0.8_green.csv,2.2992909000022337,0.9986651999934111,2e-05,2e-05,,1.5829602000012528,1.6163131000066642,1.382762900000671,1.416073200001847,1.9998729000217281,,2.2992909000022337,2.2992909000022337,2.4994419000286143,2.2992909000022337,0.0,2.8828862000082154,0.5835953000059817,0.5835953000059817,1.54589,-0.14629024512867636,0.02123568074448528,None,ahmed_high0_cont,001,2023-04-29_14h47.24.687,expectation_shapes_perceived_time,2022.2.4,119.99587212453673,
100,0.8,met,green,red,620.1563423850985,,,,,0,137,137,350,trial,,,,,,green,0.6201563423850984,0.6166666666666667,0.1,0.1,0.7534863423850985,0.75,trial_list_0.8_green.csv,2.3001030999876093,0.9977336000010837,3e-05,3e-05,0.03363,0.6167814999935217,0.650184199999785,0.7503621999931056,0.7836936000094283,2.0000858000130393,2.0333996000117622,2.3001030999876093,2.3001030999876093,2.5001752999960445,2.3001030999876093,0.0,2.7834429999929853,0.48333990000537597,0.48333990000537597,0.65471,0.13070456909728023,-0.06905147046648766,None,ahmed_high0_cont,001,2023-04-29_14h47.24.687,expectation_shapes_perceived_time,2022.2.4,119.99587212453673,
-300,0.8,met,green,red,872.4139005084496,,,,,0,138,138,263,trial,,,,,,green,0.8724139005084496,0.875,-0.3,-0.3,0.5390839005084496,0.5416666666666666,trial_list_0.8_green.csv,2.2999549000232946,0.9973105999815743,3e-05,3e-05,0.03331,0.8750703000114299,0.908238900010474,0.5414773000229616,0.5748641999962274,1.9999237000010908,2.03335280000465,2.2999549000232946,2.2999549000232946,2.4999203000043053,2.2999549000232946,0.0,2.908144800021546,0.6081898999982513,0.6081898999982513,0.87783,0.05535444216455284,-0.13706814250270227,None,ahmed_high0_cont,001,2023-04-29_14h47.24.687,expectation_shapes_perceived_time,2022.2.4,119.99587212453673,
