id,delay,expectation,congruency,trial_num,stim_color,distractor_color,block,targetTimeMs,famLoop.thisRepN,famLoop.thisTrialN,famLoop.thisN,famLoop.thisIndex,trialss.thisRepN,trialss.thisTrialN,trialss.thisN,trialss.thisIndex,isTrial,handMove.started,audioCue2Start.started,handOri,handMove.ended,audioCue2End.started,target_color,expected_target_onset,expected_target_onset_in_frames,fixationPoint.started,fixationPoint.stopped,audCueStart.started,placeholder.started,audCueStart.stopped,target.started,target.stopped,audCueEnd.started,audCueEnd.stopped,responsePointer.started,cueForRep.started,space2pass.started,responseStarted,rtUntillMotionTreshold,responsePointer.stopped,rTAfterMotionTreshold,rtDurationBtwRespMotion,perceivedTime,resp_x_coord,resp_y_coord,feedbackPointer.stopped,actualTime_x_coord,actualTime_y_coord,space2pass.keys,space2pass.rt,expected_delay,expected_delays_frame,expected_distractor,expected_distractor_frame,expBlockFiles,distractor.started,distractor.stopped,participant,session,date,expName,psychopyVersion,frameRate,
,,,,,,,,,0,0,0,0,,,,,fam,0.6403401999850757,0.6403401999850757,270.0,2.640338099998189,2.640338099998189,,,,,,,,,,,,,,,,,,,,,,,,,,,,,,,,,,,,sarah_base0,001,2023-04-29_15h33.10.161,expectation_shapes_perceived_time,2022.2.4,120.19548592963454,
,,,,,,,,,1,0,1,0,,,,,fam,0.49609200001577847,0.49609200001577847,270.0,2.4960242000233848,2.4960242000233848,,,,,,,,,,,,,,,,,,,,,,,,,,,,,,,,,,,,sarah_base0,001,2023-04-29_15h33.10.161,expectation_shapes_perceived_time,2022.2.4,120.19548592963454,
,,,,,,,,,2,0,2,0,,,,,fam,0.4984714000020176,0.4984714000020176,270.0,2.498307300003944,2.498307300003944,,,,,,,,,,,,,,,,,,,,,,,,,,,,,,,,,,,,sarah_base0,001,2023-04-29_15h33.10.161,expectation_shapes_perceived_time,2022.2.4,120.19548592963454,
,,,,,,,,,3,0,3,0,,,,,fam,0.4982884999772068,0.4982884999772068,270.0,2.498186699987855,2.498186699987855,,,,,,,,,,,,,,,,,,,,,,,,,,,,,,,,,,,,sarah_base0,001,2023-04-29_15h33.10.161,expectation_shapes_perceived_time,2022.2.4,120.19548592963454,
,,,,,,,,,4,0,4,0,,,,,fam,0.4983341000042856,0.4983341000042856,270.0,2.498388200008776,2.498388200008776,,,,,,,,,,,,,,,,,,,,,,,,,,,,,,,,,,,,sarah_base0,001,2023-04-29_15h33.10.161,expectation_shapes_perceived_time,2022.2.4,120.19548592963454,
,,,,,,,,,5,0,5,0,,,,,fam,0.49855200000456534,0.49855200000456534,270.0,2.498602800013032,2.498602800013032,,,,,,,,,,,,,,,,,,,,,,,,,,,,,,,,,,,,sarah_base0,001,2023-04-29_15h33.10.161,expectation_shapes_perceived_time,2022.2.4,120.19548592963454,
,,,,,,,,,6,0,6,0,,,,,fam,0.49840620000031777,0.49840620000031777,270.0,2.498277100006817,2.498277100006817,,,,,,,,,,,,,,,,,,,,,,,,,,,,,,,,,,,,sarah_base0,001,2023-04-29_15h33.10.161,expectation_shapes_perceived_time,2022.2.4,120.19548592963454,
,,,,,,,,,7,0,7,0,,,,,fam,0.4990078999835532,0.4990078999835532,270.0,2.498414799978491,2.498414799978491,,,,,,,,,,,,,,,,,,,,,,,,,,,,,,,,,,,,sarah_base0,001,2023-04-29_15h33.10.161,expectation_shapes_perceived_time,2022.2.4,120.19548592963454,
,,,,,,,,,8,0,8,0,,,,,fam,0.4984950000070967,0.4984950000070967,270.0,2.4986480999796186,2.4986480999796186,,,,,,,,,,,,,,,,,,,,,,,,,,,,,,,,,,,,sarah_base0,001,2023-04-29_15h33.10.161,expectation_shapes_perceived_time,2022.2.4,120.19548592963454,
,,,,,,,,,9,0,9,0,,,,,fam,0.4983677999989595,0.4983677999989595,270.0,2.4983845000097062,2.4983845000097062,,,,,,,,,,,,,,,,,,,,,,,,,,,,,,,,,,,,sarah_base0,001,2023-04-29_15h33.10.161,expectation_shapes_perceived_time,2022.2.4,120.19548592963454,
,,,,,,,,,10,0,10,0,,,,,fam,0.4984573999827262,0.4984573999827262,270.0,2.4983311999822035,2.4983311999822035,,,,,,,,,,,,,,,,,,,,,,,,,,,,,,,,,,,,sarah_base0,001,2023-04-29_15h33.10.161,expectation_shapes_perceived_time,2022.2.4,120.19548592963454,
,,,,,,,,,11,0,11,0,,,,,fam,0.49531820000265725,0.49531820000265725,270.0,2.4954097000008915,2.4954097000008915,,,,,,,,,,,,,,,,,,,,,,,,,,,,,,,,,,,,sarah_base0,001,2023-04-29_15h33.10.161,expectation_shapes_perceived_time,2022.2.4,120.19548592963454,
,,,,,,,,,12,0,12,0,,,,,fam,0.49830400000791997,0.49830400000791997,270.0,2.4984500000136904,2.4984500000136904,,,,,,,,,,,,,,,,,,,,,,,,,,,,,,,,,,,,sarah_base0,001,2023-04-29_15h33.10.161,expectation_shapes_perceived_time,2022.2.4,120.19548592963454,
,,,,,,,,,13,0,13,0,,,,,fam,0.49861959999543615,0.49861959999543615,270.0,2.498830700002145,2.498830700002145,,,,,,,,,,,,,,,,,,,,,,,,,,,,,,,,,,,,sarah_base0,001,2023-04-29_15h33.10.161,expectation_shapes_perceived_time,2022.2.4,120.19548592963454,
,,,,,,,,,14,0,14,0,,,,,fam,0.498552999983076,0.498552999983076,270.0,2.4988647999998648,2.4988647999998648,,,,,,,,,,,,,,,,,,,,,,,,,,,,,,,,,,,,sarah_base0,001,2023-04-29_15h33.10.161,expectation_shapes_perceived_time,2022.2.4,120.19548592963454,
,,,,,,,,,15,0,15,0,,,,,fam,0.4987828999874182,0.4987828999874182,270.0,2.4986949999874923,2.4986949999874923,,,,,,,,,,,,,,,,,,,,,,,,,,,,,,,,,,,,sarah_base0,001,2023-04-29_15h33.10.161,expectation_shapes_perceived_time,2022.2.4,120.19548592963454,
,,,,,,,,,16,0,16,0,,,,,fam,0.4982268000021577,0.4982268000021577,270.0,2.4982711999909952,2.4982711999909952,,,,,,,,,,,,,,,,,,,,,,,,,,,,,,,,,,,,sarah_base0,001,2023-04-29_15h33.10.161,expectation_shapes_perceived_time,2022.2.4,120.19548592963454,
,,,,,,,,,17,0,17,0,,,,,fam,0.4989314000122249,0.4989314000122249,270.0,2.4986603000143077,2.4986603000143077,,,,,,,,,,,,,,,,,,,,,,,,,,,,,,,,,,,,sarah_base0,001,2023-04-29_15h33.10.161,expectation_shapes_perceived_time,2022.2.4,120.19548592963454,
,,,,,,,,,18,0,18,0,,,,,fam,0.49874050001380965,0.49874050001380965,270.0,2.4987070000206586,2.4987070000206586,,,,,,,,,,,,,,,,,,,,,,,,,,,,,,,,,,,,sarah_base0,001,2023-04-29_15h33.10.161,expectation_shapes_perceived_time,2022.2.4,120.19548592963454,
,,,,,,,,,19,0,19,0,,,,,fam,0.4987375999917276,0.4987375999917276,270.0,2.4985933999996632,2.4985933999996632,,,,,,,,,,,,,,,,,,,,,,,,,,,,,,,,,,,,sarah_base0,001,2023-04-29_15h33.10.161,expectation_shapes_perceived_time,2022.2.4,120.19548592963454,
,,,,,,,,,,,,,0,0,0,0,test,,,,,,green,1.320603966311419,1.325,2.2997653000056744,0.9990193000121508,5.529998452402651e-05,6e-05,0.03288569999858737,1.3244827000016812,1.3582055000006221,1.999525099992752,2.0331238000071608,2.2997653000056744,2.2997653000056744,2.5999922000046354,11.324537000007695,9.02477170000202,23.108072200004244,20.80830689999857,11.78353519999655,0.94305,0.0263072828031516,-0.1454637990291912,23.108072200004244,-0.12496158249340332,-0.07897083548522377,space,20.503058000002056,,,,,,,,sarah_base0,001,2023-04-29_15h33.10.161,expectation_shapes_perceived_time,2022.2.4,120.19548592963454,
,,,,,,,,,,,,,1,0,1,0,test,,,,,,red,0.9898241053643166,0.9916666666666667,2.300541800010251,0.998071300011361,1.3900018529966474e-05,1e-05,,0.9917446000035852,1.0250315000012051,2.0003073000116274,,2.300541800010251,2.300541800010251,2.600279900012538,2.8168391000072006,0.5162972999969497,8.091880699998,5.79133889998775,5.2750415999908,0.23461,0.09935300746954975,0.10945670314441922,8.091880699998,0.004724893311419235,-0.14774797913909224,space,5.490789100003894,,,,,,,,sarah_base0,001,2023-04-29_15h33.10.161,expectation_shapes_perceived_time,2022.2.4,120.19548592963454,
,,,,,,,,,,,,,2,0,2,0,test,,,,,,green,1.638424915592094,1.6416666666666666,2.3000294999801554,0.99823810000089,1.3699987903237343e-05,1e-05,,1.6414283000049181,1.67472949999501,2.0000756999943405,2.033419399987906,2.3000294999801554,2.3000294999801554,2.600290300004417,2.658243899990339,0.35821440001018345,7.841576499980874,5.541547000000719,5.1833325999905355,1.54421,-0.14640011234068,0.020464531832568172,7.841576499980874,-0.13406451686199303,0.06227756638670386,space,5.239846800017403,,,,,,,,sarah_base0,001,2023-04-29_15h33.10.161,expectation_shapes_perceived_time,2022.2.4,120.19548592963454,
,,,,,,,,,,,,,3,0,3,0,test,,,,,,red,0.8454625461136479,0.85,2.2996857999823987,0.998855799989542,1.4399993233382702e-05,1e-05,0.03269120000186376,0.8498388000007253,0.8831171999918297,1.999655099993106,2.0330306999967434,2.2996857999823987,2.2996857999823987,2.5993462999758776,2.2996857999823987,0.0,9.116929199983133,6.817243400000734,6.817243400000734,0.77478,0.09608047726154317,-0.11234025033657355,9.116929199983133,0.06898111533464982,-0.1307417136329399,space,6.510456900025019,,,,,,,,sarah_base0,001,2023-04-29_15h33.10.161,expectation_shapes_perceived_time,2022.2.4,120.19548592963454,
,,,,,,,,,,,,,4,0,4,0,test,,,,,,red,0.45483924349479327,0.4583333333333333,2.2999840999837033,0.9978246999962721,1.3699987903237343e-05,1e-05,,0.4582630999793764,0.4918075999885332,2.000334499985911,,2.2999840999837033,2.2999840999837033,2.5997156999947038,2.2999840999837033,0.0,6.958299199992325,4.658315100008622,4.658315100008622,0.6346,0.13480343726991434,-0.06066154677146145,6.958299199992325,0.14633823383870886,0.020902422669568266,space,4.353469099994982,,,,,,,,sarah_base0,001,2023-04-29_15h33.10.161,expectation_shapes_perceived_time,2022.2.4,120.19548592963454,
,,,,,,,,,,,,,5,0,5,0,test,,,,,,green,0.15054834477375972,0.15,2.299872500007041,0.9986195999954361,2.8099981136620045e-05,3e-05,0.033150300005218014,0.14993549999780953,0.183118499990087,1.9998315999982879,,2.299872500007041,2.299872500007041,2.6000287999922875,2.958146399992984,0.658273899985943,7.475106500001857,5.175233999994816,4.516960100008873,0.3631,0.1343616917681571,0.06163380356337481,7.475106500001857,0.06733726584590402,0.13159590641386978,space,4.874445499997819,,,,,,,,sarah_base0,001,2023-04-29_15h33.10.161,expectation_shapes_perceived_time,2022.2.4,120.19548592963454,
,,,,,,,,,,,,,6,0,6,0,test,,,,,,green,0.661815081813845,0.6666666666666666,2.299932499998249,0.9983764000062365,1.4299992471933365e-05,1e-05,0.033467100001871586,0.6666200000036042,0.6998564999958035,1.9996969999920111,2.0330802999960724,2.299932499998249,2.299932499998249,2.599693299998762,2.4079297999851406,0.10799729998689145,6.891696499980753,4.591763999982504,4.483766699995613,0.25953,0.10760833722031363,0.101352038544714,6.891696499980753,0.12913054219354347,-0.07195201893825783,space,4.287004399986472,,,,,,,,sarah_base0,001,2023-04-29_15h33.10.161,expectation_shapes_perceived_time,2022.2.4,120.19548592963454,
,,,,,,,,,,,,,7,0,7,0,test,,,,,,red,1.4127770659005012,1.4166666666666667,2.299886900000274,0.9984134999976959,1.8099992303177714e-05,2e-05,0.03305800000089221,1.4164374000101816,1.4497171000111848,1.999720799998613,2.0331707000150345,2.299886900000274,2.299886900000274,2.599641500011785,2.3329435999912675,0.033056699990993366,6.157983000011882,3.8580961000116076,3.8250394000206143,1.36298,-0.13433785176908192,-0.061685748261313136,6.157983000011882,-0.14230838304912727,-0.0400014258549966,space,3.5562521000101697,,,,,,,,sarah_base0,001,2023-04-29_15h33.10.161,expectation_shapes_perceived_time,2022.2.4,120.19548592963454,
,,,,,,,,,,,,,8,0,8,0,test,,,,,,red,1.083409817562426,1.0833333333333333,2.3004122999846004,0.9984812999900896,1.379998866468668e-05,1e-05,0.03369339997880161,1.083244699984789,1.1167848999903072,2.000385199993616,2.033665499999188,2.3004122999846004,2.3004122999846004,2.6004716999887023,2.883795999980066,0.5833836999954656,6.98324109998066,4.682828799996059,4.099445100000594,0.38217,0.13781076655840765,0.05347880493311341,6.98324109998066,-0.038293847542300634,-0.14277734833262928,space,4.3806405999930575,,,,,,,,sarah_base0,001,2023-04-29_15h33.10.161,expectation_shapes_perceived_time,2022.2.4,120.19548592963454,
,,,,,,,,,,,,,9,0,9,0,test,,,,,,green,0.4483340430079502,0.45,2.3004656999837607,0.9982657000073232,1.3399985618889332e-05,1e-05,0.033842100005131215,0.450270899978932,0.4836131999909412,2.0003570999833755,2.0338854999863543,2.3004656999837607,2.3004656999837607,2.600317399977939,3.4503700000059325,1.1499043000221718,6.975664500001585,4.675198800017824,3.5252944999956526,1.01224,-0.005681318989469197,-0.1477142937261991,6.975664500001585,0.1458805286147014,0.02388851873987196,space,4.374928499979433,,,,,,,,sarah_base0,001,2023-04-29_15h33.10.161,expectation_shapes_perceived_time,2022.2.4,120.19548592963454,
,,,,,,,,,,,,,10,0,10,0,test,,,,,,red,0.6547141868211982,0.6583333333333333,2.2999138000013772,0.998412900022231,1.3800017768517137e-05,1e-05,0.03300130000570789,0.6580810000014026,0.6912476000143215,1.9994455999985803,2.032767099997727,2.2999138000013772,2.2999138000013772,2.5998884000000544,2.2999138000013772,0.0,5.708510800002841,3.408597000001464,3.408597000001464,0.49124,0.147767552233595,0.004066996850465917,5.708510800002841,0.13070339358867858,-0.06905369549048693,space,3.103936400002567,,,,,,,,sarah_base0,001,2023-04-29_15h33.10.161,expectation_shapes_perceived_time,2022.2.4,120.19548592963454,
,,,,,,,,,,,,,11,0,11,0,test,,,,,,red,1.5076431808987973,1.5083333333333333,2.299895900010597,0.9983525999996345,1.4499993994832039e-05,1e-05,,1.5083529000112321,1.54149810000672,1.999772800016217,,2.299895900010597,2.299895900010597,2.5996470999962185,2.6999954000057187,0.40009949999512173,6.116598799999338,3.8167028999887407,3.416603399993619,0.76817,0.09839352264277525,-0.1103200102358389,6.116598799999338,-0.1477808966265018,0.0035491616977986013,space,3.5152505999722052,,,,,,,,sarah_base0,001,2023-04-29_15h33.10.161,expectation_shapes_perceived_time,2022.2.4,120.19548592963454,
,,,,,,,,,,,,,12,0,12,0,test,,,,,,green,1.4854117744287836,1.4916666666666667,2.3000565000111237,0.9985624000255484,1.3800017768517137e-05,1e-05,0.03312030000961386,1.4911191000137478,1.5244765999959782,1.9996153000101913,2.033150100003695,2.3000565000111237,2.3000565000111237,2.599885000003269,3.550133700016886,1.2500772000057623,7.558123199996771,5.258066699985648,4.007989499979885,0.70734,0.11755678459198056,-0.08962249914438121,7.558123199996771,-0.14766829145029475,-0.006772418817581364,space,4.95843229998718,,,,,,,,sarah_base0,001,2023-04-29_15h33.10.161,expectation_shapes_perceived_time,2022.2.4,120.19548592963454,
,,,,,,,,,,,,,13,0,13,0,test,,,,,,red,0.7432489738039868,0.7416666666666667,2.2999958000145853,0.9979528000112623,1.3100012438371778e-05,1e-05,0.03298490002634935,0.741853000014089,0.7751021000149194,2.000011100026313,2.033541500015417,2.2999958000145853,2.2999958000145853,2.6001412000041455,3.024525100016035,0.7245293000014499,6.183404000010341,3.883408199995756,3.1588788999943063,1.33911,-0.12933928472649178,-0.07157610902339837,6.183404000010341,0.10672024204243073,-0.1022867532718432,space,3.5751943000068422,,,,,,,,sarah_base0,001,2023-04-29_15h33.10.161,expectation_shapes_perceived_time,2022.2.4,120.19548592963454,
,,,,,,,,,,,,,14,0,14,0,test,,,,,,green,1.3283225381811445,1.3333333333333333,2.3001278000010643,0.9983179999981076,1.4099990949034691e-05,1e-05,,1.333698300004471,1.3667338000086602,2.000279200001387,,2.3001278000010643,2.3001278000010643,2.6000725000048988,2.308398199995281,0.00827039999421686,6.374919399997452,4.074791599996388,4.066521200002171,0.69534,0.12085026645335598,-0.0851293313414524,6.374919399997452,-0.12683959112991186,-0.07591777182245743,space,3.768165900022723,,,,,,,,sarah_base0,001,2023-04-29_15h33.10.161,expectation_shapes_perceived_time,2022.2.4,120.19548592963454,
,,,,,,,,,,,,,15,0,15,0,test,,,,,,green,0.47001228287763575,0.4666666666666667,2.2996604000218213,0.9982574000023305,1.4200020814314485e-05,1e-05,0.03331729999626987,0.46652640000684187,0.4996392000175547,1.9996438999951351,2.0333166000200436,2.2996604000218213,2.2996604000218213,2.599743800004944,3.149618499999633,0.8499580999778118,6.182988500018837,3.8833280999970157,3.033370000019204,1.08274,-0.03799399805015159,-0.14285743266856996,6.182988500018837,0.14716800021904652,0.01390574226773413,space,3.577133699989645,,,,,,,,sarah_base0,001,2023-04-29_15h33.10.161,expectation_shapes_perceived_time,2022.2.4,120.19548592963454,
,,,,,,,,,,,,,16,0,16,0,test,,,,,,red,1.2551595993412716,1.2583333333333333,2.2995380999927875,0.9985998999909498,1.4999997802078724e-05,1e-05,0.033055199979571626,1.257843800005503,1.2911755999957677,1.9999886000005063,2.0333749999990687,2.2995380999927875,2.2995380999927875,2.60007630000473,2.2995380999927875,0.0,5.858335199998692,3.558797100005904,3.558797100005904,0.73326,0.10987634927798347,-0.0988887143501851,5.858335199998692,-0.10620751600081187,-0.10281903277811563,space,3.258281399990665,,,,,,,,sarah_base0,001,2023-04-29_15h33.10.161,expectation_shapes_perceived_time,2022.2.4,120.19548592963454,
,,,,,,,,,,,,,17,0,17,0,test,,,,,,red,0.3170651366619436,0.31666666666666665,2.3002065000182483,0.9980931999743916,2.2899999748915434e-05,2e-05,0.033257000002777204,0.3165453000110574,0.3498662000056356,1.9996094000234734,2.0334158000187017,2.3002065000182483,2.3002065000182483,2.599875800020527,2.7335168000136036,0.4333102999953553,5.391860800009454,3.0916542999912053,2.65834399999585,1.24303,-0.10221358994477485,-0.10679031785274984,5.391860800009454,0.12407591492380385,0.08035519455710943,space,2.7837274000048637,,,,,,,,sarah_base0,001,2023-04-29_15h33.10.161,expectation_shapes_perceived_time,2022.2.4,120.19548592963454,
,,,,,,,,,,,,,18,0,18,0,test,,,,,,green,0.18887033255926644,0.19166666666666665,2.3000380999874324,0.9941277999896556,1.3899989426136017e-05,1e-05,0.033689600008074194,0.1917488999897614,0.22505619999719784,2.0001193000061903,2.033771499991417,2.3000380999874324,2.3000380999874324,2.600348000007216,2.949828799988609,0.6497907000011764,5.625444600009359,3.325406500021927,2.6756158000207506,0.46434,0.14689685063983643,0.016525895696981596,5.625444600009359,0.08265471302990597,0.12255606215293399,space,3.02355610000086,,,,,,,,sarah_base0,001,2023-04-29_15h33.10.161,expectation_shapes_perceived_time,2022.2.4,120.19548592963454,
,,,,,,,,,,,,,19,0,19,0,test,,,,,,red,0.5199517777370452,0.5166666666666666,2.3003161999804433,0.9978540999873076,1.4299992471933365e-05,1e-05,,0.5171978999860585,0.5505154999846127,2.0001215999946,2.03342569997767,2.3003161999804433,2.3003161999804433,2.6002121999918018,3.0090429999982007,0.7087268000177573,5.875000399973942,3.5746841999934986,2.8659573999757413,0.69743,0.12028893749926794,-0.08592066964233425,5.875000399973942,0.14753321802420166,-0.009259564563914479,space,3.2705385999870487,,,,,,,,sarah_base0,001,2023-04-29_15h33.10.161,expectation_shapes_perceived_time,2022.2.4,120.19548592963454,
,,,,,,,,,,,,,20,0,20,0,test,,,,,,green,1.6027663171687372,1.6083333333333334,2.30004070000723,0.9983357000164688,1.4099990949034691e-05,1e-05,0.03361019998556003,1.6083793999860063,1.641685399983544,2.0000370999914594,2.0334740999969654,2.30004070000723,2.30004070000723,2.6000638999976218,2.825183899985859,0.5251431999786291,6.4918684999865945,4.1918277999793645,3.6666846000007354,0.34181,0.1299415738582858,0.07047678582144316,6.4918684999865945,-0.1401862195467439,0.0469000405722857,space,3.8838914000079967,,,,,,,,sarah_base0,001,2023-04-29_15h33.10.161,expectation_shapes_perceived_time,2022.2.4,120.19548592963454,
,,,,,,,,,,,,,21,0,21,0,test,,,,,,green,0.877447699286924,0.875,2.3001162000000477,0.9983500000089407,1.2400007108226418e-05,1e-05,,0.8750202000082936,0.9084039999870583,2.0000056000135373,,2.3001162000000477,2.3001162000000477,2.599870000005467,2.983681699988665,0.6835654999886174,5.658790199988289,3.358673999988241,2.6751084999996237,1.56931,-0.14433338757813102,0.031932165393391825,5.658790199988289,0.055517758476481736,-0.13700207462019315,space,3.0573024000041187,,,,,,,,sarah_base0,001,2023-04-29_15h33.10.161,expectation_shapes_perceived_time,2022.2.4,120.19548592963454,
,,,,,,,,,,,,,22,0,22,0,test,,,,,,green,0.9683894943760013,0.9666666666666667,2.29988360000425,0.9982850000087637,1.990000600926578e-05,2e-05,0.03321880000294186,0.9664609000028577,0.9999160000006668,1.9999797000200488,2.0332273000094574,2.29988360000425,2.29988360000425,2.6001044000149705,2.950029400002677,0.6501457999984268,5.441491600009613,3.1416080000053626,2.4914622000069357,1.36892,-0.1354653039421429,-0.05916875344599346,5.441491600009613,0.014655841438364955,-0.14709519457896453,space,2.8374635000072885,,,,,,,,sarah_base0,001,2023-04-29_15h33.10.161,expectation_shapes_perceived_time,2022.2.4,120.19548592963454,
,,,,,,,,,,,,,23,0,23,0,test,,,,,,green,1.7322892438124113,1.7333333333333334,2.2999655999883544,0.9989461000077426,1.3499986380338669e-05,1e-05,,1.7330479999945965,1.7666153000027407,1.9996457999804989,,2.2999655999883544,2.2999655999883544,2.5998231999983545,2.624582199990982,0.3246166000026278,5.757879399985541,3.4579137999971863,3.1332971999945585,1.65194,-0.131299449197892,0.06791350820580619,5.757879399985541,-0.11017813030406212,0.0985523696274779,space,3.1564702999894507,,,,,,,,sarah_base0,001,2023-04-29_15h33.10.161,expectation_shapes_perceived_time,2022.2.4,120.19548592963454,
,,,,,,,,,,,,,24,0,24,0,test,,,,,,red,1.218911330431024,1.225,2.29968959998223,0.9980937999789603,1.3599987141788006e-05,1e-05,0.03323860000818968,1.225025599997025,1.2582772999885492,1.9999566999904346,2.033131800009869,2.29968959998223,2.29968959998223,2.600017199991271,3.816629200009629,1.5169396000273991,6.333434500003932,4.033744900021702,2.516805299994303,0.70284,0.11881197280808171,-0.08795172013065788,6.333434500003932,-0.09383614514240814,-0.11422157336205292,space,3.7254060999839567,,,,,,,,sarah_base0,001,2023-04-29_15h33.10.161,expectation_shapes_perceived_time,2022.2.4,120.19548592963454,
,,,,,,,,,,,,,25,0,25,0,test,,,,,,red,0.8884595709661908,0.8916666666666666,2.300686400005361,0.9981273000012152,4.1099992813542485e-05,4e-05,,0.8919279999972787,0.9253209000162315,2.0003428000200074,,2.300686400005361,2.300686400005361,2.60063210001681,3.058952599996701,0.7582661999913398,5.408596399996895,3.1079099999915343,2.3496438000001945,1.2313,-0.09820859423082867,-0.11048466850968224,5.408596399996895,0.05074592380823763,-0.13884034418474506,space,2.8073424999893177,,,,,,,,sarah_base0,001,2023-04-29_15h33.10.161,expectation_shapes_perceived_time,2022.2.4,120.19548592963454,
,,,,,,,,,,,,,26,0,26,0,test,,,,,,red,1.8404033676665668,1.8416666666666666,2.2999127999937627,0.998292100004619,1.5900004655122757e-05,2e-05,,1.8415756000031251,1.8747190999856684,1.999886699981289,,2.2999127999937627,2.2999127999937627,2.5999621999799274,2.741699999984121,0.4417871999903582,5.766686999995727,3.4667742000019643,3.024987000011606,1.32539,-0.12613511523030946,-0.07708257041852246,5.766686999995727,-0.07105030801136634,0.12962886903764875,space,3.159662499994738,,,,,,,,sarah_base0,001,2023-04-29_15h33.10.161,expectation_shapes_perceived_time,2022.2.4,120.19548592963454,
,,,,,,,,,,,,,27,0,27,0,test,,,,,,green,0.7579884319954394,0.7583333333333333,2.299709000013536,0.9986202000000048,1.4299992471933365e-05,1e-05,0.03306509999674745,0.7579667000100017,0.7910417999955826,1.9997601000068244,2.0331195000035223,2.299709000013536,2.299709000013536,2.600033299997449,2.958430099999532,0.6587210999859963,6.066449100006139,3.766740099992603,3.108019000006607,1.56086,-0.14513014305600747,0.028089705107614348,6.066449100006139,0.10187111450168465,-0.10711706673856684,space,3.4648109000117984,,,,,,,,sarah_base0,001,2023-04-29_15h33.10.161,expectation_shapes_perceived_time,2022.2.4,120.19548592963454,
,,,,,,,,,,,,,28,0,28,0,test,,,,,,green,0.31471943189434476,0.31666666666666665,2.2999325999990106,0.9984216000011656,5.189998773857951e-05,5e-05,0.03304239999852143,0.3160714999830816,0.34939699998358265,2.0001194999786094,2.033024200005457,2.2999325999990106,2.2999325999990106,2.5998500999994576,2.2999325999990106,0.0,7.149682699993718,4.849750099994708,4.849750099994708,0.34215,0.13001719894873065,0.07033717320177232,7.149682699993718,0.12348039384961892,0.08126735070883581,space,4.542480299976887,,,,,,,,sarah_base0,001,2023-04-29_15h33.10.161,expectation_shapes_perceived_time,2022.2.4,120.19548592963454,
,,,,,,,,,,,,,29,0,29,0,test,,,,,,green,0.42735733463398434,0.425,2.3003745000169147,0.9986023000092246,1.300001167692244e-05,1e-05,0.033574100001715124,0.42481550000957213,0.4581099000060931,1.99986050001462,2.0331934000132605,2.3003745000169147,2.3003745000169147,2.5998336000193376,2.858448800019687,0.5580743000027724,6.216699900018284,3.9163254000013694,3.358251099998597,0.3918,0.13936473549643696,0.049287528407276494,6.216699900018284,0.1439907542140449,0.03344327521880051,space,3.616503199998988,,,,,,,,sarah_base0,001,2023-04-29_15h33.10.161,expectation_shapes_perceived_time,2022.2.4,120.19548592963454,
,,,,,,,,,,,,,30,0,30,0,test,,,,,,red,1.5601974149396558,1.5666666666666667,2.300011799990898,0.998083200014662,1.6200006939470768e-05,2e-05,,1.5667002999980468,1.6002356999961194,1.9999964000016917,,2.300011799990898,2.300011799990898,2.6001114000100642,2.7084582000097726,0.40844640001887456,5.29165009999997,2.991638300009072,2.5831918999901973,1.11967,-0.05427584573016366,-0.1374988091830813,5.29165009999997,-0.14518794172894137,0.027789414045701878,space,2.687501999986125,,,,,,,,sarah_base0,001,2023-04-29_15h33.10.161,expectation_shapes_perceived_time,2022.2.4,120.19548592963454,
,,,,,,,,,,,,,31,0,31,0,test,,,,,,red,1.7892927865352153,1.7916666666666667,2.29969029998756,0.998488700017333,1.4199991710484028e-05,1e-05,,1.7916459999978542,1.8247669999836944,1.9999454999924637,,2.29969029998756,2.29969029998756,2.5998227999953087,2.7914004999911413,0.4917102000035811,6.816723900003126,4.517033600015566,4.025323400011985,1.47797,-0.1474697519530299,-0.010220675877932765,6.816723900003126,-0.0908613590837459,0.11660190127928664,space,4.212980799988145,,,,,,,,sarah_base0,001,2023-04-29_15h33.10.161,expectation_shapes_perceived_time,2022.2.4,120.19548592963454,
,,,,,,,,,,,,,32,0,32,0,test,,,,,,green,0.5938899546358696,0.5916666666666667,2.3004383000079542,0.9978546000202186,2.880001557059586e-05,3e-05,,0.5920212000200991,0.6253995000151917,2.000169900013134,2.033425100002205,2.3004383000079542,2.3004383000079542,2.60016750000068,2.308380500006024,0.007942199998069555,5.492194500024198,3.1917562000162434,3.183814000018174,0.30502,0.1209479680615085,0.08499046404322218,5.492194500024198,0.14143939803914776,-0.042973092032264223,space,2.8916426000068896,,,,,,,,sarah_base0,001,2023-04-29_15h33.10.161,expectation_shapes_perceived_time,2022.2.4,120.19548592963454,
,,,,,,,,,,,,,33,0,33,0,test,,,,,,green,0.42901684461090395,0.43333333333333335,2.29984809999587,0.9944942000147421,1.4299992471933365e-05,1e-05,,0.4331149999925401,0.46651440000277944,1.999885199998971,,2.29984809999587,2.29984809999587,2.6001739999919664,2.29984809999587,0.0,6.049831300013466,3.7499832000175957,3.7499832000175957,0.4028,0.14098507746528188,0.044440948331447544,6.049831300013466,0.14416315320998835,0.032692127692203685,space,3.44779569999082,,,,,,,,sarah_base0,001,2023-04-29_15h33.10.161,expectation_shapes_perceived_time,2022.2.4,120.19548592963454,
,,,,,,,,,,,,,34,0,34,0,test,,,,,,green,1.0270557127785447,1.025,2.299834400007967,0.9986109000165015,1.3900018529966474e-05,1e-05,,1.0248407000035513,1.0586828000086825,2.0001665000163484,,2.299834400007967,2.299834400007967,2.599782100005541,2.716738599992823,0.41690419998485595,5.725292200018885,3.4254578000109177,3.0085536000260618,0.92812,0.033097315831523554,-0.14407066891369075,5.725292200018885,-0.012549583037503347,-0.14728984324139507,space,3.118484000005992,,,,,,,,sarah_base0,001,2023-04-29_15h33.10.161,expectation_shapes_perceived_time,2022.2.4,120.19548592963454,
,,,,,,,,,,,,,35,0,35,0,test,,,,,,red,0.9632440857072492,0.9666666666666667,2.3000651000184007,0.9975204000074882,6.540000322274864e-05,7e-05,0.033277400012593716,0.9669599000189919,1.0003453000099398,2.000658300006762,2.0336939000117127,2.3000651000184007,2.3000651000184007,2.600346499995794,2.3000651000184007,0.0,5.1832763999991585,2.8832112999807578,2.8832112999807578,0.17624,0.07772886782281463,0.12573787441925893,5.1832763999991585,0.017031584319883945,-0.1468390788994694,space,2.5763419999857433,,,,,,,,sarah_base0,001,2023-04-29_15h33.10.161,expectation_shapes_perceived_time,2022.2.4,120.19548592963454,
,,,,,,,,,,,,,36,0,36,0,test,,,,,,green,1.3039604350620249,1.3083333333333333,2.300185000000056,0.9988642000243999,1.9500002963468432e-05,2e-05,0.03343420001328923,1.3086387000221293,1.3418501999985892,2.000063300016336,2.0335498000204097,2.300185000000056,2.300185000000056,2.600163299997803,3.8248023000196554,1.5246173000195995,6.567072600009851,4.266887600009795,2.742270299990196,1.26299,-0.10870290403910268,-0.10017718607525147,6.567072600009851,-0.12066351971455595,-0.0853938227659641,space,3.9619019999809097,,,,,,,,sarah_base0,001,2023-04-29_15h33.10.161,expectation_shapes_perceived_time,2022.2.4,120.19548592963454,
,,,,,,,,,,,,,37,0,37,0,test,,,,,,green,1.5986915683781,1.6,2.299884000007296,0.9983356999873649,1.610000617802143e-05,2e-05,0.033307300007436424,1.5997411999851465,1.6332509999920148,1.9998104999831412,2.0328506999940146,2.299884000007296,2.299884000007296,2.5999157000042032,2.833287499990547,0.5334034999832511,7.382897400006186,5.08301339999889,4.549609900015639,1.0827,-0.037976030521438504,-0.14286221005684008,7.382897400006186,-0.14077509393632912,0.045101694909478005,space,4.778493799996795,,,,,,,,sarah_base0,001,2023-04-29_15h33.10.161,expectation_shapes_perceived_time,2022.2.4,120.19548592963454,
,,,,,,,,,,,,,38,0,38,0,test,,,,,,red,1.4621833970328946,1.4666666666666666,2.299741900002118,0.9989428000117186,1.4299992471933365e-05,1e-05,0.03338989999610931,1.466516499989666,1.499779200006742,1.9996378000068944,2.033001500007231,2.299741900002118,2.299741900002118,2.5996643000107724,2.299741900002118,0.0,5.15845889999764,2.858716999995522,2.858716999995522,1.61514,-0.1382572969503678,0.05231357181905808,5.15845889999764,-0.14678151023529953,-0.01752079363312595,space,2.555870000011055,,,,,,,,sarah_base0,001,2023-04-29_15h33.10.161,expectation_shapes_perceived_time,2022.2.4,120.19548592963454,
,,,,,,,,,,,,,39,0,39,0,test,,,,,,red,1.2432591202268641,1.2416666666666667,2.2999943000031635,0.9980356000014581,1.37000170070678e-05,1e-05,0.03357590001542121,1.2416580000135582,1.2753663000185043,1.999954000028083,2.033212900016224,2.2999943000031635,2.2999943000031635,2.599960900028236,2.4582680000166874,0.15827370001352392,5.658712900010869,3.3587186000077054,3.2004448999941815,1.19507,-0.08502464605343765,-0.12092394105377798,5.658712900010869,-0.10229015502658283,-0.10671698150307465,space,3.0532010000024457,,,,,,,,sarah_base0,001,2023-04-29_15h33.10.161,expectation_shapes_perceived_time,2022.2.4,120.19548592963454,
,,,,,,,,,0,0,0,0,,,,,fam,0.532748099998571,0.532748099998571,270.0,2.5325395000108983,2.5325395000108983,,,,,,,,,,,,,,,,,,,,,,,,,,,,,,,,,,,,sarah_base0,001,2023-04-29_15h33.10.161,expectation_shapes_perceived_time,2022.2.4,120.19548592963454,
,,,,,,,,,1,0,1,0,,,,,fam,0.4989099999947939,0.4989099999947939,270.0,2.499332900013542,2.499332900013542,,,,,,,,,,,,,,,,,,,,,,,,,,,,,,,,,,,,sarah_base0,001,2023-04-29_15h33.10.161,expectation_shapes_perceived_time,2022.2.4,120.19548592963454,
,,,,,,,,,2,0,2,0,,,,,fam,0.49841110000852495,0.49841110000852495,270.0,2.498768799996469,2.498768799996469,,,,,,,,,,,,,,,,,,,,,,,,,,,,,,,,,,,,sarah_base0,001,2023-04-29_15h33.10.161,expectation_shapes_perceived_time,2022.2.4,120.19548592963454,
,,,,,,,,,3,0,3,0,,,,,fam,0.49841420000302605,0.49841420000302605,270.0,2.4983580999833066,2.4983580999833066,,,,,,,,,,,,,,,,,,,,,,,,,,,,,,,,,,,,sarah_base0,001,2023-04-29_15h33.10.161,expectation_shapes_perceived_time,2022.2.4,120.19548592963454,
,,,,,,,,,,,,,0,0,0,0,testSingleStim,,,,,,red,1.8216656059910041,1.825,0.033061699999962,0.9990144999756012,1.3699987903237343e-05,1e-05,,1.8245573999884073,1.8579773000092246,1.9993097000115085,,2.2992884000123013,2.2992884000123013,2.599801700009266,3.2080791000043973,0.908790699992096,4.191382299992256,1.8920938999799546,0.9833031999878585,0.50786,0.14777846880474246,-0.0036488510815985793,,,,None,,,,,,,,,sarah_base0,001,2023-04-29_15h33.10.161,expectation_shapes_perceived_time,2022.2.4,120.19548592963454,
,,,,,,,,,,,,,1,0,1,0,testSingleStim,,,,,,red,0.6087251781002578,0.6083333333333333,0.0031839000002946705,0.9969961000024341,1.379998866468668e-05,1e-05,0.03372129998751916,0.6087659999902826,0.6420901999808848,1.9997524000064004,2.03300679998938,2.300143800006481,2.300143800006481,2.6000918000063393,2.44204679998802,0.14190299998153932,3.48329449997982,1.1831506999733392,1.0412476999918,0.58779,0.14223667454153383,-0.04025566260609447,,,,None,,,,,,,,,sarah_base0,001,2023-04-29_15h33.10.161,expectation_shapes_perceived_time,2022.2.4,120.19548592963454,
,,,,,,,,,,,,,2,0,2,0,testSingleStim,,,,,,green,0.9688449933233692,0.9666666666666667,0.003270599991083145,0.9977965999860317,1.4199991710484028e-05,1e-05,0.03307700000004843,0.9667829999816604,0.9998340999882203,2.0000179999915417,2.0333946000027936,2.300018599984469,2.300018599984469,2.599574099993333,2.300018599984469,0.0,3.475188899989007,1.1751703000045381,1.1751703000045381,0.26617,0.10970021704963684,0.0990840670125752,,,,None,,,,,,,,,sarah_base0,001,2023-04-29_15h33.10.161,expectation_shapes_perceived_time,2022.2.4,120.19548592963454,
,,,,,,,,,,,,,3,0,3,0,testSingleStim,,,,,,green,0.2209695200477614,0.225,0.002289700001711026,0.9972768000152428,1.3900018529966474e-05,1e-05,,0.2250163000135217,0.25864879999426194,2.0001357000146527,,2.299984700017376,2.299984700017376,2.6001374000043143,2.6248773999977857,0.3248926999804098,3.6167689000139944,1.3167841999966186,0.9918915000162087,0.18543,0.08132624094250557,0.1234416157163031,,,,None,,,,,,,,,sarah_base0,001,2023-04-29_15h33.10.161,expectation_shapes_perceived_time,2022.2.4,120.19548592963454,
,,,,,,,,,,,,,4,0,4,0,testSingleStim,,,,,,red,0.7051773723720857,0.7083333333333334,0.002296799997566268,0.998338600009447,1.3999990187585354e-05,1e-05,0.0333008999878075,0.7081003999919631,0.7412108999851625,1.999645000003511,2.0332774999842513,2.299965499987593,2.299965499987593,2.5993847999779973,2.299965499987593,0.0,3.76625950000016,1.4662940000125673,1.4662940000125673,0.83105,0.07482834457807858,-0.1274853277996894,,,,None,,,,,,,,,sarah_base0,001,2023-04-29_15h33.10.161,expectation_shapes_perceived_time,2022.2.4,120.19548592963454,
,,,,,,,,,,,,,5,0,5,0,testSingleStim,,,,,,green,0.7960099141137998,0.8,0.0033184999774675816,0.9979219999804627,2.2299995180219412e-05,2e-05,0.033735500008333474,0.8003584000107367,0.8334269000042696,1.999761299986858,2.033627600001637,2.2996222999936435,2.2996222999936435,2.599618100008229,2.2996222999936435,0.0,3.641413500008639,1.3417912000149954,1.3417912000149954,0.54893,0.14608070538438578,-0.022632221960961173,,,,None,,,,,,,,,sarah_base0,001,2023-04-29_15h33.10.161,expectation_shapes_perceived_time,2022.2.4,120.19548592963454,
,,,,,,,,,,,,,6,0,6,0,testSingleStim,,,,,,green,0.3480186257175867,0.35,0.0023139000113587826,0.998274700017646,3.170000854879618e-05,3e-05,0.03356290000374429,0.35008540001581423,0.3835028000175953,2.000264500005869,2.0332319000153802,2.3000478000030853,2.3000478000030853,2.6007697000168264,2.4336667000025045,0.13361889999941923,3.400293500017142,1.1002457000140566,0.9666268000146374,0.36122,0.1339940461178011,0.062429044213975514,,,,None,,,,,,,,,sarah_base0,001,2023-04-29_15h33.10.161,expectation_shapes_perceived_time,2022.2.4,120.19548592963454,
,,,,,,,,,,,,,7,0,7,0,testSingleStim,,,,,,green,1.0800068438380355,1.0833333333333333,0.0022760000138077885,0.9976911000267137,2.8000009479001164e-05,3e-05,0.033293899992713705,1.083350100001553,1.1167965999920852,2.0002417000068817,2.033267999999225,2.2997612000035588,2.2997612000035588,2.6002317999955267,2.2997612000035588,0.0,3.400089200004004,1.1003280000004452,1.1003280000004452,1.34404,-0.13043250836920134,-0.06956400446357404,,,,None,,,,,,,,,sarah_base0,001,2023-04-29_15h33.10.161,expectation_shapes_perceived_time,2022.2.4,120.19548592963454,
,,,,,,,,,,,,,8,0,8,0,testSingleStim,,,,,,green,0.9028681903140284,0.9083333333333333,0.0022370000078808516,0.9984010000189301,2.8600014047697186e-05,3e-05,0.03349910001270473,0.9084411000076216,0.9413776000146754,1.999904600001173,2.0335963000252377,2.299975700007053,2.299975700007053,2.600032000016654,2.3083470000128727,0.008371300005819649,3.7417515000270214,1.4417758000199683,1.4334045000141487,0.98701,0.006028592986723142,-0.14770052817471696,,,,None,,,,,,,,,sarah_base0,001,2023-04-29_15h33.10.161,expectation_shapes_perceived_time,2022.2.4,120.19548592963454,
,,,,,,,,,,,,,9,0,9,0,testSingleStim,,,,,,green,0.6970391547862532,0.7,0.002746500016655773,0.9981849000032526,1.58999755512923e-05,2e-05,0.03348409998579882,0.6998015999852214,0.7333359999756794,1.999839099997189,2.0332578999805264,2.300044799980242,2.300044799980242,2.599934199999552,2.300044799980242,0.0,3.5165874999947846,1.2165427000145428,1.2165427000145428,0.64345,0.13306469963971704,-0.06438614498695985,,,,None,,,,,,,,,sarah_base0,001,2023-04-29_15h33.10.161,expectation_shapes_perceived_time,2022.2.4,120.19548592963454,
,,,,,,,,,,,,,10,0,10,0,testSingleStim,,,,,,red,0.6025715422834785,0.6,0.002411299996310845,0.998302899999544,1.4400022337213159e-05,1e-05,0.03314490002230741,0.5995207000232767,0.633097900019493,1.9997123000212014,2.0334653000172693,2.2995384000241756,2.2995384000241756,2.6000480000220705,2.2995384000241756,0.0,3.949490099999821,1.6499516999756452,1.6499516999756452,0.35492,0.1327337924728949,0.06506558454553672,,,,None,,,,,,,,,sarah_base0,001,2023-04-29_15h33.10.161,expectation_shapes_perceived_time,2022.2.4,120.19548592963454,
,,,,,,,,,,,,,11,0,11,0,testSingleStim,,,,,,red,1.1054749028313309,1.1083333333333334,0.002397100004600361,0.9984816999931354,1.3299984857439995e-05,1e-05,0.032898300007218495,1.1075909000064712,1.1409419999981765,1.9998268999916036,2.0332573000050616,2.299997900001472,2.299997900001472,2.599839000002248,2.6913814999861643,0.3913835999846924,3.741643999994267,1.441646099992795,1.0502625000081025,0.33029,0.12730670953028728,0.07513182857525151,,,,None,,,,,,,,,sarah_base0,001,2023-04-29_15h33.10.161,expectation_shapes_perceived_time,2022.2.4,120.19548592963454,
,,,,,,,,,,,,,12,0,12,0,testSingleStim,,,,,,green,1.650350144079854,1.65,0.0023941000108607113,0.9975665000092704,1.3600016245618463e-05,1e-05,0.0333544000168331,1.6496232000063173,1.683116100000916,1.9995094000187237,2.0329291000089142,2.2997770000074524,2.2997770000074524,2.5997591000050306,2.74963679999928,0.44985979999182746,3.8665296000253875,1.566752600017935,1.1168928000261076,0.48788,0.14771636186968615,0.005627289975988044,,,,None,,,,,,,,,sarah_base0,001,2023-04-29_15h33.10.161,expectation_shapes_perceived_time,2022.2.4,120.19548592963454,
,,,,,,,,,,,,,13,0,13,0,testSingleStim,,,,,,green,1.771806751737122,1.775,0.0022197999933268875,0.9975158000015654,1.4200020814314485e-05,1e-05,0.03381809999700636,1.7750063000130467,1.8083224000001792,2.0000986000231933,2.0334889000223484,2.300300100003369,2.300300100003369,2.6004457999952137,2.916784100001678,0.6164839999983087,3.6920362999953795,1.3917361999920104,0.7752521999937017,0.43357,0.14461645842403567,0.03062466178391344,,,,None,,,,,,,,,sarah_base0,001,2023-04-29_15h33.10.161,expectation_shapes_perceived_time,2022.2.4,120.19548592963454,
,,,,,,,,,,,,,14,0,14,0,testSingleStim,,,,,,green,0.9771954423821446,0.975,0.002398300013737753,0.997938599990448,1.400001929141581e-05,1e-05,0.03338360000634566,0.9747543999983463,1.008246200013673,1.9999173000105657,2.032986300007906,2.299933800008148,2.299933800008148,2.5998053000075743,2.358225500007393,0.058291699999244884,4.208002200000919,1.9080683999927714,1.8497766999935266,0.92202,0.035852467268031776,-0.1434098690721271,,,,None,,,,,,,,,sarah_base0,001,2023-04-29_15h33.10.161,expectation_shapes_perceived_time,2022.2.4,120.19548592963454,
,,,,,,,,,,,,,15,0,15,0,testSingleStim,,,,,,red,1.6438806986808587,1.65,0.0023096999793779105,0.9982183999964036,1.3999990187585354e-05,1e-05,0.03373609998379834,1.6497489000030328,1.6831529999908525,2.000102899997728,2.033425300003728,2.299913499999093,2.299913499999093,2.6000228000048082,2.533317800000077,0.23340430000098422,3.3415551999933086,1.0416416999942157,0.8082373999932315,0.29985,0.11955020622893084,0.08694560453013153,,,,None,,,,,,,,,sarah_base0,001,2023-04-29_15h33.10.161,expectation_shapes_perceived_time,2022.2.4,120.19548592963454,
,,,,,,,,,,,,,16,0,16,0,testSingleStim,,,,,,red,1.6457959622835712,1.65,0.0022672999766655266,0.998307499976363,1.3999990187585354e-05,1e-05,0.03334210001048632,1.6501234000024851,1.6831331000139471,2.0000050000089686,2.032771900005173,2.299502300011227,2.299502300011227,2.5997565999859944,2.349483500001952,0.049981199990725145,3.283133299992187,0.98363099998096,0.9336497999902349,1.59298,-0.14156196767019263,0.042567584684043945,,,,None,,,,,,,,,sarah_base0,001,2023-04-29_15h33.10.161,expectation_shapes_perceived_time,2022.2.4,120.19548592963454,
,,,,,,,,,,,,,17,0,17,0,testSingleStim,,,,,,green,1.5250661002622228,1.525,0.002877999999327585,0.9980776000011247,1.6700010746717453e-05,2e-05,0.03342350001912564,1.5248077000142075,1.5581657000002451,2.000173900014488,2.033571000007214,2.3001320000039414,2.3001320000039414,2.6000857000180986,2.3001320000039414,0.0,3.6254623999993782,1.325330399995437,1.325330399995437,1.59366,-0.14147070612623883,0.042869910947345095,,,,None,,,,,,,,,sarah_base0,001,2023-04-29_15h33.10.161,expectation_shapes_perceived_time,2022.2.4,120.19548592963454,
,,,,,,,,,,,,,18,0,18,0,testSingleStim,,,,,,green,0.9915028096348573,0.9916666666666667,0.0022447999799624085,0.9977881999802776,1.3699987903237343e-05,1e-05,0.03337459999602288,0.9916341000061948,1.0250906999863219,2.0001434999867342,2.0336682999914046,2.3002752999891527,2.3002752999891527,2.5998346999986097,2.3002752999891527,0.0,3.3745777999865822,1.0743024999974295,1.0743024999974295,1.26468,-0.1092350462017883,-0.09959665977221874,,,,None,,,,,,,,,sarah_base0,001,2023-04-29_15h33.10.161,expectation_shapes_perceived_time,2022.2.4,120.19548592963454,
,,,,,,,,,,,,,19,0,19,0,testSingleStim,,,,,,red,0.9280358322564771,0.9333333333333333,0.0034357999975327402,0.9983737000147812,1.9199971575289965e-05,2e-05,0.03341569998883642,0.9337265999929514,0.9665878999803681,2.000326599983964,2.033633599989116,2.2998463999829255,2.2998463999829255,2.5998226999945473,2.2998463999829255,0.0,5.166666999983136,2.86682060000021,2.86682060000021,1.09762,-0.044626691272364405,-0.14092639349167707,,,,None,,,,,,,,,sarah_base0,001,2023-04-29_15h33.10.161,expectation_shapes_perceived_time,2022.2.4,120.19548592963454,
,,,,,,,,,,,,,20,0,20,0,testSingleStim,,,,,,red,0.8929275949226023,0.8916666666666666,0.002516400010790676,0.9983173999935389,1.4899997040629387e-05,1e-05,0.03349709999747574,0.8916777000122238,0.9248398000199813,2.000248600001214,2.033410800009733,2.300295699998969,2.300295699998969,2.599886600015452,2.300295699998969,0.0,4.24183680000715,1.9415411000081804,1.9415411000081804,1.05725,-0.02644347327050056,-0.1454391029877531,,,,None,,,,,,,,,sarah_base0,001,2023-04-29_15h33.10.161,expectation_shapes_perceived_time,2022.2.4,120.19548592963454,
,,,,,,,,,,,,,21,0,21,0,testSingleStim,,,,,,green,1.2939602604666907,1.3,0.0024228999973274767,0.9977772000129335,1.37000170070678e-05,1e-05,0.033373800019035116,1.2997881000046618,1.3332944000139832,1.9996147000056226,2.0326553000195418,2.2994105000107083,2.2994105000107083,2.5995060999994166,2.2994105000107083,0.0,5.82463600000483,3.5252254999941215,3.5252254999941215,1.02975,-0.013797951136833774,-0.14717814545956026,,,,None,,,,,,,,,sarah_base0,001,2023-04-29_15h33.10.161,expectation_shapes_perceived_time,2022.2.4,120.19548592963454,
,,,,,,,,,,,,,22,0,22,0,testSingleStim,,,,,,green,0.3950986835622306,0.39166666666666666,0.002389599976595491,0.9981254999875091,1.3899989426136017e-05,1e-05,,0.3912813999922946,0.42467879998730496,1.999508299981244,,2.2995740000042133,2.2995740000042133,2.599418300000252,3.50796079999418,1.2083867999899667,4.491420599981211,2.191846599976998,0.9834597999870311,0.97762,0.010384388326063506,-0.14745831423010178,,,,None,,,,,,,,,sarah_base0,001,2023-04-29_15h33.10.161,expectation_shapes_perceived_time,2022.2.4,120.19548592963454,
,,,,,,,,,,,,,23,0,23,0,testSingleStim,,,,,,green,0.31612012968585707,0.31666666666666665,0.002189499995438382,0.9981065000174567,1.5300000086426735e-05,2e-05,0.0337260999949649,0.31664350000210106,0.35004280001157895,2.0002463000128046,2.033424900000682,2.3003552999871317,2.3003552999871317,2.6005549000110477,2.617234000004828,0.31687870001769625,4.233843299996806,1.9334880000096746,1.6166092999919783,0.53212,0.14707134173194597,-0.01489330042855149,,,,None,,,,,,,,,sarah_base0,001,2023-04-29_15h33.10.161,expectation_shapes_perceived_time,2022.2.4,120.19548592963454,
,,,,,,,,,,,,,24,0,24,0,testSingleStim,,,,,,red,1.8188958319338777,1.825,0.0023237999994307756,0.9979222000110894,4.539999645203352e-05,5e-05,0.03353360001347028,1.8256955000106245,1.8589013000018895,2.000269699987257,2.0338478999910876,2.300378699990688,2.300378699990688,2.6002204999967944,2.8336280999938026,0.5332494000031147,3.825378900015494,1.525000200024806,0.9917508000216912,0.66723,0.12788803121249845,-0.07413798910869476,,,,None,,,,,,,,,sarah_base0,001,2023-04-29_15h33.10.161,expectation_shapes_perceived_time,2022.2.4,120.19548592963454,
,,,,,,,,,,,,,25,0,25,0,testSingleStim,,,,,,green,1.3463062289991767,1.35,0.002260500012198463,0.9983075000054669,1.3800017768517137e-05,1e-05,,1.3497317000001203,1.383146600011969,1.9995460000063758,,2.2997162000101525,2.2997162000101525,2.599715800024569,3.232936900021741,0.9332207000115886,5.041013100009877,2.7412968999997247,1.808076199988136,1.37073,-0.13580090336390177,-0.05839438844647776,,,,None,,,,,,,,,sarah_base0,001,2023-04-29_15h33.10.161,expectation_shapes_perceived_time,2022.2.4,120.19548592963454,
,,,,,,,,,,,,,26,0,26,0,testSingleStim,,,,,,red,0.5102909567672488,0.5083333333333333,0.002300599997397512,0.9981264999951236,2.8700014809146523e-05,3e-05,0.03338480001548305,0.5083096000016667,0.5417390000075102,2.000229400000535,2.03335420001531,2.2997859000170138,2.2997859000170138,2.600307900022017,2.2997859000170138,0.0,3.9000900000100955,1.6003040999930818,1.6003040999930818,0.34336,0.1302834901533558,0.06984269575231446,,,,None,,,,,,,,,sarah_base0,001,2023-04-29_15h33.10.161,expectation_shapes_perceived_time,2022.2.4,120.19548592963454,
,,,,,,,,,,,,,27,0,27,0,testSingleStim,,,,,,green,1.566062514261158,1.5666666666666667,0.002230900019640103,0.9980830000131391,1.7000013031065464e-05,2e-05,0.03344259998993948,1.5669431000133045,1.6003870000131428,2.0003538000164554,2.033732500014594,2.300257099996088,2.300257099996088,2.6002125999948476,2.8169789999956265,0.5167218999995384,4.808582900004694,2.508325800008606,1.9916039000090677,0.64568,0.1326108492762417,-0.06531579143456681,,,,None,,,,,,,,,sarah_base0,001,2023-04-29_15h33.10.161,expectation_shapes_perceived_time,2022.2.4,120.19548592963454,
,,,,,,,,,,,,,28,0,28,0,testSingleStim,,,,,,red,0.5299702908646569,0.5333333333333333,0.002780400012852624,0.9974698000005446,1.3599987141788006e-05,1e-05,,0.5336509000044316,0.5669329999946058,2.00012740000966,,2.30022450000979,2.30022450000979,2.6002050999959465,2.308888300001854,0.008663799992064014,4.15852779999841,1.85830329998862,1.849639499996556,0.74332,0.10669640323554297,-0.10231161954093163,,,,None,,,,,,,,,sarah_base0,001,2023-04-29_15h33.10.161,expectation_shapes_perceived_time,2022.2.4,120.19548592963454,
,,,,,,,,,,,,,29,0,29,0,testSingleStim,,,,,,green,1.4850687799877793,1.4833333333333334,0.0027794000052381307,0.9979601000086404,4.2100000428035855e-05,4e-05,,1.4831455000094138,1.5164539000252262,2.0001518000208307,,2.299755300016841,2.299755300016841,2.600218200008385,2.882814700016752,0.583059399999911,4.4418047000071965,2.1420493999903556,1.5589899999904446,1.4495,-0.1459669396181071,-0.02335471033889714,,,,None,,,,,,,,,sarah_base0,001,2023-04-29_15h33.10.161,expectation_shapes_perceived_time,2022.2.4,120.19548592963454,
,,,,,,,,,,,,,30,0,30,0,testSingleStim,,,,,,green,1.2650518015897687,1.2666666666666666,0.002491299994289875,0.9973526999820024,1.3200013199821115e-05,1e-05,,1.266874100023415,1.3004491000028793,2.0005961999995634,,2.300614800013136,2.300614800013136,2.599988400004804,2.5669014000159223,0.26628660000278614,4.300325600022916,1.9997108000097796,1.7334242000069935,1.26128,-0.10816565057933206,-0.1007570443752682,,,,None,,,,,,,,,sarah_base0,001,2023-04-29_15h33.10.161,expectation_shapes_perceived_time,2022.2.4,120.19548592963454,
,,,,,,,,,,,,,31,0,31,0,testSingleStim,,,,,,red,1.7252184834363138,1.7249999999999999,0.0024090000079013407,0.9975777000072412,1.4199991710484028e-05,1e-05,,1.7254080999991857,1.7589924999920186,2.000512400001753,,2.3002421999990474,2.3002421999990474,2.5999505999789108,3.350160699978005,1.0499184999789577,5.241922099987278,2.9416798999882303,1.8917614000092726,0.84456,0.06935217199493847,-0.1305452649316489,,,,None,,,,,,,,,sarah_base0,001,2023-04-29_15h33.10.161,expectation_shapes_perceived_time,2022.2.4,120.19548592963454,
,,,,,,,,,,,,,32,0,32,0,testSingleStim,,,,,,red,0.5430197693114756,0.5416666666666666,0.0024274000024888664,0.997572600026615,1.4299992471933365e-05,1e-05,0.033951499994145706,0.5418593999929726,0.5756679000041913,2.0002629999944475,2.0336113999946974,2.3003268000029493,2.3003268000029493,2.6005090000107884,2.3003268000029493,0.0,3.8502099000033922,1.549883100000443,1.549883100000443,0.28265,0.11468110891255831,0.0932739685822141,,,,None,,,,,,,,,sarah_base0,001,2023-04-29_15h33.10.161,expectation_shapes_perceived_time,2022.2.4,120.19548592963454,
,,,,,,,,,,,,,33,0,33,0,testSingleStim,,,,,,red,0.3320308213891216,0.3333333333333333,0.0024135999847203493,0.9982247999869287,1.3899989426136017e-05,1e-05,0.03370199998607859,0.333907399995951,0.3671838000009302,2.000196400011191,2.0336286000092514,2.3004344000073615,2.3004344000073615,2.600039299984928,2.5166934999870136,0.2162590999796521,3.9917343000124674,1.6912999000051059,1.4750408000254538,0.61352,0.13852276689027684,-0.051606520998338436,,,,None,,,,,,,,,sarah_base0,001,2023-04-29_15h33.10.161,expectation_shapes_perceived_time,2022.2.4,120.19548592963454,
,,,,,,,,,,,,,34,0,34,0,testSingleStim,,,,,,red,0.2699315905138461,0.26666666666666666,0.002241100009996444,0.9987421999976505,1.3399985618889332e-05,1e-05,0.0331304999999702,0.26635230000829324,0.29959529999177903,1.999476600001799,2.0329519000079017,2.2996378999960143,2.2996378999960143,2.599602300004335,2.2996378999960143,0.0,3.941159699985292,1.6415217999892775,1.6415217999892775,0.17202,0.076054568182482,0.12675761363747,,,,None,,,,,,,,,sarah_base0,001,2023-04-29_15h33.10.161,expectation_shapes_perceived_time,2022.2.4,120.19548592963454,
,,,,,,,,,,,,,35,0,35,0,testSingleStim,,,,,,red,0.36703174581169823,0.36666666666666664,0.0026073000044561923,0.9980097000079695,2.8300011763349175e-05,3e-05,0.033188800007337704,0.3664462000015192,0.3997949000040535,1.9996883000130765,2.033061699999962,2.2997506000101566,2.2997506000101566,2.5997716000129003,2.2997506000101566,0.0,3.4080527999904007,1.108302199980244,1.108302199980244,0.21402,0.09207049807066006,0.11564952806436568,,,,None,,,,,,,,,sarah_base0,001,2023-04-29_15h33.10.161,expectation_shapes_perceived_time,2022.2.4,120.19548592963454,
,,,,,,,,,,,,,36,0,36,0,testSingleStim,,,,,,green,0.23918008807798025,0.24166666666666667,0.002777699992293492,0.9975174000137486,1.4100020052865148e-05,1e-05,0.03340159999788739,0.2418318999989424,0.2753599999996368,1.9998856000020169,2.0332432000141125,2.2995679000159726,2.2995679000159726,2.6003171000047587,2.307921500003431,0.008353599987458438,5.0251118000014685,2.725543899985496,2.7171902999980375,0.51606,0.1476353382365827,-0.007456330213968823,,,,None,,,,,,,,,sarah_base0,001,2023-04-29_15h33.10.161,expectation_shapes_perceived_time,2022.2.4,120.19548592963454,
,,,,,,,,,,,,,37,0,37,0,testSingleStim,,,,,,green,1.5989459640204233,1.6,0.0024015999806579202,0.9981044999731239,1.3200013199821115e-05,1e-05,,1.6000410999986343,1.6334499999938998,1.999900599999819,,2.300017500005197,2.300017500005197,2.600141300004907,2.300017500005197,0.0,3.5418611000059173,1.2418436000007205,1.2418436000007205,1.66567,-0.12825038988693185,0.07350936981324144,,,,None,,,,,,,,,sarah_base0,001,2023-04-29_15h33.10.161,expectation_shapes_perceived_time,2022.2.4,120.19548592963454,
,,,,,,,,,,,,,38,0,38,0,testSingleStim,,,,,,red,0.7350885705509433,0.7333333333333333,0.0021898999984841794,0.9979484000068624,1.3899989426136017e-05,1e-05,0.03339679999044165,0.733009999996284,0.7663284000009298,1.9996027000015602,,2.299890800000867,2.299890800000867,2.5998396999784745,2.524443100002827,0.22455230000196025,4.299809899996035,1.999919099995168,1.7753667999932077,0.87335,0.05727564047690772,-0.13627652389333217,,,,None,,,,,,,,,sarah_base0,001,2023-04-29_15h33.10.161,expectation_shapes_perceived_time,2022.2.4,120.19548592963454,
,,,,,,,,,,,,,39,0,39,0,testSingleStim,,,,,,green,0.6238296582691846,0.625,0.0023423999955412,0.9973103000083938,1.3500015484169126e-05,1e-05,,0.6248699999996461,0.6582529000006616,1.999611700011883,,2.299718300026143,2.299718300026143,2.6000780000176746,2.299718300026143,0.0,3.941242000000784,1.6415236999746412,1.6415236999746412,0.65976,0.12959198817865172,-0.07111755448828448,,,,None,,,,,,,,,sarah_base0,001,2023-04-29_15h33.10.161,expectation_shapes_perceived_time,2022.2.4,120.19548592963454,
,,,,,,,,,0,0,0,0,0,-1,-1,0,fam,0.540314700017916,0.540314700017916,270.0,2.540327199996682,2.540327199996682,,,,,,,,,,,,,,,,,,,,,,,,,,,,,,,,,,,,sarah_base0,001,2023-04-29_15h33.10.161,expectation_shapes_perceived_time,2022.2.4,120.19548592963454,
,,,,,,,,,1,0,1,0,0,-1,-1,0,fam,0.49882480001542717,0.49882480001542717,270.0,2.4987673000141513,2.4987673000141513,,,,,,,,,,,,,,,,,,,,,,,,,,,,,,,,,,,,sarah_base0,001,2023-04-29_15h33.10.161,expectation_shapes_perceived_time,2022.2.4,120.19548592963454,
,,,,,,,,,2,0,2,0,0,-1,-1,0,fam,0.49862219998613,0.49862219998613,270.0,2.4984992999816313,2.4984992999816313,,,,,,,,,,,,,,,,,,,,,,,,,,,,,,,,,,,,sarah_base0,001,2023-04-29_15h33.10.161,expectation_shapes_perceived_time,2022.2.4,120.19548592963454,
,,,,,,,,,3,0,3,0,0,-1,-1,0,fam,0.49853119999170303,0.49853119999170303,270.0,2.4985543999937363,2.4985543999937363,,,,,,,,,,,,,,,,,,,,,,,,,,,,,,,,,,,,sarah_base0,001,2023-04-29_15h33.10.161,expectation_shapes_perceived_time,2022.2.4,120.19548592963454,
1,-500,0.5,none,68,red,green,no_Expectation,,,,,,0,0,0,3,train_doubleStim,,,,,,red,1.2873893767838895,1.2916666666666667,2.2998304999782704,0.999210200010566,2e-05,2e-05,,1.2919225999794435,1.3250646999804303,1.9995656999817584,,2.2998304999782704,2.2998304999782704,2.499746099987533,3.983651299990015,1.6838208000117447,7.0831362000026274,4.783305700024357,3.0994849000126123,1.07645,-0.03516259037360228,-0.143580577358876,,,,None,,-0.5,-0.5,0.7540593767838895,0.7583333333333333,training_double_stim.csv,0.7578997999953572,0.791573900001822,sarah_base0,001,2023-04-29_15h33.10.161,expectation_shapes_perceived_time,2022.2.4,120.19548592963454,
1,500,0.5,none,60,red,green,no_Expectation,,,,,,0,1,1,8,train_doubleStim,,,,,,red,1.1805840635645617,1.1833333333333333,2.2992628999927547,0.9982499000034295,1e-05,1e-05,0.03291,1.1832891999802087,1.2165029999741819,1.9999012999760453,2.0328347999893595,2.2992628999927547,2.2992628999927547,2.499899699992966,3.5245682999957353,1.2253054000029806,6.8995753999915905,4.600312499998836,3.3750070999958552,0.54966,0.14602786724540134,-0.02297067574646763,,,,None,,0.5,0.5,1.7139140635645618,1.7166666666666666,training_double_stim.csv,1.7162957999971695,1.7497186999826226,sarah_base0,001,2023-04-29_15h33.10.161,expectation_shapes_perceived_time,2022.2.4,120.19548592963454,
1,500,0.5,none,98,red,green,no_Expectation,,,,,,0,2,2,5,train_doubleStim,,,,,,red,0.20084250042629173,0.2,2.2997244000143837,0.9986390999983996,1e-05,1e-05,0.03355,0.19984859999385662,0.2333546000008937,1.999704699992435,2.03319129999727,2.2997244000143837,2.2997244000143837,2.499888899998041,3.2496845000132453,0.9499600999988616,5.741597200016258,3.4418728000018746,2.491912700003013,1.2075,-0.0896805791773169,-0.11751248305993249,,,,None,,0.5,0.5,0.7341725004262918,0.7333333333333333,training_double_stim.csv,0.7333382999931928,0.7664208000060171,sarah_base0,001,2023-04-29_15h33.10.161,expectation_shapes_perceived_time,2022.2.4,120.19548592963454,
1,500,0.5,none,25,green,red,no_Expectation,,,,,,0,3,3,6,train_doubleStim,,,,,,green,0.16549675002115413,0.16666666666666666,2.3001870999869425,0.9974552000057884,3e-05,3e-05,0.03331,0.16659969999454916,0.20483790000434965,2.0001112000027206,2.0332182999991346,2.3001870999869425,2.3001870999869425,2.5001738000137266,3.916822500003036,1.6166354000160936,5.591471599997021,3.2912845000100788,1.6746490999939851,0.96896,0.01439229275928645,-0.14712121487270596,,,,None,,0.5,0.5,0.6988267500211542,0.7,training_double_stim.csv,0.6996759999892674,0.7331709999998566,sarah_base0,001,2023-04-29_15h33.10.161,expectation_shapes_perceived_time,2022.2.4,120.19548592963454,
1,-500,0.5,none,23,green,red,no_Expectation,,,,,,0,4,4,2,train_doubleStim,,,,,,green,1.7377187747379124,1.7416666666666667,2.3000649999885354,0.9979067999811377,2e-05,2e-05,0.03334,1.7418698999972548,1.7748894999967888,1.9998621999984607,2.0336773000017274,2.3000649999885354,2.3000649999885354,2.5001916000037454,3.3747326000011526,1.0746676000126172,6.383367000002181,4.083302000013646,3.0086344000010286,1.27708,-0.1130299741708666,-0.09526812108687328,,,,None,,-0.5,-0.5,1.2043887747379125,1.2083333333333333,training_double_stim.csv,1.2082052000041585,1.2415774000110105,sarah_base0,001,2023-04-29_15h33.10.161,expectation_shapes_perceived_time,2022.2.4,120.19548592963454,
1,-500,0.5,none,59,green,red,no_Expectation,,,,,,0,5,5,0,train_doubleStim,,,,,,green,1.780257687890887,1.7833333333333332,2.2994881000195164,0.9984312000160571,1e-05,1e-05,,1.783089500007918,1.8161303000233602,1.9995538000075612,,2.2994881000195164,2.2994881000195164,2.4992724000185262,3.1500512000056915,0.8505630999861751,4.866028699994786,2.5665405999752693,1.7159774999890942,1.50362,-0.1478139660195447,0.0016797041593130078,,,,None,,-0.5,-0.5,1.246927687890887,1.25,training_double_stim.csv,1.2496268000104465,1.283020500006387,sarah_base0,001,2023-04-29_15h33.10.161,expectation_shapes_perceived_time,2022.2.4,120.19548592963454,
1,500,0.5,none,88,red,green,no_Expectation,,,,,,0,6,6,9,train_doubleStim,,,,,,red,0.6823253005725733,0.6833333333333333,2.3004210000217427,0.9979617999924812,2e-05,2e-05,0.03355,0.6834846000128891,0.7172351000190247,2.000334100011969,2.0336903000134043,2.3004210000217427,2.3004210000217427,2.5005400000081863,3.0250964000006206,0.724675399978878,4.300013600004604,1.9995925999828614,1.2749172000039835,1.62628,-0.13634319720096993,0.0571167447733793,,,,None,,0.5,0.5,1.2156553005725732,1.2166666666666666,training_double_stim.csv,1.217236900003627,1.2504589000018314,sarah_base0,001,2023-04-29_15h33.10.161,expectation_shapes_perceived_time,2022.2.4,120.19548592963454,
1,500,0.5,none,33,green,red,no_Expectation,,,,,,0,7,7,7,train_doubleStim,,,,,,green,0.7891356445721052,0.7916666666666666,2.3000281999993604,0.9976488999964204,2e-05,2e-05,0.03325,0.7916945999895688,0.8249271999811754,1.9998180999828037,2.0332837000023574,2.3000281999993604,2.3000281999993604,2.4998332999821287,3.375069900008384,1.0750417000090238,4.666472199984128,2.3664439999847673,1.2914022999757435,1.14245,-0.06396782507361266,-0.13326630223669303,,,,None,,0.5,0.5,1.3224656445721052,1.325,training_double_stim.csv,1.3249782999919262,1.3582982000079937,sarah_base0,001,2023-04-29_15h33.10.161,expectation_shapes_perceived_time,2022.2.4,120.19548592963454,
1,-500,0.5,none,77,green,red,no_Expectation,,,,,,0,8,8,1,train_doubleStim,,,,,,green,1.7727993617439388,1.775,2.299797799991211,0.9982837000279687,1e-05,1e-05,0.03338,1.77485339998384,1.808233999996446,1.9997770999907516,2.033308099984424,2.299797799991211,2.299797799991211,2.5000238999782596,3.0166136999905575,0.7168158999993466,4.149832399998559,1.8500346000073478,1.1332187000080012,0.98326,0.007769431166648373,-0.14761919216631908,,,,None,,-0.5,-0.5,1.239469361743939,1.2416666666666667,training_double_stim.csv,1.2415999999793712,1.2752311999793164,sarah_base0,001,2023-04-29_15h33.10.161,expectation_shapes_perceived_time,2022.2.4,120.19548592963454,
1,-500,0.5,none,46,red,green,no_Expectation,,,,,,0,9,9,4,train_doubleStim,,,,,,red,1.254834989367167,1.2583333333333333,2.3001281000033487,0.997807699983241,1e-05,1e-05,0.03308,1.258111800008919,1.2915358000027481,1.9997632000013255,2.0332097000209615,2.3001281000033487,2.3001281000033487,2.499916300002951,3.491131300019333,1.1910032000159845,6.849767600011546,4.5496395000081975,3.358636299992213,1.25677,-0.10672683028700651,-0.10227987902504791,,,,None,,-0.5,-0.5,0.721504989367167,0.725,training_double_stim.csv,0.7251614000124391,0.7584739000012632,sarah_base0,001,2023-04-29_15h33.10.161,expectation_shapes_perceived_time,2022.2.4,120.19548592963454,
1,500,0.5,none,60,red,green,no_Expectation,,,,,,1,0,10,8,train_doubleStim,,,,,,red,0.7342254561616298,0.7333333333333333,2.2999407000024803,0.9980364000075497,1e-05,1e-05,0.03333,0.7330302000045776,0.7666663999843877,1.9997997999889776,2.033145900000818,2.2999407000024803,2.2999407000024803,2.499928400007775,2.941787799994927,0.6418470999924466,5.033334000007017,2.7333933000045363,2.0915462000120897,0.86307,0.06164578385257723,-0.13435619557612985,,,,None,,0.5,0.5,1.2675554561616298,1.2666666666666666,training_double_stim.csv,1.2666511999850627,1.2998612000083085,sarah_base0,001,2023-04-29_15h33.10.161,expectation_shapes_perceived_time,2022.2.4,120.19548592963454,
1,-500,0.5,none,77,green,red,no_Expectation,,,,,,1,1,11,1,train_doubleStim,,,,,,green,0.6771750718325493,0.675,2.300183699990157,0.9978728000132833,2e-05,2e-05,0.03289,0.675229299988132,0.7081723999872338,2.000181299983524,2.0334708000009414,2.300183699990157,2.300183699990157,2.4999548999767285,3.250205199990887,0.9500215000007302,4.64951829999336,2.3493346000032034,1.3993131000024732,0.73822,0.108324105660036,-0.100586669541462,,,,None,,-0.5,-0.5,0.1438450718325493,0.14166666666666666,training_double_stim.csv,0.14153809999697842,0.17490699997870252,sarah_base0,001,2023-04-29_15h33.10.161,expectation_shapes_perceived_time,2022.2.4,120.19548592963454,
1,500,0.5,none,25,green,red,no_Expectation,,,,,,1,2,12,6,train_doubleStim,,,,,,green,0.2228580664918682,0.225,2.299787500000093,0.9988411999947857,1e-05,1e-05,0.03303,0.22466729997540824,0.25797559999045916,1.9998828999814577,2.0331891999812797,2.299787500000093,2.299787500000093,2.499713099998189,2.441047099971911,0.1412595999718178,4.432959999976447,2.1331724999763537,1.991912900004536,0.45034,0.14602786724540134,0.02297067574646763,,,,None,,0.5,0.5,0.7561880664918682,0.7583333333333333,training_double_stim.csv,0.7579700999776833,0.7915777999733109,sarah_base0,001,2023-04-29_15h33.10.161,expectation_shapes_perceived_time,2022.2.4,120.19548592963454,
1,-500,0.5,none,68,red,green,no_Expectation,,,,,,1,3,13,3,train_doubleStim,,,,,,red,1.517654212077768,1.5166666666666666,2.299938399984967,0.998520399996778,2e-05,2e-05,,1.5164782000065316,1.5498834000027273,1.99985170000582,,2.299938399984967,2.299938399984967,2.499867999984417,2.299938399984967,0.0,3.9081406999903265,1.6082023000053596,1.6082023000053596,1.22881,-0.09734246214723055,-0.11124852816826347,,,,None,,-0.5,-0.5,0.984324212077768,0.9833333333333333,training_double_stim.csv,0.9832343999878503,1.016755299991928,sarah_base0,001,2023-04-29_15h33.10.161,expectation_shapes_perceived_time,2022.2.4,120.19548592963454,
1,-500,0.5,none,59,green,red,no_Expectation,,,,,,1,4,14,0,train_doubleStim,,,,,,green,1.574558677399213,1.575,2.300201300007757,0.9971914999769069,1e-05,1e-05,0.03351,1.5755287000210956,1.6086868999991566,2.00016800002777,2.0337234000035096,2.300201300007757,2.300201300007757,2.5003400999994483,2.308757400023751,0.008556100015994161,5.175173700001324,2.874972399993567,2.8664162999775726,1.47753,-0.14745536823278343,-0.010426137147772565,,,,None,,-0.5,-0.5,1.0412286773992132,1.0416666666666667,training_double_stim.csv,1.0419452000060119,1.0751476000004914,sarah_base0,001,2023-04-29_15h33.10.161,expectation_shapes_perceived_time,2022.2.4,120.19548592963454,
1,500,0.5,none,98,red,green,no_Expectation,,,,,,1,5,15,5,train_doubleStim,,,,,,red,0.8201171833907267,0.825,2.29930039998726,0.9982538000040222,1e-05,1e-05,0.03326,0.8246385999955237,0.8578352000040468,1.9996379000076558,2.032936500007054,2.29930039998726,2.29930039998726,2.4992986999859568,2.9410552000044845,0.6417548000172246,4.941190899990033,2.6418905000027735,2.000135699985549,1.31022,-0.12232037298448628,-0.08300311023947284,,,,None,,0.5,0.5,1.3534471833907267,1.3583333333333334,training_double_stim.csv,1.3578737000061665,1.3911827999982052,sarah_base0,001,2023-04-29_15h33.10.161,expectation_shapes_perceived_time,2022.2.4,120.19548592963454,
1,-500,0.5,none,23,green,red,no_Expectation,,,,,,1,6,16,2,train_doubleStim,,,,,,green,1.2455449313656408,1.25,2.299613600014709,0.9980680999869946,1e-05,1e-05,0.03334,1.2499991000222508,1.2827301000070293,1.9998250000062399,2.033151200012071,2.299613600014709,2.299613600014709,2.4997520000033546,3.6496197000087705,1.3500060999940615,6.374452200019732,4.074838600005023,2.7248325000109617,1.22593,-0.09633225336845122,-0.11212442605180391,,,,None,,-0.5,-0.5,0.7122149313656408,0.7166666666666667,training_double_stim.csv,0.7163852000085171,0.7495070000004489,sarah_base0,001,2023-04-29_15h33.10.161,expectation_shapes_perceived_time,2022.2.4,120.19548592963454,
1,500,0.5,none,88,red,green,no_Expectation,,,,,,1,7,17,9,train_doubleStim,,,,,,red,0.6391833545670234,0.6416666666666666,2.3002492999949027,0.9984564000042155,1e-05,1e-05,,0.6417045000125654,0.6749585999932606,2.0000773000065237,,2.3002492999949027,2.3002492999949027,2.49997400000575,3.050170700007584,0.7499214000126813,4.9082975999917835,2.608048299996881,1.8581268999841996,1.14608,-0.06548428784809793,-0.13252772540686486,,,,None,,0.5,0.5,1.1725133545670232,1.175,training_double_stim.csv,1.174982500000624,1.208275799988769,sarah_base0,001,2023-04-29_15h33.10.161,expectation_shapes_perceived_time,2022.2.4,120.19548592963454,
1,-500,0.5,none,46,red,green,no_Expectation,,,,,,1,8,18,4,train_doubleStim,,,,,,red,1.5405225685269588,1.5416666666666667,2.299941899982514,0.9976916999730747,1e-05,1e-05,,1.5415863999805879,1.574675899988506,1.9996684000070672,2.0330824999837205,2.299941899982514,2.299941899982514,2.499817500007339,2.8746259000035934,0.5746840000210796,5.0079996999993455,2.7080578000168316,2.133373799995752,1.07972,-0.03663558077952964,-0.14321181577452496,,,,None,,-0.5,-0.5,1.0071925685269587,1.0083333333333333,training_double_stim.csv,1.0083877999859396,1.0413669999979902,sarah_base0,001,2023-04-29_15h33.10.161,expectation_shapes_perceived_time,2022.2.4,120.19548592963454,
1,500,0.5,none,33,green,red,no_Expectation,,,,,,1,9,19,7,train_doubleStim,,,,,,green,1.1986786881932727,1.2,2.2992869000008795,0.9981954999966547,1e-05,1e-05,0.03288,1.1994711000006646,1.2331781999964733,1.9999345999967773,2.032641199999489,2.2992869000008795,2.2992869000008795,2.4993249000108335,2.307656399992993,0.00836949999211356,5.832898699998623,3.533611799997743,3.5252423000056297,0.97354,0.012276074278853584,-0.14731289134624298,,,,None,,0.5,0.5,1.7320086881932728,1.7333333333333334,training_double_stim.csv,1.733032899996033,1.7662506999913603,sarah_base0,001,2023-04-29_15h33.10.161,expectation_shapes_perceived_time,2022.2.4,120.19548592963454,
1,-500,0.5,none,23,green,red,no_Expectation,,,,,,2,0,20,2,train_doubleStim,,,,,,green,1.5911323381834364,1.5916666666666666,2.3000237999949604,0.9982422000030056,4e-05,4e-05,,1.5917537999921478,1.6253199999919161,2.000381899997592,,2.3000237999949604,2.3000237999949604,2.500422000011895,2.7587193000072148,0.45869550001225434,5.333134400018025,3.0331106000230648,2.5744151000108104,1.57171,-0.14408835213339283,0.03302024736390253,,,,None,,-0.5,-0.5,1.0578023381834365,1.0583333333333333,training_double_stim.csv,1.0589188000012655,1.092130900011398,sarah_base0,001,2023-04-29_15h33.10.161,expectation_shapes_perceived_time,2022.2.4,120.19548592963454,
1,500,0.5,none,33,green,red,no_Expectation,,,,,,2,1,21,7,train_doubleStim,,,,,,green,1.1403420892893692,1.1416666666666666,2.3004915000055917,0.9983340999751817,3e-05,3e-05,0.03356,1.142005200003041,1.1753810000082012,2.0005079000256956,2.0339169000217225,2.3004915000055917,2.3004915000055917,2.5005830000154674,3.317270700004883,1.0167791999992914,8.31726950002485,6.016778000019258,4.999998800019966,0.75964,0.10131301508411343,-0.10764507852687052,,,,None,,0.5,0.5,1.673672089289369,1.675,training_double_stim.csv,1.6755052000225987,1.708318600023631,sarah_base0,001,2023-04-29_15h33.10.161,expectation_shapes_perceived_time,2022.2.4,120.19548592963454,
1,-500,0.5,none,59,green,red,no_Expectation,,,,,,2,2,22,0,train_doubleStim,,,,,,green,0.861337094011799,0.8666666666666667,2.3003804000036325,0.9978892999934033,3e-05,3e-05,,0.8666623000171967,0.8998557000013534,2.000058900011936,,2.3003804000036325,2.3003804000036325,2.499875100009376,2.600020100013353,0.2996397000097204,4.791326900012791,2.4909465000091586,2.1913067999994382,0.53829,0.14675522155048507,-0.01773964216544325,,,,None,,-0.5,-0.5,0.3280070940117991,0.325,training_double_stim.csv,0.3251577000191901,0.3583954000205267,sarah_base0,001,2023-04-29_15h33.10.161,expectation_shapes_perceived_time,2022.2.4,120.19548592963454,
1,500,0.5,none,60,red,green,no_Expectation,,,,,,2,3,23,8,train_doubleStim,,,,,,red,1.1075300001591595,1.1083333333333334,2.3000508999975864,0.9986427999974694,1e-05,1e-05,,1.1085552999866195,1.141868800012162,2.000204100011615,2.0334299000096507,2.3000508999975864,2.3000508999975864,2.5004131000023335,2.7831265999993775,0.4830757000017911,4.29170790000353,1.9916570000059437,1.5085813000041526,0.70549,0.11807454080483366,-0.08893926450234223,,,,None,,0.5,0.5,1.6408600001591593,1.6416666666666666,training_double_stim.csv,1.6418638000031933,1.6750272999925073,sarah_base0,001,2023-04-29_15h33.10.161,expectation_shapes_perceived_time,2022.2.4,120.19548592963454,
1,-500,0.5,none,77,green,red,no_Expectation,,,,,,2,4,24,1,train_doubleStim,,,,,,green,0.9170933603234311,0.9166666666666666,2.3006205999990925,0.9972564999770839,1e-05,1e-05,0.03397,0.917037299979711,0.9504944999935105,2.000254299986409,2.033484999992652,2.3006205999990925,2.3006205999990925,2.500409200001741,2.7506087999790907,0.44998819997999817,3.7834829000057653,1.4828623000066727,1.0328741000266746,0.76834,0.09833309168108137,-0.11037387841754029,,,,None,,-0.5,-0.5,0.38376336032343117,0.3833333333333333,training_double_stim.csv,0.38356970000313595,0.41680360000464134,sarah_base0,001,2023-04-29_15h33.10.161,expectation_shapes_perceived_time,2022.2.4,120.19548592963454,
1,-500,0.5,none,68,red,green,no_Expectation,,,,,,2,5,25,3,train_doubleStim,,,,,,red,1.3985376697367342,1.4,2.3000309000199195,0.9984212999988813,1e-05,1e-05,0.03361,1.400129100016784,1.4332581000053324,2.0001238000113517,2.0333499000116717,2.3000309000199195,2.3000309000199195,2.499919099995168,2.6416304000013042,0.3415994999813847,4.2665097000135574,1.966478799993638,1.6248793000122532,0.81283,0.08199772971808414,-0.1229965945771262,,,,None,,-0.5,-0.5,0.8652076697367341,0.8666666666666667,training_double_stim.csv,0.8666992000071332,0.8999973000027239,sarah_base0,001,2023-04-29_15h33.10.161,expectation_shapes_perceived_time,2022.2.4,120.19548592963454,
1,500,0.5,none,25,green,red,no_Expectation,,,,,,2,6,26,6,train_doubleStim,,,,,,green,1.123431710950033,1.125,2.2995586000033654,0.9981346999993548,1e-05,1e-05,0.03294,1.1249284999794327,1.1583456999796908,1.9996982000011485,2.0331055999849923,2.2995586000033654,2.2995586000033654,2.4994234000041615,2.7165336000034586,0.41697500000009313,4.524509199982276,2.2249505999789108,1.8079755999788176,0.64043,0.13366920840914015,-0.06312157063764953,,,,None,,0.5,0.5,1.656761710950033,1.6583333333333332,training_double_stim.csv,1.6580194999987725,1.6913140999968164,sarah_base0,001,2023-04-29_15h33.10.161,expectation_shapes_perceived_time,2022.2.4,120.19548592963454,
1,-500,0.5,none,46,red,green,no_Expectation,,,,,,2,7,27,4,train_doubleStim,,,,,,red,1.513059891350244,1.5166666666666666,2.299815000005765,0.9990555999975186,1e-05,1e-05,0.03287,1.5163445999787655,1.5496847000031266,1.999498399993172,2.0329685999895446,2.299815000005765,2.299815000005765,2.4995279999857303,3.0076323999965098,0.7078173999907449,4.7499392000027,2.450124199996935,1.7423068000061903,0.89018,0.049993722604825624,-0.13911296724821046,,,,None,,-0.5,-0.5,0.979729891350244,0.9833333333333333,training_double_stim.csv,0.9830420999787748,1.0163253999780864,sarah_base0,001,2023-04-29_15h33.10.161,expectation_shapes_perceived_time,2022.2.4,120.19548592963454,
1,500,0.5,none,98,red,green,no_Expectation,,,,,,2,8,28,5,train_doubleStim,,,,,,red,0.4452616926558443,0.45,2.299666500010062,0.9975871999922674,1e-05,1e-05,0.03365,0.4502929000009317,0.4836522999976296,2.000092100002803,,2.299666500010062,2.299666500010062,2.4996406999998726,2.299666500010062,0.0,5.433239000005415,3.1335724999953527,3.1335724999953527,0.6506,0.13158483276037708,-0.06735890248447875,,,,None,,0.5,0.5,0.9785916926558443,0.9833333333333333,training_double_stim.csv,0.9833845999964979,1.01665169998887,sarah_base0,001,2023-04-29_15h33.10.161,expectation_shapes_perceived_time,2022.2.4,120.19548592963454,
1,500,0.5,none,88,red,green,no_Expectation,,,,,,2,9,29,9,train_doubleStim,,,,,,red,0.26971739701491493,0.26666666666666666,2.3000743000011425,0.9980999999970663,1e-05,1e-05,0.03312,0.2666227000008803,0.2996512999816332,1.9998153999913484,2.0333896999945864,2.3000743000011425,2.3000743000011425,2.49980739998864,2.949598799983505,0.6495244999823626,4.20843669999158,1.9083623999904376,1.258837900008075,0.57193,0.14406578429532446,-0.03311857110237344,,,,None,,0.5,0.5,0.803047397014915,0.8083333333333333,training_double_stim.csv,0.8077250999922398,0.8413167999824509,sarah_base0,001,2023-04-29_15h33.10.161,expectation_shapes_perceived_time,2022.2.4,120.19548592963454,
1,500,0.5,none,98,red,green,no_Expectation,,,,,,3,0,30,5,train_doubleStim,,,,,,red,1.3139513720169715,1.3166666666666667,2.2998866999987513,0.9978114000114147,1e-05,1e-05,,1.3163587999879383,1.349680499988608,1.9998078999924473,,2.2998866999987513,2.2998866999987513,2.4998095000046305,2.6249678999884054,0.3250811999896541,3.832936699996935,1.533049999998184,1.2079688000085298,1.12489,-0.056520583858719185,-0.1365914109919047,,,,None,,0.5,0.5,1.8472813720169716,1.8499999999999999,training_double_stim.csv,1.8499917000008281,1.8833516000013333,sarah_base0,001,2023-04-29_15h33.10.161,expectation_shapes_perceived_time,2022.2.4,120.19548592963454,
1,-500,0.5,none,46,red,green,no_Expectation,,,,,,3,1,31,4,train_doubleStim,,,,,,red,1.0975163308099012,1.1,2.2999279999930877,0.997674400015967,1e-05,1e-05,0.03331,1.0997873999876902,1.1332404999993742,1.9999616999994032,2.0332281999872066,2.2999279999930877,2.2999279999930877,2.4999165999761317,2.2999279999930877,0.0,5.1749402999994345,2.8750123000063468,2.8750123000063468,0.97793,0.010240857765327918,-0.14746835182072202,,,,None,,-0.5,-0.5,0.5641863308099011,0.5666666666666667,training_double_stim.csv,0.5666105999844149,0.5999941999907605,sarah_base0,001,2023-04-29_15h33.10.161,expectation_shapes_perceived_time,2022.2.4,120.19548592963454,
1,-500,0.5,none,68,red,green,no_Expectation,,,,,,3,2,32,3,train_doubleStim,,,,,,red,1.4247320345707108,1.425,2.3000637000077404,0.9982751999923494,1e-05,1e-05,0.03329,1.4251028000144288,1.4583572999981698,2.0000307000009343,2.0333781999943312,2.3000637000077404,2.3000637000077404,2.499981700006174,2.7417409000045154,0.441677199996775,4.492010400019353,2.191946700011613,1.7502695000148378,0.95827,0.019325903201866116,-0.1465547659474847,,,,None,,-0.5,-0.5,0.8914020345707108,0.8916666666666666,training_double_stim.csv,0.8918133999977726,0.9250483000068925,sarah_base0,001,2023-04-29_15h33.10.161,expectation_shapes_perceived_time,2022.2.4,120.19548592963454,
1,500,0.5,none,33,green,red,no_Expectation,,,,,,3,3,33,7,train_doubleStim,,,,,,green,1.2281725600070346,1.2333333333333334,2.300067100004526,0.9969555999850854,2e-05,2e-05,,1.2330623000161722,1.2666012000117917,2.0000143999932334,,2.300067100004526,2.300067100004526,2.499572000000626,2.7083681999938563,0.4083010999893304,4.874799500015797,2.5747324000112712,2.166431300021941,0.85399,0.06545333971794938,-0.1325430129288475,,,,None,,0.5,0.5,1.7615025600070344,1.7666666666666666,training_double_stim.csv,1.7666779000137467,1.7995567000180017,sarah_base0,001,2023-04-29_15h33.10.161,expectation_shapes_perceived_time,2022.2.4,120.19548592963454,
1,500,0.5,none,25,green,red,no_Expectation,,,,,,3,4,34,6,train_doubleStim,,,,,,green,1.249649512303323,1.25,2.3000389999942854,0.9979848999937531,2e-05,2e-05,0.03331,1.2499402999819722,1.283483699982753,1.9999091000063345,2.0332891999860294,2.3000389999942854,2.3000389999942854,2.5000805000017863,2.5920780999877024,0.29203909999341704,5.817184099985752,3.517145099991467,3.22510599999805,1.29517,-0.11825880758807587,-0.0886941056910569,,,,None,,0.5,0.5,1.782979512303323,1.7833333333333332,training_double_stim.csv,1.783050700003514,1.816596299991943,sarah_base0,001,2023-04-29_15h33.10.161,expectation_shapes_perceived_time,2022.2.4,120.19548592963454,
1,500,0.5,none,60,red,green,no_Expectation,,,,,,3,5,35,8,train_doubleStim,,,,,,red,0.6540295450156904,0.6583333333333333,2.3002081000013277,0.9972338000079617,1e-05,1e-05,,0.6587143999931868,0.6921915999846533,2.0001823999918997,2.0337257999926805,2.3002081000013277,2.3002081000013277,2.5005611999949906,2.3002081000013277,0.0,4.750382800004445,2.4501747000031173,2.4501747000031173,0.78197,0.09351960059079466,-0.11448089037838657,,,,None,,0.5,0.5,1.1873595450156904,1.1916666666666667,training_double_stim.csv,1.1921505999926012,1.225331699999515,sarah_base0,001,2023-04-29_15h33.10.161,expectation_shapes_perceived_time,2022.2.4,120.19548592963454,
1,-500,0.5,none,23,green,red,no_Expectation,,,,,,3,6,36,2,train_doubleStim,,,,,,green,1.230337859683768,1.2333333333333334,2.299798699998064,0.9982020999887027,1e-05,1e-05,0.03332,1.2331801000109408,1.2664580999989994,1.9997585999954026,2.0330894000071567,2.299798699998064,2.299798699998064,2.4999787000124343,2.299798699998064,0.0,4.4496443000098225,2.1498456000117585,2.1498456000117585,1.17444,-0.07701627753848063,-0.12617560362687252,,,,None,,-0.5,-0.5,0.6970078596837679,0.7,training_double_stim.csv,0.6994260000064969,0.732807699998375,sarah_base0,001,2023-04-29_15h33.10.161,expectation_shapes_perceived_time,2022.2.4,120.19548592963454,
1,-500,0.5,none,59,green,red,no_Expectation,,,,,,3,7,37,0,train_doubleStim,,,,,,green,1.079553870619884,1.0833333333333333,2.299660499993479,0.9985410000081174,2e-05,2e-05,0.03328,1.083073299989337,1.116546200006269,2.0000579000043217,2.0333573000098113,2.299660499993479,2.299660499993479,2.500165700010257,2.299660499993479,0.0,4.00793180000619,1.7082713000127114,1.7082713000127114,1.21944,-0.09402649567251056,-0.11406492917648822,,,,None,,-0.5,-0.5,0.546223870619884,0.55,training_double_stim.csv,0.5499653000151739,0.583142699993914,sarah_base0,001,2023-04-29_15h33.10.161,expectation_shapes_perceived_time,2022.2.4,120.19548592963454,
1,500,0.5,none,88,red,green,no_Expectation,,,,,,3,8,38,9,train_doubleStim,,,,,,red,0.7398853853480275,0.7416666666666667,2.3002862999856006,0.9982589000137523,2e-05,2e-05,,0.7417362999985926,0.774992899998324,2.000390100001823,,2.3002862999856006,2.3002862999856006,2.5001688999764156,2.825248399982229,0.5249620999966282,4.733294999983627,2.4330086999980267,1.9080466000013985,0.78247,0.0933396580345782,-0.11462765021790304,,,,None,,0.5,0.5,1.2732153853480275,1.275,training_double_stim.csv,1.2749764999898616,1.3083560999948531,sarah_base0,001,2023-04-29_15h33.10.161,expectation_shapes_perceived_time,2022.2.4,120.19548592963454,
1,-500,0.5,none,77,green,red,no_Expectation,,,,,,3,9,39,1,train_doubleStim,,,,,,green,1.4773840361294184,1.4833333333333334,2.299989799998002,0.998274700017646,5e-05,5e-05,0.03307,1.4831672000000253,1.5163296999817248,1.9996770999860018,2.0332195999799296,2.299989799998002,2.299989799998002,2.500048499990953,2.6501293999899644,0.3501395999919623,3.99974589998601,1.699756099988008,1.3496164999960456,1.09144,-0.041885220964251006,-0.14176536326361877,,,,None,,-0.5,-0.5,0.9440540361294183,0.9416666666666667,training_double_stim.csv,0.9416448999836575,0.9747017999761738,sarah_base0,001,2023-04-29_15h33.10.161,expectation_shapes_perceived_time,2022.2.4,120.19548592963454,
,,,,,,,,,0,0,0,0,0,-1,-1,0,fam,0.5327844000130426,0.5327844000130426,270.0,2.5325112999998964,2.5325112999998964,,,,,,,,,,,,,,,,,,,,,,,,,,,,,,,,,,,,sarah_base0,001,2023-04-29_15h33.10.161,expectation_shapes_perceived_time,2022.2.4,120.19548592963454,
,,,,,,,,,1,0,1,0,0,-1,-1,0,fam,0.49872400000458583,0.49872400000458583,270.0,2.4988467000075616,2.4988467000075616,,,,,,,,,,,,,,,,,,,,,,,,,,,,,,,,,,,,sarah_base0,001,2023-04-29_15h33.10.161,expectation_shapes_perceived_time,2022.2.4,120.19548592963454,
,,,,,,,,,2,0,2,0,0,-1,-1,0,fam,0.4984761000087019,0.4984761000087019,270.0,2.4987480000127107,2.4987480000127107,,,,,,,,,,,,,,,,,,,,,,,,,,,,,,,,,,,,sarah_base0,001,2023-04-29_15h33.10.161,expectation_shapes_perceived_time,2022.2.4,120.19548592963454,
,,,,,,,,,3,0,3,0,0,-1,-1,0,fam,0.4960614000156056,0.4960614000156056,270.0,2.496226100018248,2.496226100018248,,,,,,,,,,,,,,,,,,,,,,,,,,,,,,,,,,,,sarah_base0,001,2023-04-29_15h33.10.161,expectation_shapes_perceived_time,2022.2.4,120.19548592963454,
,-100,0.5,none,,red,green,,1200.561957289709,,,,,0,0,0,294,trial,,,,,,red,1.200561957289709,1.2,2.299929999979213,0.9988022000179626,1e-05,1e-05,,1.2000632999988738,1.2332322000002023,1.9998655999952462,,2.299929999979213,2.299929999979213,2.50009630000568,3.09143739999854,0.7915074000193272,4.341825599985896,2.041895600006683,1.2503881999873556,0.81567,0.08089632139958569,-0.1237237856699546,,,,None,,-0.1,-0.1,1.067231957289709,1.0666666666666667,trial_list_0.5_red.csv,1.0667938999831676,1.1000402999925427,sarah_base0,001,2023-04-29_15h33.10.161,expectation_shapes_perceived_time,2022.2.4,120.19548592963454,
,300,0.5,none,,red,green,,1375.0574095697823,,,,,0,1,1,410,trial,,,,,,red,1.3750574095697823,1.375,2.3000789000070654,0.9969701000081841,2e-05,2e-05,0.03342,1.374819299991941,1.4083898999961093,2.0004002999921795,2.033764699997846,2.3000789000070654,2.3000789000070654,2.500054599979194,2.6664661999966484,0.36638729998958297,4.374790999980178,2.0747120999731123,1.7083247999835294,0.73532,0.1092350462017883,-0.09959665977221874,,,,None,,0.3,0.3,1.7083874095697822,1.7083333333333333,trial_list_0.5_red.csv,1.708250900002895,1.7416686000069603,sarah_base0,001,2023-04-29_15h33.10.161,expectation_shapes_perceived_time,2022.2.4,120.19548592963454,
,100,0.5,none,,green,red,,766.6593209087196,,,,,0,2,2,71,trial,,,,,,green,0.7666593209087196,0.7666666666666666,2.3004131999914534,0.997878900001524,2e-05,2e-05,0.03355,0.7671188999956939,0.8003143999958411,2.0005716000159737,2.033924300019862,2.3004131999914534,2.3004131999914534,2.499953899998218,2.809066400019219,0.5086532000277657,4.534081199992215,2.233668000000762,1.7250147999729961,0.94743,0.02430203525927347,-0.1458122115556408,,,,None,,0.1,0.1,0.8999893209087196,0.9,trial_list_0.5_red.csv,0.9004162999917753,0.9335526000068057,sarah_base0,001,2023-04-29_15h33.10.161,expectation_shapes_perceived_time,2022.2.4,120.19548592963454,
,167,0.5,none,,red,green,,1144.5411438532772,,,,,0,3,3,346,trial,,,,,,red,1.144541143853277,1.15,2.299739199981559,0.9974381999927573,1e-05,1e-05,,1.149725800001761,1.1831716999877244,1.9997010999941267,,2.299739199981559,2.299739199981559,2.4998213999788277,2.716643399995519,0.4169042000139598,4.066558599995915,1.7668194000143558,1.349915200000396,0.4874,0.14770771703847232,0.005849810575781081,,,,None,,0.167,0.16666666666666666,1.344871143853277,1.35,trial_list_0.5_red.csv,1.3499646999989636,1.3833257999795023,sarah_base0,001,2023-04-29_15h33.10.161,expectation_shapes_perceived_time,2022.2.4,120.19548592963454,
,100,0.5,none,,green,red,,1203.1702607461684,,,,,0,4,4,409,trial,,,,,,green,1.2031702607461685,1.2083333333333333,2.300076399988029,0.9978665999951772,2e-05,2e-05,0.03334,1.2085220999724697,1.2416655999841169,1.999775199976284,2.033179399993969,2.300076399988029,2.300076399988029,2.500109699991299,2.9000099999830127,0.5999335999949835,4.433322500000941,2.1332461000129115,1.533312500017928,1.47659,-0.147423842466049,-0.010862809444866768,,,,None,,0.1,0.1,1.3365002607461685,1.3416666666666666,trial_list_0.5_red.csv,1.3418028999876697,1.3752403999969829,sarah_base0,001,2023-04-29_15h33.10.161,expectation_shapes_perceived_time,2022.2.4,120.19548592963454,
,-100,0.5,none,,red,green,,713.0572550429758,,,,,0,5,5,328,trial,,,,,,red,0.7130572550429758,0.7166666666666667,2.3002510000078473,0.9975489000207745,2e-05,2e-05,,0.7170110000006389,0.7501797000004444,2.0000105000217445,,2.3002510000078473,2.3002510000078473,2.5002998000127263,3.1252879000094254,0.825036900001578,4.533228400017833,2.232977400009986,1.407940500008408,1.31771,-0.12423961647815811,-0.08010185799249667,,,,None,,-0.1,-0.1,0.5797272550429758,0.5833333333333334,trial_list_0.5_red.csv,0.5834991000010632,0.6166442999965511,sarah_base0,001,2023-04-29_15h33.10.161,expectation_shapes_perceived_time,2022.2.4,120.19548592963454,
,-233,0.5,none,,red,green,,1030.724376704948,,,,,0,6,6,254,trial,,,,,,red,1.030724376704948,1.0333333333333332,2.299785300012445,0.99908609999693,1e-05,1e-05,0.03305,1.0326426000101492,1.065969799994491,2.0000508000084665,2.0329041999939363,2.299785300012445,2.299785300012445,2.4997714000055566,3.132899499993073,0.8331141999806277,5.283379700005753,2.983594399993308,2.15048020001268,1.60242,-0.1402376945077212,0.046745898169240394,,,,None,,-0.233,-0.23333333333333334,0.764394376704948,0.7666666666666666,trial_list_0.5_red.csv,0.7665422999998555,0.7997314000094775,sarah_base0,001,2023-04-29_15h33.10.161,expectation_shapes_perceived_time,2022.2.4,120.19548592963454,
,-33,0.5,none,,red,green,,1451.9901255132113,,,,,0,7,7,70,trial,,,,,,red,1.4519901255132113,1.4583333333333333,2.300099499989301,0.9978154999844264,5e-05,5e-05,0.03363,1.4582445999840274,1.491582999995444,1.9999852999753784,2.033068099990487,2.300099499989301,2.300099499989301,2.4999378999928012,3.0000355999800377,0.6999360999907367,4.383582399983425,2.0834828999941237,1.383546800003387,1.56605,-0.1446526634226262,0.030453192299500255,,,,None,,-0.033,-0.03333333333333333,1.3856601255132113,1.3916666666666666,trial_list_0.5_red.csv,1.3917357999889646,1.4249188999820035,sarah_base0,001,2023-04-29_15h33.10.161,expectation_shapes_perceived_time,2022.2.4,120.19548592963454,
,233,0.5,none,,red,green,,658.9440855042844,,,,,0,8,8,414,trial,,,,,,red,0.6589440855042844,0.6583333333333333,2.299934300011955,0.9979986000107601,3e-05,3e-05,,0.6582710000220686,0.6916066000121646,2.0001610000035726,,2.299934300011955,2.299934300011955,2.5000788000179455,2.5581127000041306,0.2581783999921754,4.091516400018008,1.7915821000060532,1.5334037000138778,0.59502,0.14128660736146373,-0.043472802265065766,,,,None,,0.233,0.23333333333333334,0.9252740855042845,0.9249999999999999,trial_list_0.5_red.csv,0.9249727000133134,0.9582021000096574,sarah_base0,001,2023-04-29_15h33.10.161,expectation_shapes_perceived_time,2022.2.4,120.19548592963454,
,33,0.5,none,,red,green,,494.6009506435368,,,,,0,9,9,40,trial,,,,,,red,0.4946009506435368,0.49166666666666664,2.300021499977447,0.9986013999732677,3e-05,3e-05,0.03322,0.4919649999937974,0.5251970999815967,1.9998493999883067,2.033556599984877,2.300021499977447,2.300021499977447,2.499968699994497,3.074869799980661,0.7748483000032138,4.8330292999744415,2.5330077999969944,1.7581594999937806,0.79314,0.08944553213751907,-0.11769148965463036,,,,None,,0.033,0.03333333333333333,0.5609309506435369,0.5583333333333333,trial_list_0.5_red.csv,0.55859979998786,0.5917836999869905,sarah_base0,001,2023-04-29_15h33.10.161,expectation_shapes_perceived_time,2022.2.4,120.19548592963454,
,33,0.5,none,,green,red,,1753.940111729455,,,,,0,10,10,237,trial,,,,,,green,1.753940111729455,1.7583333333333333,2.2999105000053532,0.9981934000097681,2e-05,2e-05,0.03323,1.7585854000062682,1.791447399999015,2.0000989999971353,2.033445599983679,2.2999105000053532,2.2999105000053532,2.5000899999868125,2.9503043000004254,0.6503937999950722,3.9749668999866117,1.6750563999812584,1.0246625999861863,0.64597,0.13255123569710847,-0.06543668597705356,,,,None,,0.033,0.03333333333333333,1.820270111729455,1.825,trial_list_0.5_red.csv,1.8248007000074722,1.8585223999980371,sarah_base0,001,2023-04-29_15h33.10.161,expectation_shapes_perceived_time,2022.2.4,120.19548592963454,
,167,0.5,none,,red,green,,222.92758075591672,,,,,0,11,11,252,trial,,,,,,red,0.22292758075591673,0.225,2.300161199993454,0.9979261999833398,2e-05,2e-05,,0.2250720000010915,0.25817069999175146,2.00007869998808,,2.300161199993454,2.300161199993454,2.5003647999837995,2.9416799999889918,0.6415187999955378,4.416595099988626,2.1164338999951724,1.4749150999996345,0.51606,0.1476353382365827,-0.007456330213968823,,,,None,,0.167,0.16666666666666666,0.4232575807559167,0.425,trial_list_0.5_red.csv,0.4249950999801513,0.45849309998448007,sarah_base0,001,2023-04-29_15h33.10.161,expectation_shapes_perceived_time,2022.2.4,120.19548592963454,
,-100,0.5,none,,green,red,,1277.5486288335762,,,,,0,12,12,169,trial,,,,,,green,1.2775486288335762,1.2833333333333332,2.2997378000000026,0.9976529000268783,2e-05,2e-05,0.03306,1.2831042000034358,1.3166970000020228,1.9999373000173364,2.033110399992438,2.2997378000000026,2.2997378000000026,2.4998091000015847,3.374914899992291,1.0751770999922883,5.050415500008967,2.750677700008964,1.675500600016676,1.01326,-0.006153973221130802,-0.14769535730713926,,,,None,,-0.1,-0.1,1.1442186288335763,1.15,trial_list_0.5_red.csv,1.149741700006416,1.1830887999967672,sarah_base0,001,2023-04-29_15h33.10.161,expectation_shapes_perceived_time,2022.2.4,120.19548592963454,
,233,0.5,none,,red,green,,446.5830103934925,,,,,0,13,13,298,trial,,,,,,red,0.44658301039349246,0.45,2.299776899977587,0.9979693000204861,2e-05,2e-05,0.0333,0.44975559998420067,0.4830849999852944,1.9995683999732137,2.032887399982428,2.299776899977587,2.299776899977587,2.4997530999826267,2.374974199978169,0.07519730000058189,4.125344100000802,1.8255672000232153,1.7503699000226334,0.43281,0.14454218443192057,0.030973325235411554,,,,None,,0.233,0.23333333333333334,0.7129130103934925,0.7166666666666667,trial_list_0.5_red.csv,0.7165523000003304,0.7500115000002552,sarah_base0,001,2023-04-29_15h33.10.161,expectation_shapes_perceived_time,2022.2.4,120.19548592963454,
,-167,0.5,none,,red,green,,849.6419460954805,,,,,0,14,14,432,trial,,,,,,red,0.8496419460954805,0.85,2.300099299987778,0.9976017999870237,1e-05,1e-05,0.03324,0.8500316999852657,0.8833939999749418,1.999583700002404,2.032901500002481,2.300099299987778,2.300099299987778,2.5001426999806426,2.733072599978186,0.4329732999904081,4.066546899994137,1.7664476000063587,1.3334743000159506,0.59215,0.14167193518799379,-0.04220015090706199,,,,None,,-0.167,-0.16666666666666666,0.6493119460954805,0.65,trial_list_0.5_red.csv,0.6501672999875154,0.6832919000007678,sarah_base0,001,2023-04-29_15h33.10.161,expectation_shapes_perceived_time,2022.2.4,120.19548592963454,
,167,0.5,none,,green,red,,1610.6430926965284,,,,,0,15,15,57,trial,,,,,,green,1.6106430926965283,1.6166666666666667,2.300060800014762,0.998039099999005,2e-05,2e-05,0.03328,1.6165724000020418,1.6500677000149153,1.9996722000068985,,2.300060800014762,2.300060800014762,2.4999598000140395,2.650035000027856,0.34997420001309365,4.899996900028782,2.5999361000140198,2.249961900000926,1.49363,-0.14779395364965298,-0.0029558790729930593,,,,None,,0.167,0.16666666666666666,1.8109730926965282,1.8166666666666667,trial_list_0.5_red.csv,1.8165685000130907,1.8497295000124723,sarah_base0,001,2023-04-29_15h33.10.161,expectation_shapes_perceived_time,2022.2.4,120.19548592963454,
,233,0.5,none,,red,green,,1376.7956006301313,,,,,0,16,16,386,trial,,,,,,red,1.3767956006301312,1.375,2.3000018000020646,0.9974119000253268,1e-05,1e-05,,1.3750341999984812,1.408244599995669,2.0004339999868535,,2.3000018000020646,2.3000018000020646,2.5004771999956574,2.8000843999907374,0.5000825999886729,4.008229300001403,1.7082274999993388,1.2081449000106659,1.26767,-0.11016418637856207,-0.09856795623345027,,,,None,,0.233,0.23333333333333334,1.6431256006301311,1.6416666666666666,trial_list_0.5_red.csv,1.6417970999900717,1.6749071999802254,sarah_base0,001,2023-04-29_15h33.10.161,expectation_shapes_perceived_time,2022.2.4,120.19548592963454,
,33,0.5,none,,green,red,,805.8340049702664,,,,,0,17,17,259,trial,,,,,,green,0.8058340049702664,0.8083333333333333,2.3001264999911655,0.9981357999786269,1e-05,1e-05,0.0331,0.808254899980966,0.8414745999907609,2.0001530000008643,2.0336347999982536,2.3001264999911655,2.3001264999911655,2.500102699996205,2.983443699980853,0.6833171999896877,4.875412299996242,2.5752858000050765,1.8919686000153888,1.0341,-0.015803900997396553,-0.14697627927578794,,,,None,,0.033,0.03333333333333333,0.8721640049702665,0.875,trial_list_0.5_red.csv,0.8746458999812603,0.9080086999747436,sarah_base0,001,2023-04-29_15h33.10.161,expectation_shapes_perceived_time,2022.2.4,120.19548592963454,
,300,0.5,none,,red,green,,935.956049693788,,,,,0,18,18,4,trial,,,,,,red,0.935956049693788,0.9333333333333333,2.300097300001653,0.9976823000179138,3e-05,3e-05,0.03312,0.9333592999901157,0.9669155000010505,2.0000954999995884,2.033357700012857,2.300097300001653,2.300097300001653,2.5000819000124466,2.8085448000056203,0.5084475000039674,6.1833767000061926,3.8832794000045396,3.374831900000572,1.25247,-0.10533412799349606,-0.1037136029474423,,,,None,,0.3,0.3,1.2692860496937879,1.275,trial_list_0.5_red.csv,1.2750522999849636,1.3084859999944456,sarah_base0,001,2023-04-29_15h33.10.161,expectation_shapes_perceived_time,2022.2.4,120.19548592963454,
,33,0.5,none,,green,red,,408.4174087207186,,,,,0,19,19,215,trial,,,,,,green,0.4084174087207186,0.4083333333333333,2.3000553000019863,0.9979306000168435,4e-05,4e-05,0.03315,0.40865940001094714,0.4421431999944616,2.0001619000104256,2.033640600013314,2.3000553000019863,2.3000553000019863,2.5004227999888826,2.999767700006487,0.6997124000045005,4.892034499993315,2.5919791999913286,1.8922667999868281,1.35099,-0.13191958848021595,-0.0667009155237047,,,,None,,0.033,0.03333333333333333,0.4747474087207186,0.475,trial_list_0.5_red.csv,0.47501520000514574,0.5085376999923028,sarah_base0,001,2023-04-29_15h33.10.161,expectation_shapes_perceived_time,2022.2.4,120.19548592963454,
,167,0.5,none,,red,green,,328.31524305614187,,,,,0,20,20,440,trial,,,,,,red,0.32831524305614185,0.325,2.299482300004456,0.9986270000226796,1e-05,1e-05,0.03301,0.32447679998585954,0.3582991999865044,1.9995030999998562,2.0327999999863096,2.299482300004456,2.299482300004456,2.499519999983022,2.783029499987606,0.48354719998314977,4.80778079997981,2.5082984999753535,2.0247512999922037,1.24078,-0.10145462759328765,-0.10751162028542423,,,,None,,0.167,0.16666666666666666,0.5286452430561419,0.5333333333333333,trial_list_0.5_red.csv,0.5332812999840826,0.5665028000075836,sarah_base0,001,2023-04-29_15h33.10.161,expectation_shapes_perceived_time,2022.2.4,120.19548592963454,
,300,0.5,none,,red,green,,1028.6599833148946,,,,,0,21,21,68,trial,,,,,,red,1.0286599833148946,1.0333333333333332,2.2996574999997392,0.9985487000085413,1e-05,1e-05,0.03323,1.0331035999988671,1.0667870999895968,1.9996530000062194,2.0330990999937057,2.2996574999997392,2.2996574999997392,2.4997812999936286,2.824550299992552,0.5248927999928128,5.883265299984487,3.5836077999847475,3.0587149999919347,0.76337,0.10004684196066056,-0.10882288072913957,,,,None,,0.3,0.3,1.3619899833148945,1.3666666666666667,trial_list_0.5_red.csv,1.3660460999817587,1.3994402999815065,sarah_base0,001,2023-04-29_15h33.10.161,expectation_shapes_perceived_time,2022.2.4,120.19548592963454,
,-33,0.5,none,,red,green,,1169.472166880023,,,,,0,22,22,370,trial,,,,,,red,1.169472166880023,1.175,2.30012679999345,0.9983270000084303,3e-05,3e-05,,1.174673499976052,1.2083896999829449,1.9997267999860924,,2.30012679999345,2.30012679999345,2.4997580999915954,2.30012679999345,0.0,4.908064999995986,2.607938200002536,2.607938200002536,0.45915,0.14660808487548194,0.01891717224199767,,,,None,,-0.033,-0.03333333333333333,1.103142166880023,1.1083333333333334,trial_list_0.5_red.csv,1.108278200001223,1.1411602000007406,sarah_base0,001,2023-04-29_15h33.10.161,expectation_shapes_perceived_time,2022.2.4,120.19548592963454,
,-167,0.5,none,,green,red,,1167.7389293529657,,,,,0,23,23,89,trial,,,,,,green,1.1677389293529656,1.1666666666666667,2.3002136000141036,0.9975432000064757,2e-05,2e-05,0.03338,1.1665426999970805,1.2001591000007465,2.0001055000175256,2.033549400017364,2.3002136000141036,2.3002136000141036,2.5002262000052724,3.133501200005412,0.8332875999913085,5.9834555000124965,3.683241899998393,2.8499543000070844,0.84105,0.07078560248161761,-0.12977360454963227,,,,None,,-0.167,-0.16666666666666666,0.9674089293529656,0.9666666666666667,trial_list_0.5_red.csv,0.9667059000057634,1.0001696000108495,sarah_base0,001,2023-04-29_15h33.10.161,expectation_shapes_perceived_time,2022.2.4,120.19548592963454,
,-100,0.5,none,,red,green,,999.7401498768156,,,,,0,24,24,16,trial,,,,,,red,0.9997401498768156,1.0,2.3000637000077404,0.9979101000062656,1e-05,1e-05,,1.0000858000130393,1.0333271000126842,1.999914500018349,,2.3000637000077404,2.3000637000077404,2.5000335999939125,2.3000637000077404,0.0,5.050070500001311,2.750006799993571,2.750006799993571,0.85869,0.06349109039534757,-0.1334940874979103,,,,None,,-0.1,-0.1,0.8664101498768155,0.8666666666666667,trial_list_0.5_red.csv,0.8668583999969997,0.9003599999996368,sarah_base0,001,2023-04-29_15h33.10.161,expectation_shapes_perceived_time,2022.2.4,120.19548592963454,
,-167,0.5,none,,green,red,,710.2915798632205,0,0,0,0,0,25,25,425,fam,0.5323345999931917,0.5323345999931917,270.0,2.5320826999959536,2.5320826999959536,,,,,,,,,,,,,,,,,,,,,,,,,,,,,,,,,,,,sarah_base0,001,2023-04-29_15h33.10.161,expectation_shapes_perceived_time,2022.2.4,120.19548592963454,
,-167,0.5,none,,green,red,,710.2915798632205,1,0,1,0,0,25,25,425,fam,0.4985943000065163,0.4985943000065163,270.0,2.498310399998445,2.498310399998445,,,,,,,,,,,,,,,,,,,,,,,,,,,,,,,,,,,,sarah_base0,001,2023-04-29_15h33.10.161,expectation_shapes_perceived_time,2022.2.4,120.19548592963454,
,-167,0.5,none,,green,red,,710.2915798632205,2,0,2,0,0,25,25,425,fam,0.4983979999960866,0.4983979999960866,270.0,2.4983822999929544,2.4983822999929544,,,,,,,,,,,,,,,,,,,,,,,,,,,,,,,,,,,,sarah_base0,001,2023-04-29_15h33.10.161,expectation_shapes_perceived_time,2022.2.4,120.19548592963454,
,-167,0.5,none,,green,red,,710.2915798632205,3,0,3,0,0,25,25,425,fam,0.4989796000008937,0.4989796000008937,270.0,2.498926600004779,2.498926600004779,,,,,,,,,,,,,,,,,,,,,,,,,,,,,,,,,,,,sarah_base0,001,2023-04-29_15h33.10.161,expectation_shapes_perceived_time,2022.2.4,120.19548592963454,
,-167,0.5,none,,green,red,,710.2915798632205,,,,,0,25,25,425,trial,,,,,,green,0.7102915798632204,0.7083333333333334,2.3001835999893956,0.9909455000015441,1e-05,1e-05,0.03362,0.7086432999931276,0.741702900006203,1.999786900007166,2.033441399980802,2.3001835999893956,2.3001835999893956,2.49975610000547,2.350077799987048,0.04989419999765232,4.808096099994145,2.5079125000047497,2.4580183000070974,0.43,0.14426335076266522,0.03224710193518399,,,,None,,-0.167,-0.16666666666666666,0.5099615798632204,0.5083333333333333,trial_list_0.5_red.csv,0.5087169999897014,0.5420819999999367,sarah_base0,001,2023-04-29_15h33.10.161,expectation_shapes_perceived_time,2022.2.4,120.19548592963454,
