id,delay,expectation,congruency,trial_num,stim_color,distractor_color,block,targetTimeMs,famLoop.thisRepN,famLoop.thisTrialN,famLoop.thisN,famLoop.thisIndex,trialss.thisRepN,trialss.thisTrialN,trialss.thisN,trialss.thisIndex,isTrial,handMove.started,audioCue2Start.started,handOri,handMove.ended,audioCue2End.started,target_color,expected_target_onset,expected_target_onset_in_frames,fixationPoint.started,fixationPoint.stopped,audCueStart.started,placeholder.started,audCueStart.stopped,target.started,target.stopped,audCueEnd.started,audCueEnd.stopped,responsePointer.started,responseStarted,rtUntillMotionTreshold,cueForRep.started,space2pass.started,responsePointer.stopped,rTAfterMotionTreshold,rtDurationBtwRespMotion,perceivedTime,resp_x_coord,resp_y_coord,feedbackPointer.stopped,actualTime_x_coord,actualTime_y_coord,space2pass.keys,space2pass.rt,expected_delay,expected_delays_frame,expected_distractor,expected_distractor_frame,expBlockFiles,distractor.started,distractor.stopped,participant,session,date,expName,psychopyVersion,frameRate,
,,,,,,,,,0,0,0,0,,,,,fam,0.657137000000148,0.657137000000148,269.99999999999955,2.6655055000001084,2.6655055000001084,,,,,,,,,,,,,,,,,,,,,,,,,,,,,,,,,,,,p3_base_01,001,2023-05-02_11h29.43.266,expectation_shapes_perceived_time,2022.2.4,120.74174066081534,
,,,,,,,,,1,0,1,0,,,,,fam,0.4982579999996233,0.4982579999996233,269.99999999999955,2.5069632000004276,2.5069632000004276,,,,,,,,,,,,,,,,,,,,,,,,,,,,,,,,,,,,p3_base_01,001,2023-05-02_11h29.43.266,expectation_shapes_perceived_time,2022.2.4,120.74174066081534,
,,,,,,,,,2,0,2,0,,,,,fam,0.49830370000017865,0.49830370000017865,269.99999999999955,2.5064803999994183,2.5064803999994183,,,,,,,,,,,,,,,,,,,,,,,,,,,,,,,,,,,,p3_base_01,001,2023-05-02_11h29.43.266,expectation_shapes_perceived_time,2022.2.4,120.74174066081534,
,,,,,,,,,3,0,3,0,,,,,fam,0.4991356000000451,0.4991356000000451,269.99999999999955,2.507104399999662,2.507104399999662,,,,,,,,,,,,,,,,,,,,,,,,,,,,,,,,,,,,p3_base_01,001,2023-05-02_11h29.43.266,expectation_shapes_perceived_time,2022.2.4,120.74174066081534,
,,,,,,,,,4,0,4,0,,,,,fam,0.4984571999993932,0.4984571999993932,269.99999999999955,2.506794599999921,2.506794599999921,,,,,,,,,,,,,,,,,,,,,,,,,,,,,,,,,,,,p3_base_01,001,2023-05-02_11h29.43.266,expectation_shapes_perceived_time,2022.2.4,120.74174066081534,
,,,,,,,,,,,,,0,0,0,0,test,,,,,,red,1.3987809935782696,1.4083333333333332,2.3081357000000935,0.9987780999999814,1.4400000509340316e-05,1e-05,0.03308720000040921,1.4084014000000025,1.4418267000000924,2.000036899999941,2.0331507999999303,2.3081357000000935,2.3081357000000935,0.0,2.3081357000000935,2.608462199999849,6.449730500000442,4.141594800000348,4.141594800000348,1.50637,-0.14779395364965298,0.0029558790729930593,6.449730500000442,-0.14041254442465342,-0.04621804111691288,space,3.8393418000005113,,,,,,,,p3_base_01,001,2023-05-02_11h29.43.266,expectation_shapes_perceived_time,2022.2.4,120.74174066081534,
,,,,,,,,,,,,,1,0,1,0,test,,,,,,red,1.6789309281069549,1.6916666666666667,2.308718399999634,0.998137499999757,2.409999979136046e-05,2e-05,,1.6916160999999192,1.7254825999998502,2.000261799999862,2.0337743000000046,2.308718399999634,2.6084865000002537,0.2997681000006196,2.308718399999634,2.6084865000002537,4.758996599999591,2.450278199999957,2.1505100999993374,1.75707,-0.10217895736246904,0.10682345542439946,4.758996599999591,-0.12507683904996295,0.07878816084767808,space,2.149022600000535,,,,,,,,p3_base_01,001,2023-05-02_11h29.43.266,expectation_shapes_perceived_time,2022.2.4,120.74174066081534,
,,,,,,,,,,,,,2,0,2,0,test,,,,,,red,0.4028026091490099,0.4083333333333333,2.308681599999545,0.9949032000004081,1.4500000361294951e-05,1e-05,,0.40843169999970996,0.4416665999997349,1.9996426999996402,,2.308681599999545,2.308681599999545,0.0,2.308681599999545,2.6081911999999647,4.108360899999752,1.7996793000002071,1.7996793000002071,0.41792,0.14293598494428983,0.037697402622669844,4.108360899999752,0.1409852539410902,0.04444038847328223,space,1.4938810000003286,,,,,,,,p3_base_01,001,2023-05-02_11h29.43.266,expectation_shapes_perceived_time,2022.2.4,120.74174066081534,
,,,,,,,,,,,,,3,0,3,0,test,,,,,,red,1.636982870128892,1.65,2.3082430000004024,0.9983469000007972,1.3500000022759195e-05,1e-05,,1.650257999999667,1.6836843999999473,2.000065199999881,,2.3082430000004024,2.7581358999996155,0.4498928999992131,2.3082430000004024,2.608152300000256,4.542057200000272,2.2338141999998697,1.7839213000006566,1.66705,-0.12793035072046965,0.07406493989079822,4.542057200000272,-0.13434527741224714,0.06166957429329537,space,1.9304875000007087,,,,,,,,p3_base_01,001,2023-05-02_11h29.43.266,expectation_shapes_perceived_time,2022.2.4,120.74174066081534,
,,,,,,,,,,,,,4,0,4,0,test,,,,,,red,0.8144681168830746,0.8166666666666667,2.3085659999997006,0.998297499999353,1.4199999895936344e-05,1e-05,,0.8163480000002892,0.8495985999998084,1.9997510000002876,,2.3085659999997006,2.700334799999837,0.39176880000013625,2.3085659999997006,2.6080938000004608,4.475005399999645,2.1664393999999447,1.7746705999998085,1.24224,-0.10194724792075507,-0.10704461031679283,4.475005399999645,0.08136481676985739,-0.12341619240803636,space,1.860509600000114,,,,,,,,p3_base_01,001,2023-05-02_11h29.43.266,expectation_shapes_perceived_time,2022.2.4,120.74174066081534,
,,,,,,,,,0,0,0,0,0,-1,-1,0,fam,0.5325253999999404,0.5325253999999404,269.99999999999955,2.540687199999411,2.540687199999411,,,,,,,,,,,,,,,,,,,,,,,,,,,,,,,,,,,,p3_base_01,001,2023-05-02_11h29.43.266,expectation_shapes_perceived_time,2022.2.4,120.74174066081534,
,,,,,,,,,1,0,1,0,0,-1,-1,0,fam,0.498331099999632,0.498331099999632,269.99999999999955,2.5066618000000744,2.5066618000000744,,,,,,,,,,,,,,,,,,,,,,,,,,,,,,,,,,,,p3_base_01,001,2023-05-02_11h29.43.266,expectation_shapes_perceived_time,2022.2.4,120.74174066081534,
,,,,,,,,,2,0,2,0,0,-1,-1,0,fam,0.49886200000037206,0.49886200000037206,269.99999999999955,2.5073105000001306,2.5073105000001306,,,,,,,,,,,,,,,,,,,,,,,,,,,,,,,,,,,,p3_base_01,001,2023-05-02_11h29.43.266,expectation_shapes_perceived_time,2022.2.4,120.74174066081534,
,,,,,,,,,3,0,3,0,0,-1,-1,0,fam,0.49881809999988036,0.49881809999988036,269.99999999999955,2.5070519999999306,2.5070519999999306,,,,,,,,,,,,,,,,,,,,,,,,,,,,,,,,,,,,p3_base_01,001,2023-05-02_11h29.43.266,expectation_shapes_perceived_time,2022.2.4,120.74174066081534,
1,-500,0.5,none,23,green,red,no_Expectation,,,,,,0,0,0,2,train_doubleStim,,,,,,green,1.5615261665193412,1.575,2.308158800000456,0.999127099999896,1e-05,1e-05,0.03312,1.5747023000003537,1.6081330000006346,1.9996392000002743,2.033149300000332,2.308158800000456,2.7665670000005775,0.4584082000001217,2.308158800000456,2.5081690000006347,3.3665931000005003,1.0584343000000445,0.6000260999999227,1.29716,-0.11881197280808171,-0.08795172013065788,,,,None,,-0.5,-0.5,1.0281961665193413,1.0333333333333332,training_double_stim.csv,1.0329176000004736,1.0663229000001593,p3_base_01,001,2023-05-02_11h29.43.266,expectation_shapes_perceived_time,2022.2.4,120.74174066081534,
1,500,0.5,none,88,red,green,no_Expectation,,,,,,0,1,1,9,train_doubleStim,,,,,,red,0.7994031103554824,0.8083333333333333,2.3082039999999324,0.9989502999997057,2e-05,2e-05,,0.8082807000000685,0.8415794000002279,1.9998388000003615,,2.3082039999999324,2.5580878000000666,0.24988380000013422,2.3082039999999324,2.5081228000008196,3.391526700000213,1.0833227000002807,0.8334389000001465,1.43549,-0.1447982893357195,-0.02975307315117524,,,,None,,0.5,0.5,1.3327331103554823,1.3416666666666666,training_double_stim.csv,1.3417109000001801,1.3746004000004177,p3_base_01,001,2023-05-02_11h29.43.266,expectation_shapes_perceived_time,2022.2.4,120.74174066081534,
1,500,0.5,none,25,green,red,no_Expectation,,,,,,0,2,2,6,train_doubleStim,,,,,,green,0.656356901647329,0.6583333333333333,2.308395400000336,0.9980190000005678,2e-05,2e-05,,0.6586724999997386,0.6916799999999057,2.0002404999995633,,2.308395400000336,2.3834014000003663,0.07500600000003033,2.308395400000336,2.508312599999954,3.450281200000063,1.1418857999997272,1.0668797999996968,0.76699,0.09880064068603316,-0.10995555173123046,,,,None,,0.5,0.5,1.1896869016473288,1.2,training_double_stim.csv,1.2000062999995862,1.2336013000003732,p3_base_01,001,2023-05-02_11h29.43.266,expectation_shapes_perceived_time,2022.2.4,120.74174066081534,
1,-500,0.5,none,68,red,green,no_Expectation,,,,,,0,3,3,3,train_doubleStim,,,,,,red,1.716711032613314,1.7249999999999999,2.3081026999998357,0.9984617000000071,1e-05,1e-05,,1.7251182999998491,1.7580457999993087,2.000114399999802,,2.3081026999998357,2.7164198999998916,0.4083172000000559,2.3081026999998357,2.5085370999995575,3.5334416999994573,1.2253389999996216,0.8170217999995657,1.28056,-0.11406492917648822,-0.09402649567251056,,,,None,,-0.5,-0.5,1.1833810326133138,1.1916666666666667,training_double_stim.csv,1.1913685999998052,1.2247012999996514,p3_base_01,001,2023-05-02_11h29.43.266,expectation_shapes_perceived_time,2022.2.4,120.74174066081534,
1,500,0.5,none,33,green,red,no_Expectation,,,,,,0,4,4,7,train_doubleStim,,,,,,green,0.745869939838518,0.75,2.3083526000000347,0.9982522000000245,2e-05,2e-05,0.03349,0.7504214999999022,0.7833762999998726,2.0002633999993122,2.03343169999971,2.3083526000000347,2.8668854999996256,0.5585328999995909,2.3083526000000347,2.508652699999402,4.00861199999963,1.7002593999995952,1.1417265000000043,1.03669,-0.0170028058319665,-0.14684241400334702,,,,None,,0.5,0.5,1.2791999398385179,1.2833333333333332,training_double_stim.csv,1.2833764999995765,1.316948499999853,p3_base_01,001,2023-05-02_11h29.43.266,expectation_shapes_perceived_time,2022.2.4,120.74174066081534,
1,500,0.5,none,60,red,green,no_Expectation,,,,,,0,5,5,8,train_doubleStim,,,,,,red,0.4256839240519771,0.425,2.3083198000003904,0.9970733000000109,2e-05,2e-05,0.03335,0.4251683000002231,0.45885100000032253,2.0002643999996508,2.0336456000004546,2.3083198000003904,2.3083198000003904,0.0,2.3083198000003904,2.5083479000004445,2.9751216000004206,0.6668018000000302,0.6668018000000302,0.26843,0.11040118890592446,0.09830242847787793,,,,None,,0.5,0.5,0.9590139240519772,0.9666666666666667,training_double_stim.csv,0.9667803000002095,1.0001228999999512,p3_base_01,001,2023-05-02_11h29.43.266,expectation_shapes_perceived_time,2022.2.4,120.74174066081534,
1,-500,0.5,none,59,green,red,no_Expectation,,,,,,0,6,6,0,train_doubleStim,,,,,,green,0.8824117862806095,0.8916666666666666,2.308347400000457,0.9974369999999908,2e-05,2e-05,0.03342,0.8917324000003646,0.9250542999998288,1.9999119000003702,2.033338299999741,2.308347400000457,2.558498299999883,0.25015089999942575,2.308347400000457,2.5084587999999712,3.874928600000203,1.5665811999997459,1.3164303000003201,0.51368,0.14768696770836706,-0.006352127643370625,,,,None,,-0.5,-0.5,0.3490817862806095,0.35,training_double_stim.csv,0.34992760000022827,0.38344430000051943,p3_base_01,001,2023-05-02_11h29.43.266,expectation_shapes_perceived_time,2022.2.4,120.74174066081534,
1,-500,0.5,none,77,green,red,no_Expectation,,,,,,0,7,7,1,train_doubleStim,,,,,,green,0.9394007960021419,0.9416666666666667,2.3084509000000253,0.9978133000004163,1e-05,1e-05,,0.941606899999897,0.9751145000000179,2.0000783999994383,2.0334163999996235,2.3084509000000253,3.1417936999996527,0.8333427999996275,2.3084509000000253,2.5085105999996813,4.250456699999631,1.942005799999606,1.1086629999999786,0.68186,0.12434595433348358,-0.07993668492866803,,,,None,,-0.5,-0.5,0.4060707960021419,0.4083333333333333,training_double_stim.csv,0.4082896999998411,0.44160639999972773,p3_base_01,001,2023-05-02_11h29.43.266,expectation_shapes_perceived_time,2022.2.4,120.74174066081534,
1,500,0.5,none,98,red,green,no_Expectation,,,,,,0,8,8,5,train_doubleStim,,,,,,red,0.8638199910715887,0.8666666666666667,2.3083741999998892,0.9966946999993525,1e-05,1e-05,0.03338,0.8666929000000891,0.9001265999995667,2.000011000000086,2.0335973999999624,2.3083741999998892,2.3083741999998892,0.0,2.3083741999998892,2.508353399999578,3.1752096000000165,0.8668354000001273,0.8668354000001273,1.23541,-0.09962742625508358,-0.10920698647191855,,,,None,,0.5,0.5,1.3971499910715885,1.4083333333333332,training_double_stim.csv,1.408325800000057,1.4417993999995815,p3_base_01,001,2023-05-02_11h29.43.266,expectation_shapes_perceived_time,2022.2.4,120.74174066081534,
1,-500,0.5,none,46,red,green,no_Expectation,,,,,,0,9,9,4,train_doubleStim,,,,,,red,1.8389318729872939,1.8499999999999999,2.308362899999338,0.9980309000002308,1e-05,1e-05,0.0333,1.8498272999995606,1.8836468999998033,2.000473499999316,2.033300899999631,2.308362899999338,2.7918319999998857,0.48346910000054777,2.308362899999338,2.5087681999993947,3.7835692999997264,1.4752064000003884,0.9917372999998406,1.70892,-0.11710960350155311,0.0902060459403855,,,,None,,-0.5,-0.5,1.305601872987294,1.3166666666666667,training_double_stim.csv,1.3167639999992389,1.349930299999869,p3_base_01,001,2023-05-02_11h29.43.266,expectation_shapes_perceived_time,2022.2.4,120.74174066081534,
,,,,,,,,,0,0,0,0,0,-1,-1,0,fam,0.5324157000004561,0.5324157000004561,269.99999999999955,2.5405296000008093,2.5405296000008093,,,,,,,,,,,,,,,,,,,,,,,,,,,,,,,,,,,,p3_base_01,001,2023-05-02_11h29.43.266,expectation_shapes_perceived_time,2022.2.4,120.74174066081534,
,,,,,,,,,1,0,1,0,0,-1,-1,0,fam,0.4980279999999766,0.4980279999999766,269.99999999999955,2.5067008000005444,2.5067008000005444,,,,,,,,,,,,,,,,,,,,,,,,,,,,,,,,,,,,p3_base_01,001,2023-05-02_11h29.43.266,expectation_shapes_perceived_time,2022.2.4,120.74174066081534,
,,,,,,,,,2,0,2,0,0,-1,-1,0,fam,0.4983876999995118,0.4983876999995118,269.99999999999955,2.5069392999994307,2.5069392999994307,,,,,,,,,,,,,,,,,,,,,,,,,,,,,,,,,,,,p3_base_01,001,2023-05-02_11h29.43.266,expectation_shapes_perceived_time,2022.2.4,120.74174066081534,
,,,,,,,,,3,0,3,0,0,-1,-1,0,fam,0.49862149999989924,0.49862149999989924,269.99999999999955,2.5065468999991936,2.5065468999991936,,,,,,,,,,,,,,,,,,,,,,,,,,,,,,,,,,,,p3_base_01,001,2023-05-02_11h29.43.266,expectation_shapes_perceived_time,2022.2.4,120.74174066081534,
,-167,0.5,none,,green,red,,1227.150239319034,,,,,0,0,0,149,trial,,,,,,green,1.2271502393190339,1.2333333333333334,2.3083231999999043,0.9909139000001232,2e-05,2e-05,0.03331,1.233172100000047,1.2666227999998227,2.0002128999994966,2.0337399999998524,2.3083231999999043,2.325138999999581,0.01681579999967653,2.3083231999999043,2.5081986999994115,3.641891100000066,1.333567900000162,1.3167521000004854,1.19208,-0.08388583721571827,-0.12171670497966965,,,,None,,-0.167,-0.16666666666666666,1.026820239319034,1.0333333333333332,trial_list_0.5_green.csv,1.0333465999992768,1.0664908999997351,p3_base_01,001,2023-05-02_11h29.43.266,expectation_shapes_perceived_time,2022.2.4,120.74174066081534,
,-167,0.5,none,,red,green,,985.218618405654,,,,,0,1,1,440,trial,,,,,,red,0.985218618405654,0.9916666666666667,2.308416500000021,0.9963064000003214,1e-05,1e-05,0.03351,0.9918146999998498,1.0248603999998522,1.9998826999999437,2.033573599999727,2.308416500000021,2.6168799999995827,0.30846349999956146,2.308416500000021,2.50817300000017,4.0916344999996,1.7832179999995788,1.4747545000000173,1.13348,-0.060187706356197024,-0.13501566560984737,,,,None,,-0.167,-0.16666666666666666,0.7848886184056539,0.7916666666666666,trial_list_0.5_green.csv,0.791704899999786,0.8251027999995131,p3_base_01,001,2023-05-02_11h29.43.266,expectation_shapes_perceived_time,2022.2.4,120.74174066081534,
,233,0.5,none,,red,green,,435.65146702171216,,,,,0,2,2,328,trial,,,,,,red,0.43565146702171215,0.44166666666666665,2.308513799999673,0.9977009000003818,4e-05,4e-05,0.03325,0.44182009999985894,0.4751816999996663,2.0003465999998298,2.0334894999996322,2.308513799999673,2.3584295999999085,0.04991580000023532,2.308513799999673,2.5084630999999717,3.1003006999999343,0.7917869000002611,0.7418711000000258,0.64758,0.13221736635250278,-0.06610868317625139,,,,None,,0.233,0.23333333333333334,0.7019814670217122,0.7083333333333334,trial_list_0.5_green.csv,0.7084818999992422,0.7417035999997097,p3_base_01,001,2023-05-02_11h29.43.266,expectation_shapes_perceived_time,2022.2.4,120.74174066081534,
,-100,0.5,none,,red,green,,588.1555148362081,,,,,0,3,3,120,trial,,,,,,red,0.5881555148362081,0.5916666666666667,2.3083333999993556,0.9971821999997701,1e-05,1e-05,0.03362,0.5923336999994717,0.6257977999994182,2.000316799999382,2.033452799999395,2.3083333999993556,2.5668215999994572,0.25848820000010164,2.3083333999993556,2.508503699999892,3.6503960000000006,1.342062600000645,1.0835744000005434,0.38898,0.13892356205107273,0.050517658927662815,,,,None,,-0.1,-0.1,0.45482551483620814,0.4583333333333333,trial_list_0.5_green.csv,0.4583001000000877,0.49171079999996437,p3_base_01,001,2023-05-02_11h29.43.266,expectation_shapes_perceived_time,2022.2.4,120.74174066081534,
,300,0.5,none,,green,red,,1103.0804407197245,,,,,0,4,4,477,trial,,,,,,green,1.1030804407197246,1.1083333333333334,2.308462299999519,0.99776859999929,1e-05,1e-05,0.03307,1.1081642999997712,1.1413996000001134,1.99964749999981,2.03314969999974,2.308462299999519,2.308462299999519,0.0,2.308462299999519,2.5083482999998523,3.066282599999795,0.7578203000002759,0.7578203000002759,1.1766,-0.07786850265580449,-0.12565144746732088,,,,None,,0.3,0.3,1.4364104407197245,1.4416666666666667,trial_list_0.5_green.csv,1.4413549999999304,1.475004899999476,p3_base_01,001,2023-05-02_11h29.43.266,expectation_shapes_perceived_time,2022.2.4,120.74174066081534,
,100,0.5,none,,red,green,,1743.151961477921,,,,,0,5,5,148,trial,,,,,,red,1.7431519614779212,1.75,2.3081443999999465,0.9974560999999085,1e-05,1e-05,0.03318,1.7496629999996003,1.7829644999992524,2.0000821999992695,2.033361399999194,2.3081443999999465,2.766436299999441,0.4582918999994945,2.3081443999999465,2.508275899999717,3.5832263999991483,1.2750819999992018,0.8167900999997073,1.69565,-0.12076705668433614,0.08524733413011963,,,,None,,0.1,0.1,1.876481961477921,1.8916666666666666,trial_list_0.5_green.csv,1.8921227999999246,1.925069199999598,p3_base_01,001,2023-05-02_11h29.43.266,expectation_shapes_perceived_time,2022.2.4,120.74174066081534,
,-233,0.5,none,,red,green,,1826.2479960249484,,,,,0,6,6,214,trial,,,,,,red,1.8262479960249485,1.8416666666666666,2.3083292000001165,0.9977871999999479,1e-05,1e-05,0.03327,1.8413310000005367,1.8745312999999442,1.9996415000005072,2.0328208999999333,2.3083292000001165,2.8495437000001402,0.5412145000000237,2.3083292000001165,2.5079514999997627,3.4663713999998436,1.158042199999727,0.6168276999997033,1.86058,-0.06269788693678864,0.13386846129746763,,,,None,,-0.233,-0.23333333333333334,1.5599179960249485,1.5666666666666667,trial_list_0.5_green.csv,1.5661276000000726,1.5996381000004476,p3_base_01,001,2023-05-02_11h29.43.266,expectation_shapes_perceived_time,2022.2.4,120.74174066081534,
,167,0.5,none,,green,red,,1150.6717406571163,,,,,0,7,7,57,trial,,,,,,green,1.1506717406571163,1.1583333333333332,2.3080737000000227,0.9976695999994263,1e-05,1e-05,0.03319,1.158571199999642,1.1917028999996546,2.000126399999317,2.033201399999598,2.3080737000000227,2.6663336999999956,0.35825999999997293,2.3080737000000227,2.508168399999704,3.1246409999994285,0.8165672999994058,0.45830729999943287,1.46217,-0.1467808796982755,-0.01752607518785379,,,,None,,0.167,0.16666666666666666,1.3510017406571162,1.3583333333333334,trial_list_0.5_green.csv,1.358414599999378,1.3917897999999695,p3_base_01,001,2023-05-02_11h29.43.266,expectation_shapes_perceived_time,2022.2.4,120.74174066081534,
,-233,0.5,none,,green,red,,449.3964330027617,,,,,0,8,8,483,trial,,,,,,green,0.44939643300276166,0.45,2.308488099999522,0.9974696999997832,2e-05,2e-05,,0.4500213999999687,0.4831533999995372,1.9999659999994037,,2.308488099999522,2.308488099999522,0.0,2.308488099999522,2.508396499999435,2.8835425999996005,0.5750545000000784,0.5750545000000784,0.28002,0.11390620651554917,0.09421871403138016,,,,None,,-0.233,-0.23333333333333334,0.1830664330027617,0.18333333333333332,trial_list_0.5_green.csv,0.1833915999995952,0.21670559999984107,p3_base_01,001,2023-05-02_11h29.43.266,expectation_shapes_perceived_time,2022.2.4,120.74174066081534,
,100,0.5,none,,green,red,,1121.0012458754509,,,,,0,9,9,105,trial,,,,,,green,1.1210012458754508,1.125,2.3084439999993265,0.9974402999996528,2e-05,2e-05,0.03349,1.1251320999999734,1.1585924999999406,2.000199299999622,2.033465800000158,2.3084439999993265,2.3084439999993265,0.0,2.3084439999993265,2.508478599999762,3.0918017999993026,0.7833577999999761,0.7833577999999761,1.75239,-0.10373815640026665,0.10530994664875552,,,,None,,0.1,0.1,1.2543312458754508,1.2583333333333333,trial_list_0.5_green.csv,1.2582573999998203,1.2916537999999491,p3_base_01,001,2023-05-02_11h29.43.266,expectation_shapes_perceived_time,2022.2.4,120.74174066081534,
,33,0.5,none,,red,green,,1168.6422965304948,,,,,0,10,10,356,trial,,,,,,red,1.1686422965304948,1.175,2.3079930000003515,0.9972824999995282,2e-05,2e-05,0.03319,1.1749798000000737,1.2083055000002787,2.000256000000263,2.033224699999664,2.3079930000003515,2.8331367000000682,0.5251436999997168,2.3079930000003515,2.508699699999852,4.791442800000368,2.4834498000000167,1.9583061000003,1.33112,-0.12750145858866574,-0.07480085570535057,,,,None,,0.033,0.03333333333333333,1.2349722965304948,1.2416666666666667,trial_list_0.5_green.csv,1.2414482000003773,1.2749403999996503,p3_base_01,001,2023-05-02_11h29.43.266,expectation_shapes_perceived_time,2022.2.4,120.74174066081534,
,167,0.5,none,,red,green,,786.340968844936,,,,,0,11,11,432,trial,,,,,,red,0.786340968844936,0.7916666666666666,2.308325999999397,0.9976693999997224,3e-05,3e-05,0.03327,0.7919130000000223,0.8251444999996238,1.9999160999996093,2.033585399999538,2.308325999999397,2.5584491999998136,0.25012320000041655,2.308325999999397,2.508301599999868,5.583146699999816,3.2748207000004186,3.024697500000002,1.11725,-0.05322763799262631,-0.1379079711627136,,,,None,,0.167,0.16666666666666666,0.9866709688449361,0.9916666666666667,trial_list_0.5_green.csv,0.9919416000002457,1.0248559999999998,p3_base_01,001,2023-05-02_11h29.43.266,expectation_shapes_perceived_time,2022.2.4,120.74174066081534,
,-167,0.5,none,,red,green,,333.5804097032058,,,,,0,12,12,180,trial,,,,,,red,0.3335804097032058,0.3333333333333333,2.308586899999682,0.9973625000002357,2e-05,2e-05,,0.3336546000000453,0.36700029999974504,2.000344099999893,,2.308586899999682,2.308586899999682,0.0,2.308586899999682,2.5083199999999124,3.2500704999993104,0.9414835999996285,0.9414835999996285,0.31627,0.12387581782324833,0.08066332323374309,,,,None,,-0.167,-0.16666666666666666,0.13325040970320584,0.13333333333333333,trial_list_0.5_green.csv,0.1334657999996125,0.16699679999965156,p3_base_01,001,2023-05-02_11h29.43.266,expectation_shapes_perceived_time,2022.2.4,120.74174066081534,
,-233,0.5,none,,green,red,,1839.6703468126016,,,,,0,13,13,207,trial,,,,,,green,1.8396703468126017,1.8499999999999999,2.308506000000307,0.9981324999998833,2e-05,2e-05,,1.8500500000000102,1.8833461000003808,1.9998615000004065,,2.308506000000307,2.308506000000307,0.0,2.308506000000307,2.5081159000001207,3.2914361000002827,0.9829300999999759,0.9829300999999759,1.80532,-0.08487667341839998,0.12102784913364442,,,,None,,-0.233,-0.23333333333333334,1.5733403468126017,1.5833333333333333,trial_list_0.5_green.csv,1.5832854000000225,1.616686899999877,p3_base_01,001,2023-05-02_11h29.43.266,expectation_shapes_perceived_time,2022.2.4,120.74174066081534,
,233,0.5,none,,green,red,,1445.092356811824,,,,,0,14,14,275,trial,,,,,,green,1.445092356811824,1.45,2.3076825000007375,0.9980780999994749,0.00011,0.00011,,1.4495366999999533,1.482661900000494,1.9996506000006775,,2.3076825000007375,2.707870900000671,0.4001883999999336,2.3076825000007375,2.507977100000062,3.5079044000003705,1.200221899999633,0.8000334999996994,1.68332,-0.12397845128475751,0.08050548784724512,,,,None,,0.233,0.23333333333333334,1.7114223568118239,1.7249999999999999,trial_list_0.5_green.csv,1.724358299999949,1.7578660000008313,p3_base_01,001,2023-05-02_11h29.43.266,expectation_shapes_perceived_time,2022.2.4,120.74174066081534,
,100,0.5,none,,green,red,,676.7381874194159,,,,,0,15,15,357,trial,,,,,,green,0.6767381874194159,0.6833333333333333,2.308339100000012,0.9971947000003638,1e-05,1e-05,0.03319,0.6836653000000297,0.7168005000003177,2.0000222999997277,,2.308339100000012,2.6749708999996074,0.3666317999995954,2.308339100000012,2.5085132000003796,4.042205599999761,1.733866499999749,1.3672347000001537,1.34972,-0.13165239582457486,-0.06722675531467652,,,,None,,0.1,0.1,0.810068187419416,0.8166666666666667,trial_list_0.5_green.csv,0.8165866999997888,0.8500360999996701,p3_base_01,001,2023-05-02_11h29.43.266,expectation_shapes_perceived_time,2022.2.4,120.74174066081534,
,300,0.5,none,,red,green,,1367.0944565883892,,,,,0,16,16,76,trial,,,,,,red,1.3670944565883891,1.375,2.3086827999995876,0.9968986999992921,1e-05,1e-05,,1.3751511000000392,1.4085080000004382,2.000216000000364,,2.3086827999995876,2.8750817999998617,0.5663990000002741,2.3086827999995876,2.5084342999998626,3.641821700000037,1.3331389000004492,0.7667399000001751,1.52498,-0.14736839534128438,0.011590772667292028,,,,None,,0.3,0.3,1.7004244565883893,1.7083333333333333,trial_list_0.5_green.csv,1.7087195000003703,1.7417801999999938,p3_base_01,001,2023-05-02_11h29.43.266,expectation_shapes_perceived_time,2022.2.4,120.74174066081534,
,-100,0.5,none,,green,red,,285.6056937015572,,,,,0,17,17,137,trial,,,,,,green,0.2856056937015572,0.2833333333333333,2.308289099999456,0.9968843000006018,1e-05,1e-05,0.0333,0.28350009999940085,0.3165189000001192,1.9998789999999644,2.0329778999994232,2.308289099999456,2.308289099999456,0.0,2.308289099999456,2.508216899999752,3.4829996999997093,1.1747106000002532,1.1747106000002532,0.15319,0.06842788184265483,0.1310321141667858,,,,None,,-0.1,-0.1,0.1522756937015572,0.15,trial_list_0.5_green.csv,0.14961380000022473,0.18306639999991603,p3_base_01,001,2023-05-02_11h29.43.266,expectation_shapes_perceived_time,2022.2.4,120.74174066081534,
,-100,0.5,none,,green,red,,1294.7406155852009,,,,,0,18,18,439,trial,,,,,,green,1.2947406155852008,1.3,2.3086232999994536,0.9986220999999205,3e-05,3e-05,0.0337,1.3001986999997825,1.3336039999994682,2.000284400000055,2.03328429999965,2.3086232999994536,2.55036199999995,0.24173870000049646,2.3086232999994536,2.5086135000001377,3.5165870000000723,1.2079637000006187,0.9662250000001222,1.0126,-0.005849810575781081,-0.14770771703847232,,,,None,,-0.1,-0.1,1.1614106155852009,1.1666666666666667,trial_list_0.5_green.csv,1.1665391999995336,1.2000514000001203,p3_base_01,001,2023-05-02_11h29.43.266,expectation_shapes_perceived_time,2022.2.4,120.74174066081534,
,167,0.5,none,,red,green,,611.03004324423,,,,,0,19,19,98,trial,,,,,,red,0.61103004324423,0.6166666666666667,2.3084007999996174,0.9979507999996713,1e-05,1e-05,0.03353,0.6164515000000392,0.6501867999995739,2.0000058999994508,2.0334321000000273,2.3084007999996174,2.3749078999999256,0.06650710000030813,2.3084007999996174,2.5082093999999415,3.149797899999612,0.8413970999999947,0.7748899999996866,0.57798,0.1434098690721271,-0.035852467268031776,,,,None,,0.167,0.16666666666666666,0.8113600432442301,0.8166666666666667,trial_list_0.5_green.csv,0.8164294999996855,0.8501730999996653,p3_base_01,001,2023-05-02_11h29.43.266,expectation_shapes_perceived_time,2022.2.4,120.74174066081534,
,100,0.5,none,,red,green,,1273.4507679821947,,,,,0,20,20,66,trial,,,,,,red,1.2734507679821947,1.2833333333333332,2.3080755999999383,0.9971082999991268,2e-05,2e-05,0.03311,1.283294300000307,1.3167158000005657,2.000016500000129,2.0337452000003395,2.3080755999999383,2.3080755999999383,0.0,2.3080755999999383,2.5080693999998402,3.008068199999798,0.6999925999998595,0.6999925999998595,1.24774,-0.10378306961813329,-0.10526568489839234,,,,None,,0.1,0.1,1.4067807679821946,1.4166666666666667,trial_list_0.5_green.csv,1.416724400000021,1.4497788999997283,p3_base_01,001,2023-05-02_11h29.43.266,expectation_shapes_perceived_time,2022.2.4,120.74174066081534,
,-100,0.5,none,,green,red,,1748.4750143799515,,,,,0,21,21,393,trial,,,,,,green,1.7484750143799515,1.7583333333333333,2.308487699999205,0.9987669000001915,1e-05,1e-05,,1.7582250999994358,1.792015099999844,1.9999716999991506,,2.308487699999205,2.308487699999205,0.0,2.308487699999205,2.5082038999998986,2.991542499999923,0.6830548000007184,0.6830548000007184,1.56585,-0.144671585749549,0.030363172317806573,,,,None,,-0.1,-0.1,1.6151450143799515,1.625,trial_list_0.5_green.csv,1.6249801999992997,1.6583564999991722,p3_base_01,001,2023-05-02_11h29.43.266,expectation_shapes_perceived_time,2022.2.4,120.74174066081534,
,300,0.5,none,,green,red,,569.6106063967949,,,,,0,22,22,427,trial,,,,,,green,0.5696106063967948,0.575,2.3080496000002313,0.9977349000000686,2e-05,2e-05,0.03328,0.5747239000002082,0.6081724000005124,1.9996569000004456,2.0331027000001995,2.3080496000002313,2.3080496000002313,0.0,2.3080496000002313,2.5082885000001625,3.4330390000004627,1.1249894000002314,1.1249894000002314,0.25697,0.10679031785274984,0.10221358994477485,,,,None,,0.3,0.3,0.902940606396795,0.9083333333333333,trial_list_0.5_green.csv,0.9082686000001559,0.9414179000004879,p3_base_01,001,2023-05-02_11h29.43.266,expectation_shapes_perceived_time,2022.2.4,120.74174066081534,
,167,0.5,none,,red,green,,1584.5142549540703,,,,,0,23,23,338,trial,,,,,,red,1.5845142549540703,1.5916666666666666,2.3086144999997487,0.9983628999998473,2e-05,2e-05,0.03331,1.5920107000001735,1.625076999999692,2.000230999999985,2.0336092999996254,2.3086144999997487,2.3086144999997487,0.0,2.3086144999997487,2.508495799999764,3.233507799999643,0.9248932999998942,0.9248932999998942,1.63718,-0.13430796688374447,0.06175078937183655,,,,None,,0.167,0.16666666666666666,1.7848442549540702,1.8,trial_list_0.5_green.csv,1.8002998000001753,1.8336865999999645,p3_base_01,001,2023-05-02_11h29.43.266,expectation_shapes_perceived_time,2022.2.4,120.74174066081534,
,167,0.5,none,,red,green,,1184.4731180208591,,,,,0,24,24,336,trial,,,,,,red,1.1844731180208592,1.1916666666666667,2.308515300000181,0.9973785000001953,1e-05,1e-05,,1.1918758000001617,1.224998599999708,2.000278900000012,,2.308515300000181,2.5167499999997744,0.20823469999959343,2.308515300000181,2.5086050999998406,3.183661000000029,0.8751456999998481,0.6669110000002547,1.0,0.0,-0.14782350948509485,,,,None,,0.167,0.16666666666666666,1.384803118020859,1.3916666666666666,trial_list_0.5_green.csv,1.3919341000000713,1.425159700000222,p3_base_01,001,2023-05-02_11h29.43.266,expectation_shapes_perceived_time,2022.2.4,120.74174066081534,
,300,0.5,none,,red,green,,945.3283293127234,0,0,0,0,0,25,25,96,fam,0.5405904999997801,0.5405904999997801,269.99999999999955,2.5490520000003016,2.5490520000003016,,,,,,,,,,,,,,,,,,,,,,,,,,,,,,,,,,,,p3_base_01,001,2023-05-02_11h29.43.266,expectation_shapes_perceived_time,2022.2.4,120.74174066081534,
,300,0.5,none,,red,green,,945.3283293127234,1,0,1,0,0,25,25,96,fam,0.4987348999993628,0.4987348999993628,269.99999999999955,2.5071155999994517,2.5071155999994517,,,,,,,,,,,,,,,,,,,,,,,,,,,,,,,,,,,,p3_base_01,001,2023-05-02_11h29.43.266,expectation_shapes_perceived_time,2022.2.4,120.74174066081534,
,300,0.5,none,,red,green,,945.3283293127234,2,0,2,0,0,25,25,96,fam,0.49882419999994454,0.49882419999994454,269.99999999999955,2.507064100000207,2.507064100000207,,,,,,,,,,,,,,,,,,,,,,,,,,,,,,,,,,,,p3_base_01,001,2023-05-02_11h29.43.266,expectation_shapes_perceived_time,2022.2.4,120.74174066081534,
,300,0.5,none,,red,green,,945.3283293127234,3,0,3,0,0,25,25,96,fam,0.4986854000007952,0.4986854000007952,269.99999999999955,2.5070571000005657,2.5070571000005657,,,,,,,,,,,,,,,,,,,,,,,,,,,,,,,,,,,,p3_base_01,001,2023-05-02_11h29.43.266,expectation_shapes_perceived_time,2022.2.4,120.74174066081534,
,300,0.5,none,,red,green,,945.3283293127234,,,,,0,25,25,96,trial,,,,,,red,0.9453283293127235,0.95,2.308214399999997,0.9987672999995993,2e-05,2e-05,0.03324,0.9501741999993101,0.9834860999999364,2.000213700000131,2.0333457999995517,2.308214399999997,2.308214399999997,0.0,2.308214399999997,2.508659699999953,3.4331797999993796,1.1249653999993825,1.1249653999993825,0.78314,0.09309953577441041,-0.11482276078843952,,,,None,,0.3,0.3,1.2786583293127232,1.2833333333333332,trial_list_0.5_green.csv,1.2834526999995433,1.3165861999996196,p3_base_01,001,2023-05-02_11h29.43.266,expectation_shapes_perceived_time,2022.2.4,120.74174066081534,
,167,0.5,none,,green,red,,1137.2244583394245,,,,,0,26,26,297,trial,,,,,,green,1.1372244583394244,1.1416666666666666,2.308134400000199,0.9911345999998957,1e-05,1e-05,0.03331,1.1412407999996503,1.174997600000097,1.9997537999997803,2.0328982999999425,2.308134400000199,2.308134400000199,0.0,2.308134400000199,2.5080528999997114,3.1664012000001094,0.8582667999999103,0.8582667999999103,1.74478,-0.1062262905194431,0.10279963598655784,,,,None,,0.167,0.16666666666666666,1.3375544583394243,1.3416666666666666,trial_list_0.5_green.csv,1.341306799999984,1.3747419999999693,p3_base_01,001,2023-05-02_11h29.43.266,expectation_shapes_perceived_time,2022.2.4,120.74174066081534,
,-167,0.5,none,,red,green,,380.8984141088136,,,,,0,27,27,242,trial,,,,,,red,0.3808984141088136,0.3833333333333333,2.308425100000022,0.9971540999995341,1e-05,1e-05,,0.3832737000002453,0.41701090000060503,2.000002300000233,,2.308425100000022,2.308425100000022,0.0,2.308425100000022,2.5085017999999764,2.891663200000039,0.5832381000000169,0.5832381000000169,0.25697,0.10679031785274984,0.10221358994477485,,,,None,,-0.167,-0.16666666666666666,0.1805684141088136,0.18333333333333332,trial_list_0.5_green.csv,0.18339869999999792,0.216539200000625,p3_base_01,001,2023-05-02_11h29.43.266,expectation_shapes_perceived_time,2022.2.4,120.74174066081534,
,233,0.5,none,,red,green,,596.6224513964684,,,,,0,28,28,124,trial,,,,,,red,0.5966224513964684,0.6,2.3082868999999846,0.9971556000000419,1e-05,1e-05,,0.6002330999999685,0.6333730999995169,2.0002858999996533,,2.3082868999999846,2.3082868999999846,0.0,2.3082868999999846,2.5088297999991482,3.058285299999625,0.7499983999996402,0.7499983999996402,0.73166,0.11037387841754029,-0.09833309168108137,,,,None,,0.233,0.23333333333333334,0.8629524513964684,0.8666666666666667,trial_list_0.5_green.csv,0.8669703999994454,0.9003547999991497,p3_base_01,001,2023-05-02_11h29.43.266,expectation_shapes_perceived_time,2022.2.4,120.74174066081534,
,-233,0.5,none,,red,green,,654.0015619455876,,,,,0,29,29,426,trial,,,,,,red,0.6540015619455876,0.6583333333333333,2.3083599000001414,0.9983812000000398,2e-05,2e-05,,0.658121299999948,0.6917348000006314,1.9999624000001859,,2.3083599000001414,2.716792400000486,0.4084325000003446,2.3083599000001414,2.50811320000048,3.824952700000722,1.5165928000005806,1.108160300000236,0.94275,0.02644347327050056,-0.14543910298775306,,,,None,,-0.233,-0.23333333333333334,0.3876715619455876,0.39166666666666666,trial_list_0.5_green.csv,0.39166840000052616,0.4248020000004544,p3_base_01,001,2023-05-02_11h29.43.266,expectation_shapes_perceived_time,2022.2.4,120.74174066081534,
,-300,0.5,none,,red,green,,1710.1800092906465,,,,,0,30,30,228,trial,,,,,,red,1.7101800092906465,1.7166666666666666,2.3084492999996655,0.9973250000002736,4e-05,4e-05,0.03345,1.716691699999501,1.750139499999932,2.0002511000002414,2.033696399999826,2.3084492999996655,2.3251884999999675,0.016739200000301935,2.3084492999996655,2.5086989000001267,3.308410499999809,0.9999612000001434,0.9832219999998415,1.78085,-0.0939218200967672,0.11415113519453243,,,,None,,-0.3,-0.3,1.3768500092906466,1.3833333333333333,trial_list_0.5_green.csv,1.3834674999998242,1.4170844000000216,p3_base_01,001,2023-05-02_11h29.43.266,expectation_shapes_perceived_time,2022.2.4,120.74174066081534,
,-167,0.5,none,,red,green,,918.2598040489806,,,,,0,31,31,332,trial,,,,,,red,0.9182598040489807,0.9249999999999999,2.30796459999965,0.9979507999996713,0.0001,0.0001,0.03371,0.9245794999997088,0.9581834000000526,1.9996667999994315,2.0329724999992322,2.30796459999965,2.3245631999998295,0.01659860000017943,2.30796459999965,2.508142499999849,2.9744886999997107,0.6665241000000606,0.6499254999998811,1.11102,-0.050517658927662815,-0.13892356205107273,,,,None,,-0.167,-0.16666666666666666,0.7179298040489805,0.725,trial_list_0.5_green.csv,0.7247390999991694,0.7581377999995311,p3_base_01,001,2023-05-02_11h29.43.266,expectation_shapes_perceived_time,2022.2.4,120.74174066081534,
,100,0.5,none,,red,green,,924.9346314596972,,,,,0,32,32,446,trial,,,,,,red,0.9249346314596972,0.9333333333333333,2.308256899999833,0.99759880000056,1e-05,1e-05,0.03322,0.9332540000004883,0.966773799999828,2.000005699999747,2.033593799999835,2.308256899999833,2.308256899999833,0.0,2.308256899999833,2.508503000000019,2.950351600000431,0.6420947000005981,0.6420947000005981,0.33475,0.12834674835520357,0.07334099906011632,,,,None,,0.1,0.1,1.0582646314596973,1.0666666666666667,trial_list_0.5_green.csv,1.0667175999997198,1.100248100000499,p3_base_01,001,2023-05-02_11h29.43.266,expectation_shapes_perceived_time,2022.2.4,120.74174066081534,
,-300,0.5,none,,red,green,,1401.9894521292083,,,,,0,33,33,478,trial,,,,,,red,1.4019894521292082,1.4083333333333332,2.308342299999822,0.9973300999999992,2e-05,2e-05,0.03319,1.4082182000001922,1.4418636999998853,2.000140199999805,2.0334233000003223,2.308342299999822,2.308342299999822,0.0,2.308342299999822,2.5084787000005235,3.550532100000055,1.242189800000233,1.242189800000233,1.53071,-0.1471361321697812,0.01423898053255947,,,,None,,-0.3,-0.3,1.0686594521292083,1.075,trial_list_0.5_green.csv,1.0749694000005547,1.108211100000517,p3_base_01,001,2023-05-02_11h29.43.266,expectation_shapes_perceived_time,2022.2.4,120.74174066081534,
,-233,0.5,none,,green,red,,411.2555411026537,,,,,0,34,34,263,trial,,,,,,green,0.4112555411026537,0.4166666666666667,2.3078937999998743,0.998535499999889,1e-05,1e-05,0.03331,0.4163398999999117,0.4498457999998209,1.999752300000182,2.03310060000058,2.3078937999998743,2.3078937999998743,0.0,2.3078937999998743,2.514805400000114,3.2912310000001526,0.9833372000002782,0.9833372000002782,0.23682,0.1001116447393128,0.10876326835875957,,,,None,,-0.233,-0.23333333333333334,0.1449255411026537,0.14166666666666666,trial_list_0.5_green.csv,0.14134930000000168,0.174932699999772,p3_base_01,001,2023-05-02_11h29.43.266,expectation_shapes_perceived_time,2022.2.4,120.74174066081534,
,33,0.5,none,,red,green,,1740.7005527438507,,,,,0,35,35,158,trial,,,,,,red,1.7407005527438508,1.75,2.308526400000119,0.9985621000005267,1e-05,1e-05,,1.7500362999999197,1.7837263999999777,2.0001173000000563,,2.308526400000119,2.308526400000119,0.0,2.308526400000119,2.5083880000001955,3.166678200000206,0.858151800000087,0.858151800000087,1.80257,-0.08592066964233423,0.12028893749926792,,,,None,,0.033,0.03333333333333333,1.8070305527438506,1.8166666666666667,trial_list_0.5_green.csv,1.8169462000005296,1.8499990000000253,p3_base_01,001,2023-05-02_11h29.43.266,expectation_shapes_perceived_time,2022.2.4,120.74174066081534,
,-100,0.5,none,,red,green,,869.9310040203023,,,,,0,36,36,100,trial,,,,,,red,0.8699310040203023,0.875,2.3084550999992643,0.9983668999993824,2e-05,2e-05,0.03334,0.8750148999997691,0.908309299999928,2.000023799999326,2.0335175999998683,2.3084550999992643,2.3084550999992643,0.0,2.3084550999992643,2.5087555999998585,3.016842899999574,0.7083878000003097,0.7083878000003097,0.83169,0.07457313191750609,-0.1276347834741931,,,,None,,-0.1,-0.1,0.7366010040203023,0.7416666666666667,trial_list_0.5_green.csv,0.7416656999994302,0.7751306999998633,p3_base_01,001,2023-05-02_11h29.43.266,expectation_shapes_perceived_time,2022.2.4,120.74174066081534,
,167,0.5,none,,red,green,,1113.010936644103,,,,,0,37,37,184,trial,,,,,,red,1.113010936644103,1.1166666666666667,2.3085423000002265,0.9974234000001161,2e-05,2e-05,0.03341,1.1166223000000173,1.1500812000003862,1.999952199999825,2.0337687999999616,2.3085423000002265,2.3085423000002265,0.0,2.3085423000002265,2.508571100000154,2.9000630999998975,0.591520799999671,0.591520799999671,1.08213,-0.03771779835524566,-0.14293060429356252,,,,None,,0.167,0.16666666666666666,1.313340936644103,1.325,trial_list_0.5_green.csv,1.3251905000006445,1.3585559000002831,p3_base_01,001,2023-05-02_11h29.43.266,expectation_shapes_perceived_time,2022.2.4,120.74174066081534,
,33,0.5,none,,green,red,,1186.990085278709,,,,,0,38,38,109,trial,,,,,,green,1.1869900852787092,1.1916666666666667,2.3083629000002475,0.9982447000002139,2e-05,2e-05,0.03335,1.1921060000004218,1.22501690000081,2.00011110000014,2.03334520000044,2.3083629000002475,2.383198500000617,0.0748356000003696,2.3083629000002475,2.5082570000004125,3.1416950000002544,0.8333321000000069,0.7584964999996373,1.3407,-0.1296960809695705,-0.07092754428023387,,,,None,,0.033,0.03333333333333333,1.253320085278709,1.2583333333333333,trial_list_0.5_green.csv,1.2586761000002298,1.2917571000007229,p3_base_01,001,2023-05-02_11h29.43.266,expectation_shapes_perceived_time,2022.2.4,120.74174066081534,
,-33,0.5,none,,red,green,,576.8734801255061,,,,,0,39,39,60,trial,,,,,,red,0.5768734801255061,0.5833333333333334,2.3085627000000386,0.9972625000000335,1e-05,1e-05,0.03322,0.5834125999999742,0.6170786000002408,2.001379299999826,2.0340501999999105,2.3085627000000386,2.3085627000000386,0.0,2.3085627000000386,2.5085651999997935,3.1583560999997644,0.8497933999997258,0.8497933999997258,0.68603,0.12328762076012252,-0.08155950296438874,,,,None,,-0.033,-0.03333333333333333,0.5105434801255062,0.5166666666666666,trial_list_0.5_green.csv,0.5167325000002165,0.5501655999996728,p3_base_01,001,2023-05-02_11h29.43.266,expectation_shapes_perceived_time,2022.2.4,120.74174066081534,
,-300,0.5,none,,green,red,,893.671182068906,,,,,0,40,40,319,trial,,,,,,green,0.893671182068906,0.9,2.3085026999997353,0.9975924999998824,2e-05,2e-05,0.03336,0.8999370000001363,0.9331770999997389,1.9999275000000125,2.033252299999731,2.3085026999997353,2.5249860000003537,0.21648330000061833,2.3085026999997353,2.508063299999776,3.3751406000001225,1.0666379000003872,0.8501545999997688,0.51038,0.14774497973983874,-0.004817771078473002,,,,None,,-0.3,-0.3,0.5603411820689059,0.5666666666666667,trial_list_0.5_green.csv,0.5667751000000862,0.5998810999999478,p3_base_01,001,2023-05-02_11h29.43.266,expectation_shapes_perceived_time,2022.2.4,120.74174066081534,
,-167,0.5,none,,red,green,,816.4080945386564,,,,,0,41,41,108,trial,,,,,,red,0.8164080945386565,0.825,2.3082704999997077,0.997707000000446,1e-05,1e-05,0.03336,0.8250351999995473,0.8586255999998684,1.9999496000000363,2.0333339999997406,2.3082704999997077,2.5834879999993063,0.27521749999959866,2.3082704999997077,2.508466100000078,3.3581397999996625,1.0498692999999548,0.7746518000003562,0.86079,0.06260760401721663,-0.13391070859238002,,,,None,,-0.167,-0.16666666666666666,0.6160780945386564,0.6166666666666667,trial_list_0.5_green.csv,0.6169749999999112,0.650087999999414,p3_base_01,001,2023-05-02_11h29.43.266,expectation_shapes_perceived_time,2022.2.4,120.74174066081534,
,-233,0.5,none,,red,green,,1311.0962474371745,,,,,0,42,42,92,trial,,,,,,red,1.3110962474371746,1.3166666666666667,2.3083380999996734,0.9979862000000139,2e-05,2e-05,0.03339,1.3167933000004268,1.3498960999995688,2.000367499999811,2.03354440000021,2.3083380999996734,2.5249314000002414,0.21659330000056798,2.3083380999996734,2.5085127000002103,3.608777800000098,1.3004397000004246,1.0838463999998567,1.40412,-0.14116754734955383,-0.0438578787882109,,,,None,,-0.233,-0.23333333333333334,1.0447662474371746,1.05,trial_list_0.5_green.csv,1.0500880999998117,1.083502899999985,p3_base_01,001,2023-05-02_11h29.43.266,expectation_shapes_perceived_time,2022.2.4,120.74174066081534,
,-167,0.5,none,,red,green,,1127.8781161341244,,,,,0,43,43,54,trial,,,,,,red,1.1278781161341245,1.1333333333333333,2.308712799999739,0.9971629000001485,3e-05,3e-05,0.03349,1.1336716999994678,1.1670164999995905,2.000051999999414,2.0337091000001237,2.308712799999739,2.308712799999739,0.0,2.308712799999739,2.50867449999987,2.950489199999538,0.6417763999997987,0.6417763999997987,1.01767,-0.008199772971808413,-0.14759591349255144,,,,None,,-0.167,-0.16666666666666666,0.9275481161341244,0.9333333333333333,trial_list_0.5_green.csv,0.9333443999994415,0.9670738999993773,p3_base_01,001,2023-05-02_11h29.43.266,expectation_shapes_perceived_time,2022.2.4,120.74174066081534,
,-33,0.5,none,,green,red,,662.3661195061752,,,,,0,44,44,173,trial,,,,,,green,0.6623661195061752,0.6666666666666666,2.3087258999994447,0.9971613999996407,1e-05,1e-05,0.03363,0.6668437999996968,0.7007026999999653,1.9999851999991733,2.0336233999996693,2.3087258999994447,2.3087258999994447,0.0,2.3087258999994447,2.5084374999996726,2.916950199999519,0.6082243000000744,0.6082243000000744,0.27603,0.11271677640525131,0.0956384769499102,,,,None,,-0.033,-0.03333333333333333,0.5960361195061752,0.6,trial_list_0.5_green.csv,0.6010154999994484,0.6339298999992025,p3_base_01,001,2023-05-02_11h29.43.266,expectation_shapes_perceived_time,2022.2.4,120.74174066081534,
,167,0.5,none,,green,red,,1645.8273199172938,,,,,0,45,45,241,trial,,,,,,green,1.645827319917294,1.6583333333333332,2.3081573999998,0.9974502999994002,1e-05,1e-05,,1.659056800000144,1.692064500000015,2.000502200000483,,2.3081573999998,2.3081573999998,0.0,2.3081573999998,2.508409500000198,2.875270100000307,0.5671127000005072,0.5671127000005072,1.69788,-0.12016763226083112,0.0860902440077596,,,,None,,0.167,0.16666666666666666,1.8461573199172938,1.8583333333333334,trial_list_0.5_green.csv,1.8583297000004677,1.8921109000002616,p3_base_01,001,2023-05-02_11h29.43.266,expectation_shapes_perceived_time,2022.2.4,120.74174066081534,
,233,0.5,none,,red,green,,1516.5922561357152,,,,,0,46,46,210,trial,,,,,,red,1.5165922561357152,1.525,2.308006700000078,0.9973439000004873,1e-05,1e-05,0.03338,1.525092500000028,1.558096700000533,1.9996681000002354,2.033208800000466,2.308006700000078,2.508159500000147,0.20015280000006896,2.308006700000078,2.508159500000147,3.400011700000505,1.0920050000004267,0.8918522000003577,1.79739,-0.08786497265597755,0.11887613947573435,,,,None,,0.233,0.23333333333333334,1.782922256135715,1.7916666666666667,trial_list_0.5_green.csv,1.7915412000002107,1.8249323999998524,p3_base_01,001,2023-05-02_11h29.43.266,expectation_shapes_perceived_time,2022.2.4,120.74174066081534,
,100,0.5,none,,red,green,,340.1620627989024,,,,,0,47,47,394,trial,,,,,,red,0.34016206279890243,0.3416666666666667,2.3080227000000377,0.9974154000001363,2e-05,2e-05,0.03329,0.34161459999995714,0.37468600000011065,1.9996521000002758,2.0329702999997608,2.3080227000000377,2.3080227000000377,0.0,2.3080227000000377,2.5080465000000913,3.041352000000188,0.7333293000001504,0.7333293000001504,0.18806,0.08234290091095921,0.12276577953997554,,,,None,,0.1,0.1,0.4734920627989024,0.475,trial_list_0.5_green.csv,0.47484439999971073,0.5079821999997876,p3_base_01,001,2023-05-02_11h29.43.266,expectation_shapes_perceived_time,2022.2.4,120.74174066081534,
,-167,0.5,none,,green,red,,1689.9147783477792,,,,,0,48,48,101,trial,,,,,,green,1.6899147783477793,1.7,2.308214499999849,0.9986264999997729,2e-05,2e-05,0.03317,1.7003088000001298,1.7330753999995068,1.999738100000286,2.033493699999781,2.308214499999849,2.408682100000078,0.10046760000022914,2.308214499999849,2.5081634999996822,3.891503400000147,1.5832889000002979,1.4828213000000687,1.93644,-0.02932219853768011,0.1448861574803017,,,,None,,-0.167,-0.16666666666666666,1.4895847783477794,1.5,trial_list_0.5_green.csv,1.500250899999628,1.5333341999994445,p3_base_01,001,2023-05-02_11h29.43.266,expectation_shapes_perceived_time,2022.2.4,120.74174066081534,
,167,0.5,none,,green,red,,688.9941127108316,,,,,0,49,49,189,trial,,,,,,green,0.6889941127108316,0.6916666666666667,2.3080731000000014,0.9992032000000108,9e-05,9e-05,,0.6912161999998716,0.7243748999999298,1.9995982999998887,,2.3080731000000014,2.3080731000000014,0.0,2.3080731000000014,2.5077658000000156,3.416055800000322,1.1079827000003206,1.1079827000003206,0.87017,0.05863465218865795,-0.1356973379223227,,,,None,,0.167,0.16666666666666666,0.8893241127108317,0.8916666666666666,trial_list_0.5_green.csv,0.891187500000342,0.9243618000000424,p3_base_01,001,2023-05-02_11h29.43.266,expectation_shapes_perceived_time,2022.2.4,120.74174066081534,
,-233,0.5,none,,green,red,,1817.4736959631848,0,0,0,0,0,50,50,125,fam,0.5410254999997051,0.5410254999997051,269.99999999999955,2.5492511000002196,2.5492511000002196,,,,,,,,,,,,,,,,,,,,,,,,,,,,,,,,,,,,p3_base_01,001,2023-05-02_11h29.43.266,expectation_shapes_perceived_time,2022.2.4,120.74174066081534,
,-233,0.5,none,,green,red,,1817.4736959631848,1,0,1,0,0,50,50,125,fam,0.4983213999994405,0.4983213999994405,269.99999999999955,2.50690829999985,2.50690829999985,,,,,,,,,,,,,,,,,,,,,,,,,,,,,,,,,,,,p3_base_01,001,2023-05-02_11h29.43.266,expectation_shapes_perceived_time,2022.2.4,120.74174066081534,
,-233,0.5,none,,green,red,,1817.4736959631848,2,0,2,0,0,50,50,125,fam,0.4983388000000559,0.4983388000000559,269.99999999999955,2.506978700000218,2.506978700000218,,,,,,,,,,,,,,,,,,,,,,,,,,,,,,,,,,,,p3_base_01,001,2023-05-02_11h29.43.266,expectation_shapes_perceived_time,2022.2.4,120.74174066081534,
,-233,0.5,none,,green,red,,1817.4736959631848,3,0,3,0,0,50,50,125,fam,0.49923760000001494,0.49923760000001494,269.99999999999955,2.5070974999998725,2.5070974999998725,,,,,,,,,,,,,,,,,,,,,,,,,,,,,,,,,,,,p3_base_01,001,2023-05-02_11h29.43.266,expectation_shapes_perceived_time,2022.2.4,120.74174066081534,
,-233,0.5,none,,green,red,,1817.4736959631848,,,,,0,50,50,125,trial,,,,,,green,1.8174736959631848,1.825,2.30845330000011,0.9907604999998512,1e-05,1e-05,0.03309,1.82478059999994,1.858105400000568,2.000337700000273,2.033456500000284,2.30845330000011,2.8498757000006663,0.5414224000005561,2.30845330000011,2.5083699000006163,4.075144000000364,1.7666907000002539,1.2252682999996978,1.15075,-0.06742094135620774,-0.13155305630479558,,,,None,,-0.233,-0.23333333333333334,1.5511436959631848,1.5583333333333333,trial_list_0.5_green.csv,1.5585842999998931,1.591471200000342,p3_base_01,001,2023-05-02_11h29.43.266,expectation_shapes_perceived_time,2022.2.4,120.74174066081534,
,-33,0.5,none,,green,red,,930.565380960434,,,,,0,51,51,435,trial,,,,,,green,0.9305653809604341,0.9333333333333333,2.308348099999421,0.9966585000001942,1e-05,1e-05,0.03351,0.9335732999998072,0.9669094000000769,2.000557399999707,2.033564000000297,2.308348099999421,2.308348099999421,0.0,2.308348099999421,2.5082127999994555,5.058542900000248,2.750194800000827,2.750194800000827,0.83475,0.07334099906011632,-0.12834674835520357,,,,None,,-0.033,-0.03333333333333333,0.864235380960434,0.8666666666666667,trial_list_0.5_green.csv,0.8666284999999334,0.8999404999995022,p3_base_01,001,2023-05-02_11h29.43.266,expectation_shapes_perceived_time,2022.2.4,120.74174066081534,
,-300,0.5,none,,red,green,,1535.19892588671,,,,,0,52,52,424,trial,,,,,,red,1.53519892588671,1.5416666666666667,2.308708200000183,0.9952562000007674,1e-05,1e-05,0.03351,1.5418800999996165,1.575337700000091,2.000198300000193,2.0336772999999084,2.308708200000183,2.391596700000264,0.08288850000008097,2.308708200000183,2.5086551000003965,7.025117399999544,4.716409199999362,4.633520699999281,1.3321,-0.12773178351191952,-0.07440686418170067,,,,None,,-0.3,-0.3,1.2018689258867101,1.2083333333333333,trial_list_0.5_green.csv,1.2083140000004278,1.2417079999995622,p3_base_01,001,2023-05-02_11h29.43.266,expectation_shapes_perceived_time,2022.2.4,120.74174066081534,
,-167,0.5,none,,green,red,,1442.649894744843,,,,,0,53,53,87,trial,,,,,,green,1.4426498947448432,1.45,2.3087095000000772,0.9975204000002122,1e-05,1e-05,,1.450028199999906,1.4835917999998856,2.0004057999994984,,2.3087095000000772,2.917404499999975,0.6086949999998978,2.3087095000000772,2.5084523999994417,4.066878099999485,1.7581685999994079,1.14947359999951,1.2925,-0.11751248305993249,-0.0896805791773169,,,,None,,-0.167,-0.16666666666666666,1.2423198947448433,1.25,trial_list_0.5_green.csv,1.2501597000000402,1.2832588999999643,p3_base_01,001,2023-05-02_11h29.43.266,expectation_shapes_perceived_time,2022.2.4,120.74174066081534,
,300,0.5,none,,red,green,,509.6472819001077,,,,,0,54,54,354,trial,,,,,,red,0.5096472819001077,0.5166666666666666,2.307988800000203,0.9975293999996211,1e-05,1e-05,0.03344,0.5166845000003377,0.5500875000007,1.9997266000000309,2.033101300000453,2.307988800000203,2.307988800000203,0.0,2.307988800000203,2.5079785000007178,2.949944400000277,0.6419556000000739,0.6419556000000739,0.81982,0.07927870630997015,-0.12476648861896941,,,,None,,0.3,0.3,0.8429772819001078,0.85,trial_list_0.5_green.csv,0.8498121000002357,0.8833549999999377,p3_base_01,001,2023-05-02_11h29.43.266,expectation_shapes_perceived_time,2022.2.4,120.74174066081534,
,100,0.5,none,,green,red,,1008.9663816579092,,,,,0,55,55,321,trial,,,,,,green,1.0089663816579093,1.0166666666666666,2.310892800000147,0.9963255000002391,2e-05,2e-05,0.03339,1.0168813999998747,1.0500052999996115,2.0007705999996688,2.0334850999997798,2.310892800000147,2.4416181999995388,0.1307253999993918,2.310892800000147,2.5083904000002804,3.5499988000001395,1.2391059999999925,1.1083806000006007,0.94796,0.024058168491602777,-0.14585264648034185,,,,None,,0.1,0.1,1.142296381657909,1.15,trial_list_0.5_green.csv,1.1500323999998727,1.183333500000117,p3_base_01,001,2023-05-02_11h29.43.266,expectation_shapes_perceived_time,2022.2.4,120.74174066081534,
,-233,0.5,none,,red,green,,1728.808160984874,,,,,0,56,56,462,trial,,,,,,red,1.728808160984874,1.7416666666666667,2.3084868999994796,0.9984170999996422,2e-05,2e-05,0.0334,1.741610000000037,1.7752166000000216,1.999960199999805,2.0334437999999864,2.3084868999994796,2.583299199999601,0.27481230000012147,2.3084868999994796,2.5082188999995196,3.8166420999996262,1.5081552000001466,1.233342900000025,1.1991,-0.08654926843964496,-0.11983744860873917,,,,None,,-0.233,-0.23333333333333334,1.462478160984874,1.475,trial_list_0.5_green.csv,1.4749980999995387,1.508316399999785,p3_base_01,001,2023-05-02_11h29.43.266,expectation_shapes_perceived_time,2022.2.4,120.74174066081534,
,233,0.5,none,,red,green,,400.8757338674368,,,,,0,57,57,388,trial,,,,,,red,0.4008757338674368,0.4,2.308936200000062,0.9975573000001532,2e-05,2e-05,0.03331,0.4000062999994043,0.43341749999945023,1.9999791000000187,2.0338510000001406,2.308936200000062,2.733278199999404,0.4243419999993421,2.308936200000062,2.5084154999995008,3.499892899999395,1.190956699999333,0.766614699999991,1.43114,-0.14437766803593982,-0.03173135561229447,,,,None,,0.233,0.23333333333333334,0.6672057338674369,0.675,trial_list_0.5_green.csv,0.675037699999848,0.7083128999993278,p3_base_01,001,2023-05-02_11h29.43.266,expectation_shapes_perceived_time,2022.2.4,120.74174066081534,
,-100,0.5,none,,red,green,,277.7798776826188,,,,,0,58,58,250,trial,,,,,,red,0.2777798776826188,0.2833333333333333,2.308355699999993,0.9978817000001072,5e-05,5e-05,0.0333,0.2833089000005202,0.3164745000003677,1.999951300000248,2.033639100000073,2.308355699999993,2.308355699999993,0.0,2.308355699999993,2.5084224000001996,3.216614599999957,0.9082588999999643,0.9082588999999643,0.36721,0.13514608490757488,0.059894287629493406,,,,None,,-0.1,-0.1,0.14444987768261883,0.14166666666666666,trial_list_0.5_green.csv,0.14170569999987492,0.17494910000004893,p3_base_01,001,2023-05-02_11h29.43.266,expectation_shapes_perceived_time,2022.2.4,120.74174066081534,
,-167,0.5,none,,green,red,,1094.8003358244855,,,,,0,59,59,35,trial,,,,,,green,1.0948003358244855,1.1,2.3080904999997074,0.997577299999648,1e-05,1e-05,,1.1002436999997371,1.1331221000000369,1.999764199999845,,2.3080904999997074,2.3080904999997074,0.0,2.3080904999997074,2.5079077999998844,3.157904200000303,0.8498137000005954,0.8498137000005954,1.18364,-0.0806312033814218,-0.12389672714706276,,,,None,,-0.167,-0.16666666666666666,0.8944703358244854,0.9,trial_list_0.5_green.csv,0.9002722000004724,0.9331081999998787,p3_base_01,001,2023-05-02_11h29.43.266,expectation_shapes_perceived_time,2022.2.4,120.74174066081534,
,-33,0.5,none,,green,red,,245.70002821238947,,,,,0,60,60,425,trial,,,,,,green,0.24570002821238948,0.25,2.3084217000005083,0.9973006999998688,2e-05,2e-05,,0.250363400000424,0.28351670000029117,1.9998599999998987,,2.3084217000005083,3.4333968000000823,1.124975099999574,2.3084217000005083,2.508352500000001,4.308728699999847,2.0003069999993386,0.8753318999997646,0.29648,0.11862279946828216,0.0882066970405175,,,,None,,-0.033,-0.03333333333333333,0.17937002821238945,0.18333333333333332,trial_list_0.5_green.csv,0.18353120000028866,0.2166934000006222,p3_base_01,001,2023-05-02_11h29.43.266,expectation_shapes_perceived_time,2022.2.4,120.74174066081534,
,33,0.5,none,,red,green,,461.4093027285046,,,,,0,61,61,246,trial,,,,,,red,0.4614093027285046,0.4666666666666667,2.3080767000001288,0.9975002000001041,1e-05,1e-05,0.03349,0.4664291000008234,0.4998523000003843,1.9996741000004477,2.0332265000006373,2.3080767000001288,4.2086618000003,1.9005851000001712,2.3080767000001288,2.5082459000004746,4.766664200000378,2.458587500000249,0.5580024000000776,0.36508,0.13474187635795673,0.06079816372249267,,,,None,,0.033,0.03333333333333333,0.5277393027285047,0.5333333333333333,trial_list_0.5_green.csv,0.5330007000002297,0.5662438000008478,p3_base_01,001,2023-05-02_11h29.43.266,expectation_shapes_perceived_time,2022.2.4,120.74174066081534,
,-300,0.5,none,,green,red,,1428.3933601702329,,,,,0,62,62,281,trial,,,,,,green,1.4283933601702328,1.4333333333333333,2.308197399999699,0.9966000000003987,1e-05,1e-05,0.03325,1.4331578999999692,1.4664638000003833,1.9997979999998279,2.0331342999998014,2.308197399999699,2.5830096999998204,0.27481230000012147,2.308197399999699,2.508042800000112,3.1500198000003365,0.8418224000006376,0.5670101000005161,0.77843,0.09478706023311015,-0.11343369503306625,,,,None,,-0.3,-0.3,1.0950633601702329,1.1,trial_list_0.5_green.csv,1.099810100000468,1.1330239999997502,p3_base_01,001,2023-05-02_11h29.43.266,expectation_shapes_perceived_time,2022.2.4,120.74174066081534,
,-33,0.5,none,,green,red,,1046.922674460017,,,,,0,63,63,365,trial,,,,,,green,1.046922674460017,1.05,2.308660100000452,0.9965319000002637,2e-05,2e-05,0.03359,1.0499899000005826,1.0834371000000829,1.9998514999997496,2.033431500000006,2.308660100000452,2.308660100000452,0.0,2.308660100000452,2.5087149999999383,3.258353100000022,0.94969299999957,0.94969299999957,1.10242,-0.046745898169240394,-0.14023769450772117,,,,None,,-0.033,-0.03333333333333333,0.9805926744600171,0.9833333333333333,trial_list_0.5_green.csv,0.9834860000000845,1.0168265000002066,p3_base_01,001,2023-05-02_11h29.43.266,expectation_shapes_perceived_time,2022.2.4,120.74174066081534,
,233,0.5,none,,red,green,,1485.9520591690796,,,,,0,64,64,392,trial,,,,,,red,1.4859520591690796,1.4916666666666667,2.3086395000000266,0.9907243000006929,1e-05,1e-05,0.03316,1.4916604999998526,1.5248074999999517,1.9995435999999245,2.0329047999994145,2.3086395000000266,2.3914430999993783,0.08280359999935172,2.3086395000000266,2.5081310999994457,3.158104600000115,0.8494651000000886,0.7666615000007369,1.65831,-0.12991519859184192,0.07052539352128562,,,,None,,0.233,0.23333333333333334,1.7522820591690795,1.7666666666666666,trial_list_0.5_green.csv,1.7665817999995852,1.7995301999999356,p3_base_01,001,2023-05-02_11h29.43.266,expectation_shapes_perceived_time,2022.2.4,120.74174066081534,
,100,0.5,none,,green,red,,1535.7968142517543,,,,,0,65,65,107,trial,,,,,,green,1.5357968142517544,1.5416666666666667,2.308447800000067,0.9983680999994249,1e-05,1e-05,0.03358,1.542048600000271,1.5753562999998394,2.000303300000269,2.0335893999999826,2.308447800000067,2.6749761000000944,0.36652830000002723,2.308447800000067,2.508210200000576,3.6832894999997734,1.3748416999997062,1.008313399999679,1.83895,-0.07164103587385237,0.12930333304061162,,,,None,,0.1,0.1,1.6691268142517541,1.6833333333333333,trial_list_0.5_green.csv,1.6832547000003615,1.7168166000001293,p3_base_01,001,2023-05-02_11h29.43.266,expectation_shapes_perceived_time,2022.2.4,120.74174066081534,
,-33,0.5,none,,red,green,,754.5816614941027,,,,,0,66,66,40,trial,,,,,,red,0.7545816614941028,0.7583333333333333,2.3087507000000187,0.9971418999994057,2e-05,2e-05,0.0336,0.758596700000453,0.7918877000001885,2.0005896000002394,2.0334637000005387,2.3087507000000187,2.3087507000000187,0.0,2.3087507000000187,2.5084442000006675,3.275194800000463,0.9664441000004445,0.9664441000004445,0.43395,0.1446526634226262,0.030453192299500255,,,,None,,-0.033,-0.03333333333333333,0.6882516614941027,0.6916666666666667,trial_list_0.5_green.csv,0.6918985000002067,0.725000600000385,p3_base_01,001,2023-05-02_11h29.43.266,expectation_shapes_perceived_time,2022.2.4,120.74174066081534,
,-33,0.5,none,,red,green,,1291.8869236311114,,,,,0,67,67,94,trial,,,,,,red,1.2918869236311115,1.3,2.308506000000307,0.9980787000004057,2e-05,2e-05,,1.2999643000002834,1.3332822000002125,2.00019870000051,,2.308506000000307,2.3247612000004665,0.016255200000159675,2.308506000000307,2.5080471999999645,3.4917106000002605,1.1832045999999536,1.166949399999794,1.19519,-0.08507145498626252,-0.12089101498047831,,,,None,,-0.033,-0.03333333333333333,1.2255569236311115,1.2333333333333334,trial_list_0.5_green.csv,1.2333034000002954,1.2667551000004096,p3_base_01,001,2023-05-02_11h29.43.266,expectation_shapes_perceived_time,2022.2.4,120.74174066081534,
,100,0.5,none,,green,red,,1050.420933161426,,,,,0,68,68,315,trial,,,,,,green,1.050420933161426,1.0583333333333333,2.3083066999997754,0.9983981999994285,2e-05,2e-05,0.03336,1.0582952999993722,1.0918153000002349,1.9999862999993638,2.0334594999994806,2.3083066999997754,2.3083066999997754,0.0,2.3083066999997754,2.5089163000002372,2.975217799999882,0.6669111000001067,0.6669111000001067,1.08859,-0.04061024125549402,-0.14213584439422905,,,,None,,0.1,0.1,1.183750933161426,1.1916666666666667,trial_list_0.5_green.csv,1.191615400000046,1.2249599999995553,p3_base_01,001,2023-05-02_11h29.43.266,expectation_shapes_perceived_time,2022.2.4,120.74174066081534,
,33,0.5,none,,red,green,,1069.4665916551064,,,,,0,69,69,18,trial,,,,,,red,1.0694665916551065,1.075,2.308220899999469,0.9974103000004106,1e-05,1e-05,0.03349,1.0748358999999255,1.1083142999996198,2.0000161999996635,2.033383399999366,2.308220899999469,2.308220899999469,0.0,2.308220899999469,2.50843789999999,3.224749399999382,0.916528499999913,0.916528499999913,0.94796,0.024058168491602777,-0.14585264648034185,,,,None,,0.033,0.03333333333333333,1.1357965916551063,1.1416666666666666,trial_list_0.5_green.csv,1.1414586000000781,1.174920899999961,p3_base_01,001,2023-05-02_11h29.43.266,expectation_shapes_perceived_time,2022.2.4,120.74174066081534,
,-167,0.5,none,,red,green,,631.8026344631372,,,,,0,70,70,418,trial,,,,,,red,0.6318026344631372,0.6333333333333333,2.3085402999995495,0.9974505999998655,1e-05,1e-05,0.03341,0.6336307000001398,0.6667551999998977,2.0001022999995257,2.03321539999979,2.3085402999995495,2.3085402999995495,0.0,2.3085402999995495,2.508338499999809,3.3248869999997623,1.0163467000002129,1.0163467000002129,0.71879,0.1142569734886015,-0.09379303793840421,,,,None,,-0.167,-0.16666666666666666,0.4314726344631372,0.43333333333333335,trial_list_0.5_green.csv,0.4334320999996635,0.4666853999997329,p3_base_01,001,2023-05-02_11h29.43.266,expectation_shapes_perceived_time,2022.2.4,120.74174066081534,
,-167,0.5,none,,green,red,,1618.5142828267778,,,,,0,71,71,343,trial,,,,,,green,1.6185142828267778,1.625,2.3081620999992083,0.9977305000002161,1e-05,1e-05,0.03322,1.6249518999993597,1.6584139999995386,1.9995794999995269,2.0336397999999463,2.3081620999992083,2.5497748999996475,0.24161280000043917,2.3081620999992083,2.5081158999992113,3.74138210000001,1.4332200000008015,1.1916072000003624,0.92829,0.03302024736390253,-0.14408835213339283,,,,None,,-0.167,-0.16666666666666666,1.4181842828267779,1.425,trial_list_0.5_green.csv,1.424918899999284,1.4581768999996711,p3_base_01,001,2023-05-02_11h29.43.266,expectation_shapes_perceived_time,2022.2.4,120.74174066081534,
,167,0.5,none,,red,green,,1479.1773346320008,,,,,0,72,72,174,trial,,,,,,red,1.4791773346320007,1.4916666666666667,2.308905599999889,0.9975282000004881,1e-05,1e-05,,1.49194609999995,1.5253374000003532,2.0000276999999187,,2.308905599999889,2.308905599999889,0.0,2.308905599999889,2.508570800000598,3.0253213000005417,0.7164157000006526,0.7164157000006526,1.51326,-0.14769535730713926,0.006153973221130802,,,,None,,0.167,0.16666666666666666,1.6795073346320006,1.6916666666666667,trial_list_0.5_green.csv,1.6918229000002611,1.7249559000001682,p3_base_01,001,2023-05-02_11h29.43.266,expectation_shapes_perceived_time,2022.2.4,120.74174066081534,
,-167,0.5,none,,green,red,,934.07510840015,,,,,0,73,73,247,trial,,,,,,green,0.9340751084001501,0.9416666666666667,2.308396399999765,0.9986970999998448,1e-05,1e-05,0.03356,0.9415542999995523,0.974827699999878,2.000006199999916,2.033636999999544,2.308396399999765,2.308396399999765,0.0,2.308396399999765,2.5084154999995008,3.2580474999995204,0.9496510999997554,0.9496510999997554,0.94519,0.025328253771028358,-0.14563745918341306,,,,None,,-0.167,-0.16666666666666666,0.73374510840015,0.7416666666666667,trial_list_0.5_green.csv,0.7416072999994867,0.7753180999998222,p3_base_01,001,2023-05-02_11h29.43.266,expectation_shapes_perceived_time,2022.2.4,120.74174066081534,
,-167,0.5,none,,green,red,,1585.465545224517,,,,,0,74,74,495,trial,,,,,,green,1.585465545224517,1.5916666666666666,2.308190100000502,0.9984014999999999,2e-05,2e-05,0.03315,1.5917655000002924,1.6250511000007464,1.9998037000004842,2.033649200000582,2.308190100000502,2.475072100000034,0.16688199999953213,2.308190100000502,2.508292700000311,3.733407100000477,1.425216999999975,1.258335000000443,1.76704,-0.09878569406846452,0.10996898018942276,,,,None,,-0.167,-0.16666666666666666,1.385135545224517,1.3916666666666666,trial_list_0.5_green.csv,1.3916475000005448,1.4248458000001847,p3_base_01,001,2023-05-02_11h29.43.266,expectation_shapes_perceived_time,2022.2.4,120.74174066081534,
,233,0.5,none,,red,green,,798.9400221361005,0,0,0,0,0,75,75,142,fam,0.5322316000001592,0.5322316000001592,269.99999999999955,2.540564500000073,2.540564500000073,,,,,,,,,,,,,,,,,,,,,,,,,,,,,,,,,,,,p3_base_01,001,2023-05-02_11h29.43.266,expectation_shapes_perceived_time,2022.2.4,120.74174066081534,
,233,0.5,none,,red,green,,798.9400221361005,1,0,1,0,0,75,75,142,fam,0.4986865000000762,0.4986865000000762,269.99999999999955,2.5072126000004573,2.5072126000004573,,,,,,,,,,,,,,,,,,,,,,,,,,,,,,,,,,,,p3_base_01,001,2023-05-02_11h29.43.266,expectation_shapes_perceived_time,2022.2.4,120.74174066081534,
,233,0.5,none,,red,green,,798.9400221361005,2,0,2,0,0,75,75,142,fam,0.49892520000048535,0.49892520000048535,269.99999999999955,2.507095200000549,2.507095200000549,,,,,,,,,,,,,,,,,,,,,,,,,,,,,,,,,,,,p3_base_01,001,2023-05-02_11h29.43.266,expectation_shapes_perceived_time,2022.2.4,120.74174066081534,
,233,0.5,none,,red,green,,798.9400221361005,3,0,3,0,0,75,75,142,fam,0.4981814000002487,0.4981814000002487,269.99999999999955,2.5065676000003805,2.5065676000003805,,,,,,,,,,,,,,,,,,,,,,,,,,,,,,,,,,,,p3_base_01,001,2023-05-02_11h29.43.266,expectation_shapes_perceived_time,2022.2.4,120.74174066081534,
,233,0.5,none,,red,green,,798.9400221361005,,,,,0,75,75,142,trial,,,,,,red,0.7989400221361005,0.8,2.308470799999668,0.9909001000005446,2e-05,2e-05,0.03407,0.8003734999992957,0.8335429999997359,2.0000560999997106,2.033537299999807,2.308470799999668,2.308470799999668,0.0,2.308470799999668,2.5082391999994798,3.1582823999997345,0.8498116000000664,0.8498116000000664,0.28051,0.11405165683428868,0.09404259423178189,,,,None,,0.233,0.23333333333333334,1.0652700221361007,1.075,trial_list_0.5_green.csv,1.0749107999999978,1.1086380999995527,p3_base_01,001,2023-05-02_11h29.43.266,expectation_shapes_perceived_time,2022.2.4,120.74174066081534,
,300,0.5,none,,green,red,,781.9493416560473,,,,,0,76,76,377,trial,,,,,,green,0.7819493416560473,0.7833333333333333,2.3083525000001828,0.9965189000004102,1e-05,1e-05,0.03311,0.7833563000003778,0.8166480999998385,1.9996941999997944,2.0333974000004673,2.3083525000001828,2.741786200000206,0.43343370000002324,2.3083525000001828,2.50813990000006,4.083399500000269,1.775047000000086,1.3416133000000627,0.84484,0.06923709346249876,-0.1306063353951681,,,,None,,0.3,0.3,1.1152793416560471,1.125,trial_list_0.5_green.csv,1.1249078999999256,1.1582471000001533,p3_base_01,001,2023-05-02_11h29.43.266,expectation_shapes_perceived_time,2022.2.4,120.74174066081534,
,233,0.5,none,,red,green,,1465.0851345512915,,,,,0,77,77,114,trial,,,,,,red,1.4650851345512914,1.475,2.3083425000004354,0.9971353999999337,1e-05,1e-05,0.03349,1.4752928999996584,1.5086283999999068,2.000059500000134,2.03340819999994,2.3083425000004354,2.3083425000004354,0.0,2.3083425000004354,2.508611600000222,3.2252504999996745,0.9169079999992391,0.9169079999992391,1.56855,-0.14440878898756562,0.031589422591029974,,,,None,,0.233,0.23333333333333334,1.7314151345512914,1.7416666666666667,trial_list_0.5_green.csv,1.7415578000000096,1.7754507999998168,p3_base_01,001,2023-05-02_11h29.43.266,expectation_shapes_perceived_time,2022.2.4,120.74174066081534,
,-233,0.5,none,,red,green,,954.6655570878842,,,,,0,78,78,230,trial,,,,,,red,0.9546655570878841,0.9583333333333334,2.308367399999952,0.9974132000006648,1e-05,1e-05,,0.9584026000002268,0.9917795999999726,2.00071300000036,,2.308367399999952,2.308367399999952,0.0,2.308367399999952,2.5090061000000787,3.116620000000694,0.808252600000742,0.808252600000742,0.89013,0.05001535026017996,-0.1391051929111255,,,,None,,-0.233,-0.23333333333333334,0.6883355570878841,0.6916666666666667,trial_list_0.5_green.csv,0.6921674000004714,0.7254007999999885,p3_base_01,001,2023-05-02_11h29.43.266,expectation_shapes_perceived_time,2022.2.4,120.74174066081534,
,-300,0.5,none,,green,red,,1171.8717283292451,,,,,0,79,79,445,trial,,,,,,green,1.171871728329245,1.175,2.308455800000047,0.9986640000006446,2e-05,2e-05,0.03339,1.1750951000003624,1.2084058000000368,2.000004700000318,2.033350500000779,2.308455800000047,2.308455800000047,0.0,2.308455800000047,2.508369200000743,3.4253687000000355,1.1169128999999884,1.1169128999999884,1.69384,-0.12125145288560793,0.08455693424917395,,,,None,,-0.3,-0.3,0.8385417283292451,0.8416666666666667,trial_list_0.5_green.csv,0.841772700000547,0.8750917000006666,p3_base_01,001,2023-05-02_11h29.43.266,expectation_shapes_perceived_time,2022.2.4,120.74174066081534,
,-33,0.5,none,,red,green,,814.6585984470663,,,,,0,80,80,204,trial,,,,,,red,0.8146585984470663,0.8166666666666667,2.30865090000043,0.9975140000005922,1e-05,1e-05,0.03356,0.8165762999997241,0.8502097999999023,2.0004501000003074,2.033180899999934,2.30865090000043,2.3750241999996433,0.06637329999921349,2.30865090000043,2.5080668000000514,3.2999213000002783,0.9912703999998485,0.924897100000635,0.31096,0.12251117947991927,0.08272122375139848,,,,None,,-0.033,-0.03333333333333333,0.7483285984470662,0.75,trial_list_0.5_green.csv,0.7497979999998279,0.7835738000003403,p3_base_01,001,2023-05-02_11h29.43.266,expectation_shapes_perceived_time,2022.2.4,120.74174066081534,
,-100,0.5,none,,red,green,,269.3802445349048,,,,,0,81,81,498,trial,,,,,,red,0.26938024453490483,0.275,2.3085831999997026,0.9983696999997846,1e-05,1e-05,0.03338,0.2755719999995563,0.30854180000005726,1.9999535999995715,2.0333786999999575,2.3085831999997026,2.3085831999997026,0.0,2.3085831999997026,2.508803899999293,3.0666883999992933,0.7581051999995907,0.7581051999995907,0.10376,0.04733719701923176,0.14003920784856064,,,,None,,-0.1,-0.1,0.13605024453490483,0.13333333333333333,trial_list_0.5_green.csv,0.13332249999984924,0.16724689999955444,p3_base_01,001,2023-05-02_11h29.43.266,expectation_shapes_perceived_time,2022.2.4,120.74174066081534,
,100,0.5,none,,red,green,,1160.356541000856,,,,,0,82,82,264,trial,,,,,,red,1.1603565410008558,1.1666666666666667,2.3082950999996683,0.998361400000249,2e-05,2e-05,,1.1664160999998785,1.1998679999996966,1.9998859999996057,,2.3082950999996683,2.3745810999998866,0.06628600000021834,2.3082950999996683,2.5084197999995013,3.166415899999265,0.8581207999995968,0.7918347999993784,1.33216,-0.12774543775459005,-0.07438341945203977,,,,None,,0.1,0.1,1.2936865410008558,1.3,trial_list_0.5_green.csv,1.3001779999995051,1.3332486999997855,p3_base_01,001,2023-05-02_11h29.43.266,expectation_shapes_perceived_time,2022.2.4,120.74174066081534,
,100,0.5,none,,green,red,,209.14484654953984,,,,,0,83,83,99,trial,,,,,,green,0.20914484654953983,0.20833333333333334,2.3086089999997057,0.9974735999994664,2e-05,2e-05,0.0333,0.2084750999993048,0.24236519999976736,2.000210199999856,2.0336131999993086,2.3086089999997057,2.3086089999997057,0.0,2.3086089999997057,2.5085707999996885,3.2419080999998187,0.933299100000113,0.933299100000113,0.09033,0.041390582655826555,0.14191056910569105,,,,None,,0.1,0.1,0.3424748465495398,0.3416666666666667,trial_list_0.5_green.csv,0.3418893999996726,0.3753112999993391,p3_base_01,001,2023-05-02_11h29.43.266,expectation_shapes_perceived_time,2022.2.4,120.74174066081534,
,-300,0.5,none,,green,red,,611.0838868700993,,,,,0,84,84,69,trial,,,,,,green,0.6110838868700993,0.6166666666666667,2.3080913999992845,0.9977082000004884,1e-05,1e-05,0.03286,0.6166093000001638,0.6499352999999246,1.9995241999995415,2.033041900000171,2.3080913999992845,2.691180899999381,0.38308950000009645,2.3080913999992845,2.5079986999999164,3.308231599999999,1.0001402000007147,0.6170507000006182,0.23641,0.09996879584869327,0.1088945811923266,,,,None,,-0.3,-0.3,0.2777538868700993,0.2833333333333333,trial_list_0.5_green.csv,0.28276479999931325,0.3162789999996676,p3_base_01,001,2023-05-02_11h29.43.266,expectation_shapes_perceived_time,2022.2.4,120.74174066081534,
,233,0.5,none,,green,red,,1593.9271636669791,,,,,0,85,85,345,trial,,,,,,green,1.5939271636669792,1.6,2.307847000000038,0.9969474999998056,1e-05,1e-05,0.03294,1.5994324999992386,1.6327636999994866,1.9996618999994098,2.032848599999852,2.307847000000038,2.466230299999552,0.15838329999951384,2.307847000000038,2.5082266999997955,3.191260499999771,0.8834134999997332,0.7250302000002193,1.63789,-0.13416861447156964,0.06205298419310097,,,,None,,0.233,0.23333333333333334,1.8602571636669791,1.875,trial_list_0.5_green.csv,1.8747374999993554,1.9080620999993698,p3_base_01,001,2023-05-02_11h29.43.266,expectation_shapes_perceived_time,2022.2.4,120.74174066081534,
,-33,0.5,none,,green,red,,339.99059092155005,,,,,0,86,86,431,trial,,,,,,green,0.33999059092155004,0.3416666666666667,2.307891099999324,0.9973196000000826,1e-05,1e-05,0.03341,0.34145360000002256,0.37462699999923643,1.9997286999996504,2.033005599999342,2.307891099999324,2.357919499999298,0.05002839999997377,2.307891099999324,2.5082564999993338,2.833264999999301,0.5253738999999769,0.4753455000000031,0.25936,0.10755481948648804,0.10140882980154586,,,,None,,-0.033,-0.03333333333333333,0.27366059092155004,0.275,trial_list_0.5_green.csv,0.27463819999957195,0.3083296999993763,p3_base_01,001,2023-05-02_11h29.43.266,expectation_shapes_perceived_time,2022.2.4,120.74174066081534,
,-300,0.5,none,,green,red,,1399.04864723617,,,,,0,87,87,183,trial,,,,,,green,1.3990486472361698,1.4083333333333332,2.3083915000006527,0.9965668000004371,1e-05,1e-05,,1.4085112000002482,1.441426300000785,2.000048500000048,,2.3083915000006527,2.3083915000006527,0.0,2.3083915000006527,2.5084248000002844,3.300306300000557,0.9919147999999041,0.9919147999999041,1.40913,-0.14184130096786235,-0.04162733832752483,,,,None,,-0.3,-0.3,1.06571864723617,1.075,trial_list_0.5_green.csv,1.0748849999999948,1.108530200000132,p3_base_01,001,2023-05-02_11h29.43.266,expectation_shapes_perceived_time,2022.2.4,120.74174066081534,
,167,0.5,none,,green,red,,433.9478798429844,,,,,0,88,88,171,trial,,,,,,green,0.4339478798429844,0.43333333333333335,2.3079994999998235,0.9973362999999154,1e-05,1e-05,,0.4337545999997019,0.46708459999990737,2.000230599999668,,2.3079994999998235,2.3079994999998235,0.0,2.3079994999998235,2.5084626999996544,2.8499879000000874,0.5419884000002639,0.5419884000002639,0.28474,0.11529177342355354,0.09251808978433308,,,,None,,0.167,0.16666666666666666,0.6342778798429843,0.6416666666666666,trial_list_0.5_green.csv,0.6419222999993508,0.6749811999998201,p3_base_01,001,2023-05-02_11h29.43.266,expectation_shapes_perceived_time,2022.2.4,120.74174066081534,
,-167,0.5,none,,red,green,,972.7318676472752,,,,,0,89,89,186,trial,,,,,,red,0.9727318676472752,0.975,2.308502099999714,0.9973958000000493,1e-05,1e-05,,0.9750122999994346,1.0082692999994833,1.999968799999806,,2.308502099999714,2.308502099999714,0.0,2.308502099999714,2.5086554999998043,3.1252730999995038,0.8167709999997896,0.8167709999997896,0.55535,0.1455939253797442,-0.025577311215360464,,,,None,,-0.167,-0.16666666666666666,0.7724018676472751,0.775,trial_list_0.5_green.csv,0.7749652000002243,0.8081007999999201,p3_base_01,001,2023-05-02_11h29.43.266,expectation_shapes_perceived_time,2022.2.4,120.74174066081534,
,-100,0.5,none,,green,red,,963.3233824561,,,,,0,90,90,265,trial,,,,,,green,0.9633233824561,0.9666666666666667,2.307968300000539,0.9976815999998507,3e-05,3e-05,0.03322,0.9664167999999336,1.0000224000004891,1.999570500000118,2.033055300000342,2.307968300000539,2.3246531000004325,0.016684799999893585,2.307968300000539,2.5080486000006204,2.8832680000004984,0.5752996999999596,0.558614900000066,0.95407,0.021255430820131045,-0.1462873768209019,,,,None,,-0.1,-0.1,0.8299933824561,0.8333333333333334,trial_list_0.5_green.csv,0.8329854000003252,0.8664974000002985,p3_base_01,001,2023-05-02_11h29.43.266,expectation_shapes_perceived_time,2022.2.4,120.74174066081534,
,-300,0.5,none,,red,green,,1162.475087855698,,,,,0,91,91,136,trial,,,,,,red,1.162475087855698,1.1666666666666667,2.307819399999971,0.9967085999996925,1e-05,1e-05,,1.1665487000000212,1.199840999999651,1.9998540999995384,,2.307819399999971,2.4578221000001577,0.15000270000018645,2.307819399999971,2.5078302000001713,3.43302119999953,1.1252017999995587,0.9751990999993723,0.80641,0.08446174508201298,-0.12131777929961866,,,,None,,-0.3,-0.3,0.8291450878556978,0.8333333333333334,trial_list_0.5_green.csv,0.8328725000001214,0.8665616999996928,p3_base_01,001,2023-05-02_11h29.43.266,expectation_shapes_perceived_time,2022.2.4,120.74174066081534,
,33,0.5,none,,green,red,,1158.1893048947372,,,,,0,92,92,255,trial,,,,,,green,1.1581893048947371,1.1666666666666667,2.3083951999997225,0.9965394000000742,1e-05,1e-05,0.0332,1.167020899999443,1.200198200000159,1.999917899999673,2.033669999999802,2.3083951999997225,2.541852800000015,0.2334576000002926,2.3083951999997225,2.5085660999993706,3.6666638999995484,1.358268699999826,1.1248110999995333,1.41938,-0.1431078349946124,-0.03703967493978204,,,,None,,0.033,0.03333333333333333,1.2245193048947371,1.2333333333333334,trial_list_0.5_green.csv,1.2336918999999398,1.2669175000000905,p3_base_01,001,2023-05-02_11h29.43.266,expectation_shapes_perceived_time,2022.2.4,120.74174066081534,
,167,0.5,none,,red,green,,1314.176402824406,,,,,0,93,93,470,trial,,,,,,red,1.314176402824406,1.325,2.308481400000346,0.9974918999996589,2e-05,2e-05,,1.3249888999998802,1.358118099999956,1.9999361000000135,,2.308481400000346,2.616476500000317,0.307995099999971,2.308481400000346,2.5085210000006555,3.175014000000374,0.8665326000000277,0.5585375000000568,1.64758,-0.13221736635250278,0.06610868317625139,,,,None,,0.167,0.16666666666666666,1.514506402824406,1.525,trial_list_0.5_green.csv,1.5252869000005376,1.5582791000006182,p3_base_01,001,2023-05-02_11h29.43.266,expectation_shapes_perceived_time,2022.2.4,120.74174066081534,
,-300,0.5,none,,green,red,,895.6532193783589,,,,,0,94,94,37,trial,,,,,,green,0.895653219378359,0.9,2.3067121999993105,0.9912035999996078,2e-05,2e-05,0.03204,0.8983039999993707,0.9314270999993823,2.006644299999607,2.0398433000000296,2.3067121999993105,2.3067121999993105,0.0,2.3067121999993105,2.506578599999557,2.7900433999993766,0.483331200000066,0.483331200000066,1.50964,-0.14775568497614017,0.004477444999276975,,,,None,,-0.3,-0.3,0.5623232193783589,0.5666666666666667,trial_list_0.5_green.csv,0.5650392999996257,0.598233199999413,p3_base_01,001,2023-05-02_11h29.43.266,expectation_shapes_perceived_time,2022.2.4,120.74174066081534,
,300,0.5,none,,green,red,,1326.4250509633994,,,,,0,95,95,337,trial,,,,,,green,1.3264250509633995,1.3333333333333333,2.30776700000024,0.997676699999829,1e-05,1e-05,0.03339,1.3333763999999064,1.3666259999999966,1.9999784999999974,2.033349000000271,2.30776700000024,2.5082409999995434,0.2004739999993035,2.30776700000024,2.5082409999995434,3.183194499999445,0.8754274999992049,0.6749534999999014,1.64534,-0.13267963048750908,0.06517595883596937,,,,None,,0.3,0.3,1.6597550509633994,1.6666666666666667,trial_list_0.5_green.csv,1.666674399999465,1.7000544000002265,p3_base_01,001,2023-05-02_11h29.43.266,expectation_shapes_perceived_time,2022.2.4,120.74174066081534,
,-33,0.5,none,,green,red,,199.3764937912792,,,,,0,96,96,29,trial,,,,,,green,0.1993764937912792,0.2,2.3084263999999166,0.9976667000000816,2e-05,2e-05,,0.2001828000002206,0.23290730000007898,1.999937200000204,,2.3084263999999166,2.3084263999999166,0.0,2.3084263999999166,2.5083936000000904,2.8580894000006083,0.5496630000006917,0.5496630000006917,0.23727,0.10026574519991245,0.10862122396657181,,,,None,,-0.033,-0.03333333333333333,0.1330464937912792,0.13333333333333333,trial_list_0.5_green.csv,0.13329680000060762,0.16641359999994165,p3_base_01,001,2023-05-02_11h29.43.266,expectation_shapes_perceived_time,2022.2.4,120.74174066081534,
,100,0.5,none,,green,red,,534.6447796355338,,,,,0,97,97,403,trial,,,,,,green,0.5346447796355338,0.5416666666666666,2.3079955000002883,0.9976845999999568,1e-05,1e-05,,0.5415648999996847,0.5748130000001765,2.0000897999998415,,2.3079955000002883,2.3079955000002883,0.0,2.3079955000002883,2.5082039999997505,2.8998124999998254,0.5918169999995371,0.5918169999995371,0.78522,0.0923446142874532,-0.11543076785931652,,,,None,,0.1,0.1,0.6679747796355339,0.675,trial_list_0.5_green.csv,0.674863500000356,0.7084650999995574,p3_base_01,001,2023-05-02_11h29.43.266,expectation_shapes_perceived_time,2022.2.4,120.74174066081534,
,167,0.5,none,,red,green,,501.9452932476647,,,,,0,98,98,50,trial,,,,,,red,0.5019452932476647,0.5083333333333333,2.3086317999996027,0.997371600000406,1e-05,1e-05,,0.5085763999995834,0.5420243999997183,2.000141999999869,,2.3086317999996027,2.3086317999996027,0.0,2.3086317999996027,2.5082188999995196,3.36669079999956,1.0580589999999575,1.0580589999999575,0.62411,0.1367279188330997,-0.05618955568483549,,,,None,,0.167,0.16666666666666666,0.7022752932476648,0.7083333333333334,trial_list_0.5_green.csv,0.7083062000001519,0.7419652999997197,p3_base_01,001,2023-05-02_11h29.43.266,expectation_shapes_perceived_time,2022.2.4,120.74174066081534,
,233,0.5,none,,red,green,,1213.476580159655,,,,,0,99,99,456,trial,,,,,,red,1.213476580159655,1.225,2.308580699999766,0.998336399999971,2e-05,2e-05,0.03341,1.2254516000002695,1.2589491999997335,2.0005558000002566,2.033696499999678,2.308580699999766,2.583854700000302,0.27527400000053603,2.308580699999766,2.5083856000001106,3.383395799999562,1.074815099999796,0.79954109999926,1.26337,-0.10882288072913957,-0.10004684196066056,,,,None,,0.233,0.23333333333333334,1.479806580159655,1.4916666666666667,trial_list_0.5_green.csv,1.491914700000052,1.525243899999623,p3_base_01,001,2023-05-02_11h29.43.266,expectation_shapes_perceived_time,2022.2.4,120.74174066081534,
,-167,0.5,none,,red,green,,1541.1446451899417,0,0,0,0,0,100,100,448,fam,0.5319549999994706,0.5319549999994706,269.99999999999955,2.5405894999994416,2.5405894999994416,,,,,,,,,,,,,,,,,,,,,,,,,,,,,,,,,,,,p3_base_01,001,2023-05-02_11h29.43.266,expectation_shapes_perceived_time,2022.2.4,120.74174066081534,
,-167,0.5,none,,red,green,,1541.1446451899417,1,0,1,0,0,100,100,448,fam,0.49884239999937563,0.49884239999937563,269.99999999999955,2.5072589000001244,2.5072589000001244,,,,,,,,,,,,,,,,,,,,,,,,,,,,,,,,,,,,p3_base_01,001,2023-05-02_11h29.43.266,expectation_shapes_perceived_time,2022.2.4,120.74174066081534,
,-167,0.5,none,,red,green,,1541.1446451899417,2,0,2,0,0,100,100,448,fam,0.4986669999998412,0.4986669999998412,269.99999999999955,2.507046800000353,2.507046800000353,,,,,,,,,,,,,,,,,,,,,,,,,,,,,,,,,,,,p3_base_01,001,2023-05-02_11h29.43.266,expectation_shapes_perceived_time,2022.2.4,120.74174066081534,
,-167,0.5,none,,red,green,,1541.1446451899417,3,0,3,0,0,100,100,448,fam,0.49857169999995676,0.49857169999995676,269.99999999999955,2.5068351999998413,2.5068351999998413,,,,,,,,,,,,,,,,,,,,,,,,,,,,,,,,,,,,p3_base_01,001,2023-05-02_11h29.43.266,expectation_shapes_perceived_time,2022.2.4,120.74174066081534,
,-167,0.5,none,,red,green,,1541.1446451899417,,,,,0,100,100,448,trial,,,,,,red,1.5411446451899418,1.55,2.3080008000006274,0.9991272000006575,1e-05,1e-05,0.03324,1.5496447000004991,1.5833249000006617,1.9998475000002145,2.033303199999864,2.3080008000006274,2.3080008000006274,0.0,2.3080008000006274,2.5079696000002514,3.091595700000653,0.7835949000000255,0.7835949000000255,1.4616,-0.14674939164463394,-0.017787805047834414,,,,None,,-0.167,-0.16666666666666666,1.3408146451899419,1.35,trial_list_0.5_green.csv,1.3500418000003265,1.3829593999998906,p3_base_01,001,2023-05-02_11h29.43.266,expectation_shapes_perceived_time,2022.2.4,120.74174066081534,
,-100,0.5,none,,red,green,,710.0725886348112,,,,,0,101,101,360,trial,,,,,,red,0.7100725886348112,0.7166666666666667,2.308293799999774,0.995528500000546,1e-05,1e-05,0.03375,0.7168173999998544,0.7503354999998919,1.9999850999993214,2.0335151999997834,2.308293799999774,2.308293799999774,0.0,2.308293799999774,2.5083606999996846,2.8752666999998837,0.5669729000001098,0.5669729000001098,0.5,0.14782350948509485,0.0,,,,None,,-0.1,-0.1,0.5767425886348111,0.5833333333333334,trial_list_0.5_green.csv,0.5836440999992192,0.6166590999991968,p3_base_01,001,2023-05-02_11h29.43.266,expectation_shapes_perceived_time,2022.2.4,120.74174066081534,
,-33,0.5,none,,green,red,,910.7036620240294,,,,,0,102,102,479,trial,,,,,,green,0.9107036620240294,0.9166666666666666,2.307767700000113,0.9974819999997635,6e-05,6e-05,,0.9160641999997097,0.9493737000002511,1.9994194999999308,,2.307767700000113,2.307767700000113,0.0,2.307767700000113,2.507727100000011,3.4578113999996276,1.1500436999995145,1.1500436999995145,0.88397,0.052700039320544026,-0.13811044787452917,,,,None,,-0.033,-0.03333333333333333,0.8443736620240294,0.85,trial_list_0.5_green.csv,0.849503200000072,0.8827362000001813,p3_base_01,001,2023-05-02_11h29.43.266,expectation_shapes_perceived_time,2022.2.4,120.74174066081534,
,33,0.5,none,,green,red,,584.6701327426745,,,,,0,103,103,383,trial,,,,,,green,0.5846701327426744,0.5916666666666667,2.308349200000521,0.9968595999998797,1e-05,1e-05,0.03348,0.5916811000006419,0.6251229000008607,1.999749300000076,2.033262200000536,2.308349200000521,2.308349200000521,0.0,2.308349200000521,2.508263700000498,2.9664783000007446,0.6581291000002238,0.6581291000002238,0.36115,0.13398089650006434,0.06245726002258639,,,,None,,0.033,0.03333333333333333,0.6510001327426745,0.6583333333333333,trial_list_0.5_green.csv,0.6587602000008701,0.6921349000003829,p3_base_01,001,2023-05-02_11h29.43.266,expectation_shapes_perceived_time,2022.2.4,120.74174066081534,
,-33,0.5,none,,green,red,,1364.3060652748593,,,,,0,104,104,359,trial,,,,,,green,1.3643060652748593,1.375,2.307773300000008,0.9978716999994504,1e-05,1e-05,0.03293,1.3744354999998905,1.4077347000002192,1.99942800000008,2.03298150000046,2.307773300000008,2.307773300000008,0.0,2.307773300000008,2.507916500000647,2.8746717000003628,0.5668984000003547,0.5668984000003547,1.60019,-0.14056115207148284,0.045764096023273484,,,,None,,-0.033,-0.03333333333333333,1.2979760652748593,1.3083333333333333,trial_list_0.5_green.csv,1.307749500000682,1.3410495000007359,p3_base_01,001,2023-05-02_11h29.43.266,expectation_shapes_perceived_time,2022.2.4,120.74174066081534,
,-233,0.5,none,,red,green,,636.2167987088169,,,,,0,105,105,202,trial,,,,,,red,0.6362167987088169,0.6416666666666666,2.308244700000614,0.9984017999995558,2e-05,2e-05,,0.6415860000006433,0.6751085000005332,1.9998419000003196,,2.308244700000614,2.308244700000614,0.0,2.308244700000614,2.508090799999991,2.9081372999999076,0.5998925999992935,0.5998925999992935,0.79241,0.08971609880324972,-0.11748536748044609,,,,None,,-0.233,-0.23333333333333334,0.3698867987088169,0.375,trial_list_0.5_green.csv,0.3750073000001066,0.4083055000000968,p3_base_01,001,2023-05-02_11h29.43.266,expectation_shapes_perceived_time,2022.2.4,120.74174066081534,
,-33,0.5,none,,red,green,,911.3308591076774,,,,,0,106,106,164,trial,,,,,,red,0.9113308591076774,0.9166666666666666,2.308703200000309,0.9973149999996167,1e-05,1e-05,0.0337,0.916769899999963,0.9504143000003751,2.000224000000344,2.033419600000343,2.308703200000309,2.308703200000309,0.0,2.308703200000309,2.5087008000000424,2.825108,0.516404799999691,0.516404799999691,0.76408,0.09980426326849118,-0.10904539875631444,,,,None,,-0.033,-0.03333333333333333,0.8450008591076773,0.85,trial_list_0.5_green.csv,0.8501173000004201,0.8836715999996159,p3_base_01,001,2023-05-02_11h29.43.266,expectation_shapes_perceived_time,2022.2.4,120.74174066081534,
,33,0.5,none,,green,red,,285.4054765976165,,,,,0,107,107,231,trial,,,,,,green,0.2854054765976165,0.2833333333333333,2.3077013999991323,0.9981853999997838,7e-05,7e-05,0.03315,0.2829240999999456,0.31627729999945586,1.999403099999654,2.0327449999995224,2.3077013999991323,2.3077013999991323,0.0,2.3077013999991323,2.5078192999999374,3.0995020999998815,0.7918007000007492,0.7918007000007492,0.38969,0.1390359783123183,0.0502074366127816,,,,None,,0.033,0.03333333333333333,0.35173547659761645,0.35,trial_list_0.5_green.csv,0.3495588999994652,0.3828469000000041,p3_base_01,001,2023-05-02_11h29.43.266,expectation_shapes_perceived_time,2022.2.4,120.74174066081534,
,-100,0.5,none,,green,red,,1525.2191744454078,,,,,0,108,108,135,trial,,,,,,green,1.5252191744454078,1.5333333333333332,2.3084161000006134,0.9974124999998821,1e-05,1e-05,0.03293,1.5331393000005846,1.566390599999977,2.0000017000002117,2.0334159000003638,2.3084161000006134,2.3084161000006134,0.0,2.3084161000006134,2.5080401000004713,3.2998584000006304,0.991442300000017,0.991442300000017,1.80867,-0.08359838623096134,0.1219143132534853,,,,None,,-0.1,-0.1,1.3918891744454078,1.4,trial_list_0.5_green.csv,1.3998400000000402,1.4332736000005752,p3_base_01,001,2023-05-02_11h29.43.266,expectation_shapes_perceived_time,2022.2.4,120.74174066081534,
,100,0.5,none,,green,red,,815.4413086719239,,,,,0,109,109,381,trial,,,,,,green,0.8154413086719239,0.8166666666666667,2.3083435999997164,0.9973885999997947,2e-05,2e-05,0.03343,0.8168679000000338,0.84998110000015,2.0001179000000775,2.033141099999739,2.3083435999997164,2.3083435999997164,0.0,2.3083435999997164,2.508173999999599,2.9747220999997808,0.6663785000000644,0.6663785000000644,1.06605,-0.030453192299500255,-0.14465266342262623,,,,None,,0.1,0.1,0.9487713086719239,0.9583333333333334,trial_list_0.5_green.csv,0.9582329000004393,0.991658599999937,p3_base_01,001,2023-05-02_11h29.43.266,expectation_shapes_perceived_time,2022.2.4,120.74174066081534,
,-300,0.5,none,,red,green,,1593.2429392724607,,,,,0,110,110,414,trial,,,,,,red,1.5932429392724607,1.6,2.3080878999999186,0.9976254000002882,1e-05,1e-05,0.03356,1.600010199999815,1.6334959000005256,1.9999820000002728,2.0332053000001906,2.3080878999999186,2.8416047999999137,0.5335168999999951,2.3080878999999186,2.508287000000564,3.433365099999719,1.1252771999998004,0.5917602999998053,1.42662,-0.14391317777674212,-0.033775541723112944,,,,None,,-0.3,-0.3,1.2599129392724608,1.2666666666666666,trial_list_0.5_green.csv,1.2665130000004865,1.3002287999997861,p3_base_01,001,2023-05-02_11h29.43.266,expectation_shapes_perceived_time,2022.2.4,120.74174066081534,
,167,0.5,none,,green,red,,1259.6607809347286,,,,,0,111,111,41,trial,,,,,,green,1.2596607809347287,1.2666666666666666,2.308247500000107,0.997460399999909,1e-05,1e-05,,1.2669924000001629,1.2999014000006355,2.0000057000006564,,2.308247500000107,2.741558200000327,0.4333107000002201,2.308247500000107,2.5082594000004974,3.366614700000355,1.058367200000248,0.6250565000000279,1.65075,-0.13155305630479558,0.06742094135620774,,,,None,,0.167,0.16666666666666666,1.4599907809347286,1.4666666666666666,trial_list_0.5_green.csv,1.4664960000000065,1.4998992999999246,p3_base_01,001,2023-05-02_11h29.43.266,expectation_shapes_perceived_time,2022.2.4,120.74174066081534,
,233,0.5,none,,red,green,,1082.6655444746757,,,,,0,112,112,46,trial,,,,,,red,1.0826655444746758,1.0916666666666666,2.3082313000004433,0.9977019999996628,2e-05,2e-05,0.03336,1.0916824000005363,1.1247798000003968,2.000030300000617,2.0332810000008976,2.3082313000004433,2.708380100000795,0.4001488000003519,2.3082313000004433,2.5081349000001865,3.374777900000481,1.0665466000000379,0.666397799999686,1.60129,-0.14040199782530682,0.04625006987186577,,,,None,,0.233,0.23333333333333334,1.3489955444746757,1.3583333333333334,trial_list_0.5_green.csv,1.3581299000006766,1.3916447000001426,p3_base_01,001,2023-05-02_11h29.43.266,expectation_shapes_perceived_time,2022.2.4,120.74174066081534,
,100,0.5,none,,green,red,,1001.8296385953864,,,,,0,113,113,201,trial,,,,,,green,1.0018296385953864,1.0083333333333333,2.308270900000025,0.9986884999998438,2e-05,2e-05,0.03325,1.00813030000063,1.041417200000069,1.9999368000007962,2.033515800000714,2.308270900000025,2.308270900000025,0.0,2.308270900000025,2.5080932000000757,3.3417819000005693,1.0335110000005443,1.0335110000005443,0.76898,0.09811189467956832,-0.11057054797221193,,,,None,,0.1,0.1,1.1351596385953862,1.1416666666666666,trial_list_0.5_green.csv,1.1416631000001871,1.1747602000004917,p3_base_01,001,2023-05-02_11h29.43.266,expectation_shapes_perceived_time,2022.2.4,120.74174066081534,
,167,0.5,none,,red,green,,1523.325715499864,,,,,0,114,114,308,trial,,,,,,red,1.5233257154998638,1.5333333333333332,2.3078041999997367,0.9973909000000276,8e-05,8e-05,0.03296,1.5330070999998497,1.5662323999995351,1.999536899999839,2.032968699999401,2.3078041999997367,2.5743908999993437,0.26658669999960694,2.3078041999997367,2.5077345999998215,3.166053999999349,0.8582497999996122,0.5916631000000052,1.62511,-0.13655080108733778,0.05661862484109127,,,,None,,0.167,0.16666666666666666,1.7236557154998637,1.7333333333333334,trial_list_0.5_green.csv,1.7328675999997358,1.7661336999999548,p3_base_01,001,2023-05-02_11h29.43.266,expectation_shapes_perceived_time,2022.2.4,120.74174066081534,
,-100,0.5,none,,red,green,,830.9287844270194,,,,,0,115,115,398,trial,,,,,,red,0.8309287844270195,0.8333333333333334,2.3085707999998704,0.9980051000002277,2e-05,2e-05,,0.8333849000000555,0.8667101999999431,2.00018160000036,,2.3085707999998704,2.3754416000001584,0.066870800000288,2.3085707999998704,2.508532599999853,3.9834270999999717,1.6748563000001013,1.6079854999998133,0.89345,0.04856307171705551,-0.1396188311865346,,,,None,,-0.1,-0.1,0.6975987844270194,0.7,trial_list_0.5_green.csv,0.7001177000001917,0.7334025000000111,p3_base_01,001,2023-05-02_11h29.43.266,expectation_shapes_perceived_time,2022.2.4,120.74174066081534,
,300,0.5,none,,green,red,,1089.7005049869556,,,,,0,116,116,103,trial,,,,,,green,1.0897005049869557,1.1,2.3084651000008307,0.9977397000002384,2e-05,2e-05,0.0335,1.1002113000004101,1.1334523000004992,1.999940400000014,2.0333869000005507,2.3084651000008307,2.416843000000881,0.10837790000005043,2.3084651000008307,2.5084590000005846,3.7917097000008653,1.4832446000000346,1.3748666999999841,1.75964,-0.10131301508411346,0.10764507852687052,,,,None,,0.3,0.3,1.4230305049869556,1.4333333333333333,trial_list_0.5_green.csv,1.4332462000002124,1.4668210000008912,p3_base_01,001,2023-05-02_11h29.43.266,expectation_shapes_perceived_time,2022.2.4,120.74174066081534,
,-33,0.5,none,,red,green,,1183.0163790324386,,,,,0,117,117,84,trial,,,,,,red,1.1830163790324386,1.1916666666666667,2.3081274999995003,0.9988098000003447,1e-05,1e-05,0.03322,1.1916475999996692,1.2248231000003216,2.0000411999999415,2.033260700000028,2.3081274999995003,2.4753163999994285,0.16718889999992825,2.3081274999995003,2.508731500000067,3.0082479000002422,0.7001204000007419,0.5329315000008137,1.24342,-0.10234247615560195,-0.10666680613400766,,,,None,,-0.033,-0.03333333333333333,1.1166863790324386,1.125,trial_list_0.5_green.csv,1.1248978000003262,1.158737900000233,p3_base_01,001,2023-05-02_11h29.43.266,expectation_shapes_perceived_time,2022.2.4,120.74174066081534,
,33,0.5,none,,red,green,,413.2964490247975,,,,,0,118,118,68,trial,,,,,,red,0.4132964490247975,0.4166666666666667,2.3086671999999453,0.9975754000006418,4e-05,4e-05,0.03325,0.41624339999998483,0.44997460000013234,1.9996561000007205,2.0329889000004187,2.3086671999999453,2.3086671999999453,0.0,2.3086671999999453,2.5107539000000543,2.9415619000001243,0.632894700000179,0.632894700000179,0.2761,0.11273810718887659,0.09561333141335102,,,,None,,0.033,0.03333333333333333,0.47962644902479745,0.48333333333333334,trial_list_0.5_green.csv,0.48300770000059856,0.5163748000004489,p3_base_01,001,2023-05-02_11h29.43.266,expectation_shapes_perceived_time,2022.2.4,120.74174066081534,
,33,0.5,none,,red,green,,189.1878748050181,,,,,0,119,119,24,trial,,,,,,red,0.1891878748050181,0.19166666666666665,2.3085257000002457,0.9960180999996737,1e-05,1e-05,0.03362,0.191760499999873,0.22481729999981326,2.0001342000005025,2.033183999999892,2.3085257000002457,2.3085257000002457,0.0,2.3085257000002457,2.5083009999998467,3.349926800000503,1.0414011000002574,1.0414011000002574,0.08663,0.039734806768228464,0.142383057586152,,,,None,,0.033,0.03333333333333333,0.2555178748050181,0.2583333333333333,trial_list_0.5_green.csv,0.2587345000001733,0.2919150999996418,p3_base_01,001,2023-05-02_11h29.43.266,expectation_shapes_perceived_time,2022.2.4,120.74174066081534,
,-100,0.5,none,,red,green,,636.4160134587902,,,,,0,120,120,274,trial,,,,,,red,0.6364160134587902,0.6416666666666666,2.308271599999898,0.9982343000001492,0.00011,0.00011,0.03315,0.6415298999991137,0.674756399999751,1.9998119999991104,2.0332644999998593,2.308271599999898,2.308271599999898,0.0,2.308271599999898,2.5080724999997983,3.0249728999997387,0.7167012999998406,0.7167012999998406,0.46398,0.14687821580584806,0.016690706341573644,,,,None,,-0.1,-0.1,0.5030860134587902,0.5083333333333333,trial_list_0.5_green.csv,0.5079829999995127,0.5413881999993464,p3_base_01,001,2023-05-02_11h29.43.266,expectation_shapes_perceived_time,2022.2.4,120.74174066081534,
,-233,0.5,none,,red,green,,768.949267485012,,,,,0,121,121,286,trial,,,,,,red,0.768949267485012,0.775,2.308339700000033,0.997179199999664,4e-05,4e-05,,0.7749039999998786,0.8084524999994755,1.9999585999994451,,2.308339700000033,2.8335081999994145,0.5251684999993813,2.308339700000033,2.50839409999935,3.5747769999998127,1.2664372999997795,0.7412688000003982,1.37476,-0.13652856102974936,-0.05667223288027331,,,,None,,-0.233,-0.23333333333333334,0.5026192674850121,0.5083333333333333,trial_list_0.5_green.csv,0.5083397999997032,0.5416996999992989,p3_base_01,001,2023-05-02_11h29.43.266,expectation_shapes_perceived_time,2022.2.4,120.74174066081534,
,-100,0.5,none,,green,red,,928.9518023943116,,,,,0,122,122,363,trial,,,,,,green,0.9289518023943116,0.9333333333333333,2.308447299999898,0.9974716999995508,4e-05,4e-05,0.03335,0.9335981999993237,0.9669013999991876,1.9999441999998453,2.033791399999245,2.308447299999898,2.308447299999898,0.0,2.308447299999898,2.508678499999405,3.0171063999996477,0.7086590999997497,0.7086590999997497,1.07471,-0.034379788590658114,-0.14377002501547942,,,,None,,-0.1,-0.1,0.7956218023943116,0.8,trial_list_0.5_green.csv,0.8004199999995762,0.8334703999998965,p3_base_01,001,2023-05-02_11h29.43.266,expectation_shapes_perceived_time,2022.2.4,120.74174066081534,
,100,0.5,none,,red,green,,936.895848692822,,,,,0,123,123,208,trial,,,,,,red,0.936895848692822,0.9416666666666667,2.3083708000003753,0.9974363000001176,1e-05,1e-05,0.03306,0.9412938000004942,0.9745788999998695,1.9998358000002554,2.033107899999777,2.3083708000003753,2.483407400000033,0.17503659999965748,2.3083708000003753,2.5086185999998634,3.008298300000206,0.6999274999998306,0.5248909000001731,1.41925,-0.14309269865755464,-0.03709810705936602,,,,None,,0.1,0.1,1.070225848692822,1.075,trial_list_0.5_green.csv,1.0745075000004363,1.1078634000004968,p3_base_01,001,2023-05-02_11h29.43.266,expectation_shapes_perceived_time,2022.2.4,120.74174066081534,
