id,delay,expectation,congruency,trial_num,stim_color,distractor_color,block,targetTimeMs,famLoop.thisRepN,famLoop.thisTrialN,famLoop.thisN,famLoop.thisIndex,trialss.thisRepN,trialss.thisTrialN,trialss.thisN,trialss.thisIndex,isTrial,handMove.started,audioCue2Start.started,handOri,handMove.ended,audioCue2End.started,target_color,expected_target_onset,expected_target_onset_in_frames,fixationPoint.started,fixationPoint.stopped,audCueStart.started,placeholder.started,audCueStart.stopped,target.started,target.stopped,audCueEnd.started,audCueEnd.stopped,responsePointer.started,cueForRep.started,space2pass.started,responseStarted,rtUntillMotionTreshold,feedbackPointer.stopped,actualTime_x_coord,actualTime_y_coord,space2pass.keys,space2pass.rt,responsePointer.stopped,rTAfterMotionTreshold,rtDurationBtwRespMotion,perceivedTime,resp_x_coord,resp_y_coord,expected_delay,expected_delays_frame,expected_distractor,expected_distractor_frame,expBlockFiles,distractor.started,distractor.stopped,participant,session,date,expName,psychopyVersion,frameRate,
,,,,,,,,,0,0,0,0,,,,,fam,1.315865800002939,1.315865800002939,270.0000000000009,3.3074187000020174,3.3074187000020174,,,,,,,,,,,,,,,,,,,,,,,,,,,,,,,,,,,,p4_base_01,001,2023-05-02_15h06.27.648,expectation_shapes_perceived_time,2022.2.4,119.62151751751745,
,,,,,,,,,1,0,1,0,,,,,fam,0.4986462000015308,0.4986462000015308,270.0000000000009,2.4900945000008505,2.4900945000008505,,,,,,,,,,,,,,,,,,,,,,,,,,,,,,,,,,,,p4_base_01,001,2023-05-02_15h06.27.648,expectation_shapes_perceived_time,2022.2.4,119.62151751751745,
,,,,,,,,,2,0,2,0,,,,,fam,0.49762050000208546,0.49762050000208546,270.0000000000009,2.489437900003395,2.489437900003395,,,,,,,,,,,,,,,,,,,,,,,,,,,,,,,,,,,,p4_base_01,001,2023-05-02_15h06.27.648,expectation_shapes_perceived_time,2022.2.4,119.62151751751745,
,,,,,,,,,3,0,3,0,,,,,fam,0.49741680000079214,0.49741680000079214,270.0000000000009,2.488883600002737,2.488883600002737,,,,,,,,,,,,,,,,,,,,,,,,,,,,,,,,,,,,p4_base_01,001,2023-05-02_15h06.27.648,expectation_shapes_perceived_time,2022.2.4,119.62151751751745,
,,,,,,,,,4,0,4,0,,,,,fam,0.4976468000022578,0.4976468000022578,270.0000000000009,2.489247900000919,2.489247900000919,,,,,,,,,,,,,,,,,,,,,,,,,,,,,,,,,,,,p4_base_01,001,2023-05-02_15h06.27.648,expectation_shapes_perceived_time,2022.2.4,119.62151751751745,
,,,,,,,,,5,0,5,0,,,,,fam,0.49724459999924875,0.49724459999924875,270.0000000000009,2.4891036999979406,2.4891036999979406,,,,,,,,,,,,,,,,,,,,,,,,,,,,,,,,,,,,p4_base_01,001,2023-05-02_15h06.27.648,expectation_shapes_perceived_time,2022.2.4,119.62151751751745,
,,,,,,,,,6,0,6,0,,,,,fam,0.4984019999974407,0.4984019999974407,270.0000000000009,2.490253699997993,2.490253699997993,,,,,,,,,,,,,,,,,,,,,,,,,,,,,,,,,,,,p4_base_01,001,2023-05-02_15h06.27.648,expectation_shapes_perceived_time,2022.2.4,119.62151751751745,
,,,,,,,,,7,0,7,0,,,,,fam,0.4983680999976059,0.4983680999976059,270.0000000000009,2.4897452000004705,2.4897452000004705,,,,,,,,,,,,,,,,,,,,,,,,,,,,,,,,,,,,p4_base_01,001,2023-05-02_15h06.27.648,expectation_shapes_perceived_time,2022.2.4,119.62151751751745,
,,,,,,,,,8,0,8,0,,,,,fam,0.4973437999979069,0.4973437999979069,270.0000000000009,2.4889810999993642,2.4889810999993642,,,,,,,,,,,,,,,,,,,,,,,,,,,,,,,,,,,,p4_base_01,001,2023-05-02_15h06.27.648,expectation_shapes_perceived_time,2022.2.4,119.62151751751745,
,,,,,,,,,9,0,9,0,,,,,fam,0.49874049999925774,0.49874049999925774,270.0000000000009,2.490359100000205,2.490359100000205,,,,,,,,,,,,,,,,,,,,,,,,,,,,,,,,,,,,p4_base_01,001,2023-05-02_15h06.27.648,expectation_shapes_perceived_time,2022.2.4,119.62151751751745,
,,,,,,,,,10,0,10,0,,,,,fam,0.4987196000001859,0.4987196000001859,270.0000000000009,2.4903320000012172,2.4903320000012172,,,,,,,,,,,,,,,,,,,,,,,,,,,,,,,,,,,,p4_base_01,001,2023-05-02_15h06.27.648,expectation_shapes_perceived_time,2022.2.4,119.62151751751745,
,,,,,,,,,11,0,11,0,,,,,fam,0.4974709999987681,0.4974709999987681,270.0000000000009,2.488991199999873,2.488991199999873,,,,,,,,,,,,,,,,,,,,,,,,,,,,,,,,,,,,p4_base_01,001,2023-05-02_15h06.27.648,expectation_shapes_perceived_time,2022.2.4,119.62151751751745,
,,,,,,,,,12,0,12,0,,,,,fam,0.49764289999802713,0.49764289999802713,270.0000000000009,2.48923559999821,2.48923559999821,,,,,,,,,,,,,,,,,,,,,,,,,,,,,,,,,,,,p4_base_01,001,2023-05-02_15h06.27.648,expectation_shapes_perceived_time,2022.2.4,119.62151751751745,
,,,,,,,,,13,0,13,0,,,,,fam,0.4969463999987056,0.4969463999987056,270.0000000000009,2.4885049000004074,2.4885049000004074,,,,,,,,,,,,,,,,,,,,,,,,,,,,,,,,,,,,p4_base_01,001,2023-05-02_15h06.27.648,expectation_shapes_perceived_time,2022.2.4,119.62151751751745,
,,,,,,,,,14,0,14,0,,,,,fam,0.4970814000007522,0.4970814000007522,270.0000000000009,2.489091700001154,2.489091700001154,,,,,,,,,,,,,,,,,,,,,,,,,,,,,,,,,,,,p4_base_01,001,2023-05-02_15h06.27.648,expectation_shapes_perceived_time,2022.2.4,119.62151751751745,
,,,,,,,,,15,0,15,0,,,,,fam,0.49725860000035027,0.49725860000035027,270.0000000000009,2.488944000000629,2.488944000000629,,,,,,,,,,,,,,,,,,,,,,,,,,,,,,,,,,,,p4_base_01,001,2023-05-02_15h06.27.648,expectation_shapes_perceived_time,2022.2.4,119.62151751751745,
,,,,,,,,,16,0,16,0,,,,,fam,0.4971253000003344,0.4971253000003344,270.0000000000009,2.4886955000001763,2.4886955000001763,,,,,,,,,,,,,,,,,,,,,,,,,,,,,,,,,,,,p4_base_01,001,2023-05-02_15h06.27.648,expectation_shapes_perceived_time,2022.2.4,119.62151751751745,
,,,,,,,,,17,0,17,0,,,,,fam,0.4971149000011792,0.4971149000011792,270.0000000000009,2.4891549999993003,2.4891549999993003,,,,,,,,,,,,,,,,,,,,,,,,,,,,,,,,,,,,p4_base_01,001,2023-05-02_15h06.27.648,expectation_shapes_perceived_time,2022.2.4,119.62151751751745,
,,,,,,,,,18,0,18,0,,,,,fam,0.49866580000161775,0.49866580000161775,270.0000000000009,2.4896919000020716,2.4896919000020716,,,,,,,,,,,,,,,,,,,,,,,,,,,,,,,,,,,,p4_base_01,001,2023-05-02_15h06.27.648,expectation_shapes_perceived_time,2022.2.4,119.62151751751745,
,,,,,,,,,19,0,19,0,,,,,fam,0.49724729999798,0.49724729999798,270.0000000000009,2.488664999997127,2.488664999997127,,,,,,,,,,,,,,,,,,,,,,,,,,,,,,,,,,,,p4_base_01,001,2023-05-02_15h06.27.648,expectation_shapes_perceived_time,2022.2.4,119.62151751751745,
,,,,,,,,,,,,,0,0,0,0,test,,,,,,green,0.6194587905020652,0.6166666666666667,2.2917225000019243,0.9980226000006951,3.0300001526484266e-05,3e-05,0.033496700001705904,0.6169165999999677,0.6503013000001374,2.000539300002856,2.0338706000002276,2.2917225000019243,2.2917225000019243,2.5918999000023177,5.875279500000033,3.583556999998109,20.133556300002965,0.13753514829494395,-0.05418369625614049,space,17.534379799999442,,,,,,,,,,,,,,p4_base_01,001,2023-05-02_15h06.27.648,expectation_shapes_perceived_time,2022.2.4,119.62151751751745,
,,,,,,,,,,,,,1,0,1,0,test,,,,,,red,0.6153536309575838,0.6166666666666667,2.2914601000011317,0.9981169999991835,3.189999915775843e-05,3e-05,,0.6170168999997259,0.650466499999311,2.0002989000022353,,2.2914601000011317,2.2914601000011317,2.591626199999155,,,25.4764952000005,0.1382224842475133,-0.052405484492902665,space,22.880213399999775,,,,,,,,,,,,,,p4_base_01,001,2023-05-02_15h06.27.648,expectation_shapes_perceived_time,2022.2.4,119.62151751751745,
,,,,,,,,,,,,,2,0,2,0,test,,,,,,red,0.5922867840421105,0.5916666666666667,2.291625900001236,0.9932712000008905,3.110000034212135e-05,3e-05,0.033150499999464955,0.5915834000006726,0.6250690999986546,1.9999773999988975,2.0332484999998996,2.291625900001236,2.291625900001236,2.5913045999986934,4.741457899999659,2.4498319999984233,14.825044100001833,0.14165403758519984,-0.042260189212788804,space,12.229136400001153,14.825044100001833,12.533418200000597,10.083586200002173,0.18443,0.08093746218026268,0.12369687616228826,,,,,,,,p4_base_01,001,2023-05-02_15h06.27.648,expectation_shapes_perceived_time,2022.2.4,119.62151751751745,
,,,,,,,,,,,,,3,0,3,0,test,,,,,,red,0.3347763880079897,0.3333333333333333,2.29156950000106,0.9968152000001282,3.189999915775843e-05,3e-05,,0.3335722000010719,0.3668786000016553,1.99992199999906,,2.29156950000106,2.29156950000106,2.5914257000004,3.7413634000004095,1.4497938999993494,10.049706400001014,0.12835267598715472,0.07333062473091578,space,7.451750299998821,10.049706400001014,7.758136899999954,6.308343000000605,0.34518,0.1306811503403492,0.06909578063972485,,,,,,,,p4_base_01,001,2023-05-02_15h06.27.648,expectation_shapes_perceived_time,2022.2.4,119.62151751751745,
,,,,,,,,,,,,,4,0,4,0,test,,,,,,green,0.7239676915980829,0.725,2.292311899997003,0.9985955000011018,3.179999839630909e-05,3e-05,,0.7247408000002906,0.7580378999991808,1.999750099999801,,2.292311899997003,2.292311899997003,2.591649599999073,3.5084124999993946,1.2161006000023917,25.908467199998995,0.11271663564570525,-0.09563864284484204,space,23.31471000000238,25.908467199998995,23.616155300001992,22.4000546999996,0.39981,0.14056115207148284,0.045764096023273484,,,,,,,,p4_base_01,001,2023-05-02_15h06.27.648,expectation_shapes_perceived_time,2022.2.4,119.62151751751745,
,,,,,,,,,,,,,5,0,5,0,test,,,,,,red,0.15837193797511984,0.15833333333333333,2.2918127000011737,0.9970128999993904,2.470000254106708e-05,2e-05,0.03321470000082627,0.15811129999929108,0.1919281000009505,2.00033280000207,2.033433700002206,2.2918127000011737,2.2918127000011737,2.59163880000051,2.4000884000015503,0.10827570000037667,59.39189190000252,0.07055103747617268,0.12990127431063023,space,56.79775190000146,59.39189190000252,57.100079200001346,56.99180350000097,0.98193,0.008385538404473102,-0.14758547591872662,,,,,,,,p4_base_01,001,2023-05-02_15h06.27.648,expectation_shapes_perceived_time,2022.2.4,119.62151751751745,
,,,,,,,,,,,,,6,0,6,0,test,,,,,,green,0.22985214810930168,0.225,2.2910833999994793,0.9972221000025456,5.94000011915341e-05,6e-05,,0.2242617000010796,0.25766619999922113,1.9991321000015887,,2.2910833999994793,2.2910833999994793,2.5909105999999156,3.624032299998362,1.3329488999988826,15.999215899999399,0.09770592567384971,0.11092944624718037,space,13.405776499999774,15.999215899999399,13.70813249999992,12.375183600001037,0.35664,0.1330831905990196,0.06434791633359191,,,,,,,,p4_base_01,001,2023-05-02_15h06.27.648,expectation_shapes_perceived_time,2022.2.4,119.62151751751745,
,,,,,,,,,,,,,7,0,7,0,test,,,,,,red,1.5829956231667985,1.575,2.2919648999995843,0.9964770000005956,3.1600000511389226e-05,3e-05,,1.5755110000027344,1.6087234000005992,1.9999956999999995,,2.2919648999995843,2.2919648999995843,2.5916490000017802,3.400142800001049,1.1081779000014649,8.908191500002431,-0.14282705654923883,0.038108028996137445,space,6.310073700002249,8.908191500002431,6.616226600002847,5.508048700001382,0.49682,0.14781611886391258,0.0014781611886391256,,,,,,,,p4_base_01,001,2023-05-02_15h06.27.648,expectation_shapes_perceived_time,2022.2.4,119.62151751751745,
,,,,,,,,,,,,,8,0,8,0,test,,,,,,green,0.8056692558857111,0.8,2.291624400000728,0.997496099997079,3.170000127283856e-05,3e-05,0.03321539999888046,0.7999488999994355,0.8332283999989158,1.999927299999399,2.0332564000018465,2.291624400000728,2.291624400000728,2.5911765999990166,5.924625800002104,3.633001400001376,12.966221300001052,0.08474482303339208,-0.1211202085761455,space,10.369117400001414,12.966221300001052,10.674596900000324,7.041595499998948,1.88926,-0.05039502362167299,0.13896809544158312,,,,,,,,p4_base_01,001,2023-05-02_15h06.27.648,expectation_shapes_perceived_time,2022.2.4,119.62151751751745,
,,,,,,,,,,,,,9,0,9,0,test,,,,,,red,0.43706560653748183,0.43333333333333335,2.2915823000003,0.9982411000019056,2.8399997972883284e-05,3e-05,0.03322249999837368,0.4330448000000615,0.46652759999778937,1.9997184999992896,2.0330553999992844,2.2915823000003,2.2915823000003,2.5914599999996426,2.749696999999287,0.4581146999989869,8.183220099999744,0.1449436310764488,0.0290367657783064,space,5.5865669999984675,8.183220099999744,5.891637799999444,5.433523100000457,1.55257,-0.1458122115556408,0.02430203525927347,,,,,,,,p4_base_01,001,2023-05-02_15h06.27.648,expectation_shapes_perceived_time,2022.2.4,119.62151751751745,
,,,,,,,,,,,,,10,0,10,0,test,,,,,,green,0.24247268128387126,0.24166666666666667,2.299746500000765,0.9972436999996717,5.980000059935264e-05,6e-05,,0.2500206000004255,0.2831694000014977,1.9996501999994507,,2.299746500000765,2.299746500000765,2.5997304000011354,3.8492455999985395,1.5494990999977745,7.432915699999285,0.10202618056379058,0.10696938083421219,space,4.826786900001025,7.432915699999285,5.13316919999852,3.583670100000745,0.46042,0.14668199812023264,0.01833524976502908,,,,,,,,p4_base_01,001,2023-05-02_15h06.27.648,expectation_shapes_perceived_time,2022.2.4,119.62151751751745,
,,,,,,,,,,,,,11,0,11,0,test,,,,,,red,0.7887939974358074,0.7833333333333333,2.291793399999733,0.996815800001059,3.170000127283856e-05,3e-05,,0.7839036000004853,0.8170728000004601,2.0002256000007037,2.033674099999189,2.291793399999733,2.291793399999733,2.5918090000013763,3.6499500999998418,1.3581567000001087,6.675113799999963,0.09104396172193226,-0.11645937914339595,space,4.081753999998909,6.675113799999963,4.38332040000023,3.025163700000121,0.70066,0.11941049284283953,-0.08713738666909912,,,,,,,,p4_base_01,001,2023-05-02_15h06.27.648,expectation_shapes_perceived_time,2022.2.4,119.62151751751745,
,,,,,,,,,,,,,12,0,12,0,test,,,,,,red,1.1770833521451924,1.175,2.2917686000000685,0.9961333999999624,3.1600000511389226e-05,3e-05,0.033223300000827294,1.1748711000000185,1.2081193000012718,2.0001176000005216,2.0334245999983978,2.2917686000000685,2.2917686000000685,2.5914864000005764,3.7411538000014843,1.4493852000014158,7.608081900001707,-0.07806085034823156,-0.125532042122324,space,5.01504130000103,7.608081900001707,5.316313300001639,3.866928100000223,0.98554,0.006712319794504026,-0.14767103547908858,,,,,,,,p4_base_01,001,2023-05-02_15h06.27.648,expectation_shapes_perceived_time,2022.2.4,119.62151751751745,
,,,,,,,,,,,,,13,0,13,0,test,,,,,,green,1.1986684671114474,1.1916666666666667,2.291957599998568,0.9965388999989955,2.7499998395796865e-05,3e-05,0.033547099999850616,1.19206000000122,1.2253221999999369,2.0002138999989256,2.0336931999991066,2.291957599998568,2.291957599998568,2.5918774999991,2.7001897000009194,0.4082321000023512,8.133560999998735,-0.0863874518333781,-0.11995415008337854,space,5.534511199999542,8.133560999998735,5.841603400000167,5.433371299997816,1.43648,-0.14488992423553676,-0.029303580182468113,,,,,,,,p4_base_01,001,2023-05-02_15h06.27.648,expectation_shapes_perceived_time,2022.2.4,119.62151751751745,
,,,,,,,,,,,,,14,0,14,0,test,,,,,,red,0.22180922709965223,0.225,2.2922722000002977,0.9971741999979713,3.0400002287933603e-05,3e-05,0.033404400001018075,0.22488330000123824,0.25827420000132406,2.000646600001346,,2.2922722000002977,2.2922722000002977,2.5918683000018063,3.4669492000030004,1.1746770000027027,8.175228899999638,0.09487211654058973,0.11336256639472608,space,5.5775604999980715,8.175228899999638,5.88295669999934,4.708279699996638,0.64316,0.13312270335995696,-0.06426613265653094,,,,,,,,p4_base_01,001,2023-05-02_15h06.27.648,expectation_shapes_perceived_time,2022.2.4,119.62151751751745,
,,,,,,,,,,,,,15,0,15,0,test,,,,,,green,0.5995826305281727,0.6,2.2915905000008934,0.9970462000019324,3.239999932702631e-05,3e-05,0.03351309999925434,0.5998289999988629,0.633076499998424,2.000265999999101,2.0339095999988785,2.2915905000008934,2.2915905000008934,2.591553300000669,4.083216499999253,1.7916259999983595,6.6913310999989335,0.14064828689391573,-0.04549559704297432,space,4.097902199999226,6.6913310999989335,4.39974059999804,2.6081145999996806,0.44978,0.14598758678082158,0.023225297896948886,,,,,,,,p4_base_01,001,2023-05-02_15h06.27.648,expectation_shapes_perceived_time,2022.2.4,119.62151751751745,
,,,,,,,,,,,,,16,0,16,0,test,,,,,,green,1.801550397401166,1.8,2.291528100002324,0.9987352999996801,3.139999898849055e-05,3e-05,0.033196500000485685,1.8001872000022558,1.8333963000004587,1.9999089000011736,2.0332533000000694,2.291528100002324,2.291528100002324,2.5915246000004117,2.741409800000838,0.4498816999985138,6.675158099998953,-0.08630495296738981,0.12001352027911923,space,4.078314900001715,6.675158099998953,4.383629999996629,3.933748299998115,0.87155,0.058046122553805334,-0.13595012913917565,,,,,,,,p4_base_01,001,2023-05-02_15h06.27.648,expectation_shapes_perceived_time,2022.2.4,119.62151751751745,
,,,,,,,,,,,,,17,0,17,0,test,,,,,,green,0.43340147514277044,0.43333333333333335,2.2918408000005,0.9964481000024534,1.920000067912042e-05,2e-05,,0.4337120000018331,0.46688130000256933,2.000906799999939,,2.2918408000005,2.2918408000005,2.5919843000010587,3.341847700001381,1.0500069000008807,6.1833055000024615,0.1445997872165581,0.03070328147635105,space,3.5878139000014926,6.1833055000024615,3.8914647000019613,2.8414578000010806,0.51674,0.14761919216631908,-0.007769431166648373,,,,,,,,p4_base_01,001,2023-05-02_15h06.27.648,expectation_shapes_perceived_time,2022.2.4,119.62151751751745,
,,,,,,,,,,,,,18,0,18,0,test,,,,,,red,0.5084357027363164,0.5083333333333333,2.2915606000024127,0.9976072999997996,3.870000000461005e-05,4e-05,0.03336450000279001,0.5082856000008178,0.5417291000012483,2.0000925000022107,2.033091500001319,2.2915606000024127,2.2915606000024127,2.591772100000526,2.616574600000604,0.32501399999819114,6.908291400002781,0.14777160195377304,-0.003917092353467063,space,4.31661399999939,6.908291400002781,4.616730800000369,4.2917168000021775,0.31375,0.12323306754713317,0.08164190724997572,,,,,,,,p4_base_01,001,2023-05-02_15h06.27.648,expectation_shapes_perceived_time,2022.2.4,119.62151751751745,
,,,,,,,,,,,,,19,0,19,0,test,,,,,,green,1.2409898085436326,1.2333333333333334,2.29165920000014,0.9969815000004019,3.1600000511389226e-05,3e-05,0.033162599997012876,1.2328592999983812,1.2662457000005816,1.999951499998133,2.033466499997303,2.29165920000014,2.29165920000014,2.591476800000237,3.6833471999998437,1.3916879999997036,5.3998413999979675,-0.10152674961888197,-0.10744351571088306,space,2.8084161000006134,5.3998413999979675,3.1081821999978274,1.7164941999981238,0.76927,0.09801219687199945,-0.11065893195225744,,,,,,,,p4_base_01,001,2023-05-02_15h06.27.648,expectation_shapes_perceived_time,2022.2.4,119.62151751751745,
,,,,,,,,,0,0,0,0,,,,,fam,0.5566838000013377,0.5566838000013377,270.0000000000009,2.548557300000539,2.548557300000539,,,,,,,,,,,,,,,,,,,,,,,,,,,,,,,,,,,,p4_base_01,001,2023-05-02_15h06.27.648,expectation_shapes_perceived_time,2022.2.4,119.62151751751745,
,,,,,,,,,1,0,1,0,,,,,fam,0.4974225999976625,0.4974225999976625,270.0000000000009,2.4891259999967588,2.4891259999967588,,,,,,,,,,,,,,,,,,,,,,,,,,,,,,,,,,,,p4_base_01,001,2023-05-02_15h06.27.648,expectation_shapes_perceived_time,2022.2.4,119.62151751751745,
,,,,,,,,,2,0,2,0,,,,,fam,0.49740490000112914,0.49740490000112914,270.0000000000009,2.4890634000003047,2.4890634000003047,,,,,,,,,,,,,,,,,,,,,,,,,,,,,,,,,,,,p4_base_01,001,2023-05-02_15h06.27.648,expectation_shapes_perceived_time,2022.2.4,119.62151751751745,
,,,,,,,,,3,0,3,0,,,,,fam,0.49636610000015935,0.49636610000015935,270.0000000000009,2.4879868000025454,2.4879868000025454,,,,,,,,,,,,,,,,,,,,,,,,,,,,,,,,,,,,p4_base_01,001,2023-05-02_15h06.27.648,expectation_shapes_perceived_time,2022.2.4,119.62151751751745,
,,,,,,,,,4,0,4,0,,,,,fam,0.49772650000159047,0.49772650000159047,270.0000000000009,2.4893413000027067,2.4893413000027067,,,,,,,,,,,,,,,,,,,,,,,,,,,,,,,,,,,,p4_base_01,001,2023-05-02_15h06.27.648,expectation_shapes_perceived_time,2022.2.4,119.62151751751745,
,,,,,,,,,,,,,0,0,0,0,testSingleStim,,,,,,green,1.1525929828588588,1.15,0.044054800000594696,0.9971966000011889,3.2100000680657104e-05,3e-05,0.033440299997892,1.1501103999980842,1.1836274999986927,1.9998771999999008,,2.291693999999552,2.291693999999552,2.606820400000288,2.606820400000288,0.3151264000007359,,,,None,,4.633308000000397,2.3416140000008454,2.0264876000001095,0.0461,0.021331951376753235,0.1462762380120222,,,,,,,,p4_base_01,001,2023-05-02_15h06.27.648,expectation_shapes_perceived_time,2022.2.4,119.62151751751745,
,,,,,,,,,,,,,1,0,1,0,testSingleStim,,,,,,green,1.1481645797581668,1.1416666666666666,0.00502260000212118,0.9950042000018584,4.059999992023222e-05,4e-05,0.03292279999732273,1.1414232999995875,1.1747324999996636,2.0003848999986076,2.0337356999989424,2.2919774999973015,2.2919774999973015,2.591632600000594,2.566381499997078,0.2744039999997767,,,,None,,4.24113109999962,1.9491536000023189,1.6747496000025421,1.32181,-0.1252601675996367,-0.07849637169577232,,,,,,,,p4_base_01,001,2023-05-02_15h06.27.648,expectation_shapes_perceived_time,2022.2.4,119.62151751751745,
,,,,,,,,,,,,,2,0,2,0,testSingleStim,,,,,,red,0.5008730068814747,0.5,0.004617299997335067,0.9956863000006706,3.220000144210644e-05,3e-05,0.03330600000117556,0.4997369000011531,0.5330315999999584,2.0007065999998304,2.0338979000007384,2.2921110000024782,2.2921110000024782,2.5913599000014074,2.9683755000005476,0.6762644999980694,,,,None,,4.8249246000013954,2.532813599998917,1.8565491000008478,1.56787,-0.1444764719048484,0.0312784114433177,,,,,,,,p4_base_01,001,2023-05-02_15h06.27.648,expectation_shapes_perceived_time,2022.2.4,119.62151751751745,
,,,,,,,,,,,,,3,0,3,0,testSingleStim,,,,,,red,1.6497091671032449,1.6416666666666666,0.004643699998268858,0.9956716999986384,3.18000020342879e-05,3e-05,0.033174700001836754,1.641503200000443,1.6748465000018768,1.9997175999997125,,2.2916403000017453,2.2916403000017453,2.5915975000025355,2.9164784000022337,0.6248381000004883,,,,None,,4.249711600001319,1.958071299999574,1.3332331999990856,1.76097,-0.10086267835394643,0.10806715537922831,,,,,,,,p4_base_01,001,2023-05-02_15h06.27.648,expectation_shapes_perceived_time,2022.2.4,119.62151751751745,
,,,,,,,,,,,,,4,0,4,0,testSingleStim,,,,,,green,0.2484839895625661,0.25,0.004605499998433515,0.995487399999547,3.5099998058285564e-05,4e-05,,0.2500036999990698,0.28329649999795947,2.0004846999981964,,2.291858199998387,2.291858199998387,2.5918070999978227,2.8918809999995574,0.6000228000011703,,,,None,,4.375114200000098,2.083256000001711,1.4832332000005408,1.3196,-0.12471300193397643,-0.07936281941253046,,,,,,,,p4_base_01,001,2023-05-02_15h06.27.648,expectation_shapes_perceived_time,2022.2.4,119.62151751751745,
,,,,,,,,,,,,,5,0,5,0,testSingleStim,,,,,,red,1.3839521443412366,1.3833333333333333,0.004735000002256129,0.997382400000788,1.3799999578623101e-05,1e-05,0.03304019999995944,1.3832805999991251,1.4166986999989604,2.0000749999999243,2.0335536999991746,2.291641300002084,2.291641300002084,2.5920235000012326,3.0669349000017974,0.7752935999997135,,,,None,,4.141705099998944,1.8500637999968603,1.0747701999971468,1.16525,-0.07334099906011632,-0.12834674835520357,,,,,,,,p4_base_01,001,2023-05-02_15h06.27.648,expectation_shapes_perceived_time,2022.2.4,119.62151751751745,
,,,,,,,,,,,,,6,0,6,0,testSingleStim,,,,,,green,0.9106708189536543,0.9083333333333333,0.004447899998922367,0.997235399998317,1.6699999832781032e-05,2e-05,0.033133699998870725,0.9091265999995812,0.9419476999973995,1.9998607999987144,2.033236499999475,2.291225499997381,2.291225499997381,2.5913942999977735,2.9079275999974925,0.6167021000001114,,,,None,,4.1745920999965165,1.8833665999991354,1.266664499999024,1.11302,-0.05139194483215483,-0.13860251788066,,,,,,,,p4_base_01,001,2023-05-02_15h06.27.648,expectation_shapes_perceived_time,2022.2.4,119.62151751751745,
,,,,,,,,,,,,,7,0,7,0,testSingleStim,,,,,,green,1.5239598111624413,1.5166666666666666,0.004593000001477776,0.998147100002825,7.019999975454994e-05,7e-05,,1.5161055000025954,1.5494843000014953,1.999261100001604,,2.290981100002682,2.290981100002682,2.5910958999993454,3.040865800001484,0.7498846999988018,,,,None,,4.199083999999857,1.908102899997175,1.1582181999983732,1.35694,-0.13314384328321882,-0.06422232440719966,,,,,,,,p4_base_01,001,2023-05-02_15h06.27.648,expectation_shapes_perceived_time,2022.2.4,119.62151751751745,
,,,,,,,,,,,,,8,0,8,0,testSingleStim,,,,,,red,1.2190680606668665,1.2166666666666666,0.0030239000006986316,0.9981140999989293,3.070000093430281e-05,3e-05,,1.2168870999994397,1.2502557000007073,2.0000713000008545,,2.2917938999999024,2.2917938999999024,2.5917994000010367,3.383333900001162,1.0915400000012596,,,,None,,4.708334599999944,2.4165407000000414,1.3250006999987818,1.49678,-0.14781596881584796,-0.0014930905940994741,,,,,,,,p4_base_01,001,2023-05-02_15h06.27.648,expectation_shapes_perceived_time,2022.2.4,119.62151751751745,
,,,,,,,,,,,,,9,0,9,0,testSingleStim,,,,,,green,0.16511675080167543,0.16666666666666666,0.004760100000567036,0.9956915000002482,3.279999873484485e-05,3e-05,,0.16664870000022347,0.19989070000156062,2.000079299999925,,2.291532700000971,2.291532700000971,2.591875499998423,3.474761599998601,1.18322889999763,,,,None,,4.866768799998681,2.57523609999771,1.39200720000008,1.59525,-0.14125407702679466,0.04357838546571324,,,,,,,,p4_base_01,001,2023-05-02_15h06.27.648,expectation_shapes_perceived_time,2022.2.4,119.62151751751745,
,,,,,,,,,,,,,10,0,10,0,testSingleStim,,,,,,red,0.9163827606127962,0.9166666666666666,0.0046265000019047875,0.994828700000653,0.00011319999975967221,0.00011,0.033298099999228725,0.9171454999996058,0.9505557999982557,1.9999236000003293,2.0333379000003333,2.291717099997186,2.291717099997186,2.5914806999971916,2.99979969999913,0.7080826000019442,,,,None,,4.241603499998746,1.94988640000156,1.2418037999996159,1.27084,-0.11114254021242968,-0.09746345834013063,,,,,,,,p4_base_01,001,2023-05-02_15h06.27.648,expectation_shapes_perceived_time,2022.2.4,119.62151751751745,
,,,,,,,,,,,,,11,0,11,0,testSingleStim,,,,,,green,0.15542597504290814,0.15833333333333333,0.003939499998523388,0.9963482999992266,3.2000003557186574e-05,3e-05,0.033333900002617156,0.15844200000356068,0.19182120000186842,2.000213300001633,2.033582200001547,2.291787000001932,2.291787000001932,2.5916056000023673,3.0030450000012934,0.7112579999993613,,,,None,,3.8000040000006265,1.5082169999986945,0.7969589999993332,0.97556,0.011337545630361493,-0.14738809319469942,,,,,,,,p4_base_01,001,2023-05-02_15h06.27.648,expectation_shapes_perceived_time,2022.2.4,119.62151751751745,
,,,,,,,,,,,,,12,0,12,0,testSingleStim,,,,,,green,0.8302530315193389,0.825,0.0035776999975496437,0.9960278999969887,5.120000059832819e-05,5e-05,0.033295599998382386,0.8252027000016824,0.8585286000015913,1.9998218000000634,2.0332564000018465,2.291744699999981,2.291744699999981,2.591382499998872,3.3831097000002046,1.0913650000002235,,,,None,,4.48340029999963,2.191655599999649,1.1002905999994255,1.56769,-0.14449395258881528,0.03119755794531239,,,,,,,,p4_base_01,001,2023-05-02_15h06.27.648,expectation_shapes_perceived_time,2022.2.4,119.62151751751745,
,,,,,,,,,,,,,13,0,13,0,testSingleStim,,,,,,green,0.1791650353777324,0.175,0.00442040000052657,0.9958375999995042,3.4199998481199145e-05,3e-05,,0.17454459999862593,0.20795969999744557,1.9996629999986908,,2.291134899998724,2.291134899998724,2.5913774999971793,3.1080437999989954,0.8169089000002714,,,,None,,3.8665738999989117,1.5754390000001877,0.7585300999999163,1.58985,-0.14197400590601936,0.04117246171274561,,,,,,,,p4_base_01,001,2023-05-02_15h06.27.648,expectation_shapes_perceived_time,2022.2.4,119.62151751751745,
,,,,,,,,,,,,,14,0,14,0,testSingleStim,,,,,,green,1.6171484028048437,1.6083333333333334,0.00454610000087996,0.9951954999996815,3.189999915775843e-05,3e-05,0.03329400000075111,1.608679699998902,1.641775799998868,2.0000737000009394,2.033430600000429,2.2915061000021524,2.2915061000021524,2.591510300000664,2.7831960000003164,0.49168989999816404,,,,None,,3.9666885000006005,1.675182399998448,1.183492500000284,1.25232,-0.10528717204389323,-0.10376127099977886,,,,,,,,p4_base_01,001,2023-05-02_15h06.27.648,expectation_shapes_perceived_time,2022.2.4,119.62151751751745,
,,,,,,,,,,,,,15,0,15,0,testSingleStim,,,,,,red,0.3132500153513941,0.30833333333333335,0.0045702999996137805,0.9952004999977362,3.740000101970509e-05,4e-05,0.033317299999907846,0.30831100000068545,0.34162239999932353,1.9999984000023687,2.0332811000007496,2.291424700000789,2.291424700000789,2.5914484999993874,2.774901000000682,0.48347629999989294,,,,None,,3.9415365000022575,1.6501118000014685,1.1666355000015756,1.36555,-0.1348317690661869,-0.060598547894915464,,,,,,,,p4_base_01,001,2023-05-02_15h06.27.648,expectation_shapes_perceived_time,2022.2.4,119.62151751751745,
,,,,,,,,,,,,,16,0,16,0,testSingleStim,,,,,,green,0.30259252011794624,0.3,0.0044512999993457925,0.9967700000015611,3.18000020342879e-05,3e-05,0.03309870000157389,0.29961610000100336,0.33293720000074245,1.9998754000007466,2.032979499999783,2.291046800000913,2.291046800000913,2.591369100002339,2.937991900002089,0.6469451000011759,,,,None,,3.74152000000322,1.4504732000023068,0.803528100001131,1.46978,-0.14715763443536106,-0.014015012803367718,,,,,,,,p4_base_01,001,2023-05-02_15h06.27.648,expectation_shapes_perceived_time,2022.2.4,119.62151751751745,
,,,,,,,,,,,,,17,0,17,0,testSingleStim,,,,,,red,1.3859289048824925,1.3833333333333333,0.004472699998586904,0.9955723999992188,2.8899998142151162e-05,3e-05,0.032993500000884524,1.3832297000008111,1.416311199998745,1.9994866999986698,2.032973499997752,2.2912982999987435,2.2912982999987435,2.591060499999003,2.6911012999989907,0.39980300000024727,,,,None,,3.5997870999999577,1.3084888000012143,0.908685800000967,1.2426,-0.10206854808894857,-0.10692895514080328,,,,,,,,p4_base_01,001,2023-05-02_15h06.27.648,expectation_shapes_perceived_time,2022.2.4,119.62151751751745,
,,,,,,,,,,,,,18,0,18,0,testSingleStim,,,,,,red,0.5251809812102513,0.525,0.004616900001565227,0.995921100002306,3.2100000680657104e-05,3e-05,0.03327210000134073,0.524973300001875,0.5584328000004462,2.0001531000016257,2.033603600000788,2.29181299999982,2.29181299999982,2.5916533000017807,2.8001364000010653,0.5083234000012453,,,,None,,3.6000887000009243,1.3082757000011043,0.799952299999859,1.59105,-0.1418167753211935,0.04171081627093926,,,,,,,,p4_base_01,001,2023-05-02_15h06.27.648,expectation_shapes_perceived_time,2022.2.4,119.62151751751745,
,,,,,,,,,,,,,19,0,19,0,testSingleStim,,,,,,red,0.24569864710851924,0.24166666666666667,0.00484149999829242,0.9969203999971796,3.18000020342879e-05,3e-05,0.033554699999513105,0.24173770000197692,0.27508030000171857,1.99996850000025,2.0333924000005936,2.2921829000006255,2.2921829000006255,2.5921680000028573,2.8500912000017706,0.5579083000011451,,,,None,,4.388976800000819,2.0967939000001934,1.5388855999990483,1.59047,-0.14189269974013335,0.041451799924083904,,,,,,,,p4_base_01,001,2023-05-02_15h06.27.648,expectation_shapes_perceived_time,2022.2.4,119.62151751751745,
,,,,,,,,,,,,,20,0,20,0,testSingleStim,,,,,,red,0.15663717182994716,0.15833333333333333,0.0044153000017104205,0.9923745000014605,7.120000009308569e-05,7e-05,,0.1582194000002346,0.19158690000040224,2.0002229000019724,,2.291880900000251,2.291880900000251,2.5916825000022072,3.0495696000034513,0.7576887000032002,,,,None,,4.3834658000014315,2.0915849000011804,1.3338961999979801,1.02096,-0.009725488134081032,-0.14750323670022897,,,,,,,,p4_base_01,001,2023-05-02_15h06.27.648,expectation_shapes_perceived_time,2022.2.4,119.62151751751745,
,,,,,,,,,,,,,21,0,21,0,testSingleStim,,,,,,red,1.8389278438841308,1.8333333333333333,0.004612199998518918,0.9974899999979243,5.2999999752501026e-05,5e-05,0.03316570000242791,1.833213000001706,1.8665896000020439,1.9999072999999044,2.033228500000405,2.291420699999435,2.291420699999435,2.590979500000685,2.88253750000149,0.5911168000020552,,,,None,,5.041173300000082,2.7497526000006474,2.158635799998592,1.39358,-0.1396386493010296,-0.04850605712562081,,,,,,,,p4_base_01,001,2023-05-02_15h06.27.648,expectation_shapes_perceived_time,2022.2.4,119.62151751751745,
,,,,,,,,,,,,,22,0,22,0,testSingleStim,,,,,,red,1.5783488254132612,1.575,0.004616099999111611,0.9954981999981101,4.020000051241368e-05,4e-05,0.03338200000143843,1.5748948000000382,1.6080389000017021,1.9997249000007287,2.033028199999535,2.2922042999998666,2.2922042999998666,2.5917059000021254,2.7914928999998665,0.49928859999999986,,,,None,,4.441371299999446,2.1491669999995793,1.6498783999995794,1.80845,-0.08368395955419153,0.12185559022803327,,,,,,,,p4_base_01,001,2023-05-02_15h06.27.648,expectation_shapes_perceived_time,2022.2.4,119.62151751751745,
,,,,,,,,,,,,,23,0,23,0,testSingleStim,,,,,,green,1.5012605635909178,1.5,0.0039000000033411197,0.9961887000026763,4.059999992023222e-05,4e-05,0.0337364000006346,1.4997505000028468,1.533187100001669,2.000547900002857,2.033783000002586,2.2920954000001075,2.2920954000001075,2.5919605000017327,2.825394999999844,0.5332995999997365,,,,None,,4.099929300002259,1.8078339000021515,1.274534300002415,0.09366,0.042869910947345095,0.14147070612623883,,,,,,,,p4_base_01,001,2023-05-02_15h06.27.648,expectation_shapes_perceived_time,2022.2.4,119.62151751751745,
,,,,,,,,,,,,,24,0,24,0,testSingleStim,,,,,,red,0.7728723469388743,0.7666666666666666,0.004463599998416612,0.9974446999985958,3.189999915775843e-05,3e-05,0.033402299999579554,0.7667800999988685,0.8001798999976018,2.000239299999521,2.0335439999980736,2.2917052999982843,2.2917052999982843,2.592005499998777,3.0333112999978766,0.7416059999995923,,,,None,,4.241627299998072,1.9499219999997877,1.2083160000001953,1.84947,-0.0673300318792399,0.1315996077639689,,,,,,,,p4_base_01,001,2023-05-02_15h06.27.648,expectation_shapes_perceived_time,2022.2.4,119.62151751751745,
,,,,,,,,,,,,,25,0,25,0,testSingleStim,,,,,,green,1.4987612531101295,1.4916666666666667,0.00469130000055884,0.995070000000851,3.179999839630909e-05,3e-05,,1.4923515999980737,1.5254290999982913,1.9999843000005058,,2.2915959999991173,2.2915959999991173,2.591513899998972,3.1414851999979874,0.84988919999887,,,,None,,4.450120699999388,2.158524700000271,1.308635500001401,1.76617,-0.0990840670125752,0.10970021704963684,,,,,,,,p4_base_01,001,2023-05-02_15h06.27.648,expectation_shapes_perceived_time,2022.2.4,119.62151751751745,
,,,,,,,,,,,,,26,0,26,0,testSingleStim,,,,,,red,0.7011555914178139,0.7,0.0048443000014231075,0.9948285999998916,3.189999915775843e-05,3e-05,,0.6994620999976178,0.7328743999969447,2.000471399998787,,2.2911647999972047,2.2911647999972047,2.5913418999989517,2.974657799997658,0.6834930000004533,,,,None,,4.9747637000000395,2.683598900002835,2.0001059000023815,1.22959,-0.09761317988870644,-0.11101106732441124,,,,,,,,p4_base_01,001,2023-05-02_15h06.27.648,expectation_shapes_perceived_time,2022.2.4,119.62151751751745,
,,,,,,,,,,,,,27,0,27,0,testSingleStim,,,,,,green,1.1516836465020504,1.15,0.0044304000002739485,0.9951822000002721,1.6500001947861165e-05,2e-05,0.03327970000100322,1.1499476999997569,1.1830844000032812,1.9999585000005027,2.0335967000028177,2.291407100001379,2.291407100001379,2.5916892000022926,3.7414937000030477,1.4500866000016686,,,,None,,4.949627300000429,2.6582201999990502,1.2081335999973817,1.43904,-0.14512122404407668,-0.028135747518749567,,,,,,,,p4_base_01,001,2023-05-02_15h06.27.648,expectation_shapes_perceived_time,2022.2.4,119.62151751751745,
,,,,,,,,,,,,,28,0,28,0,testSingleStim,,,,,,green,1.717640716150584,1.7083333333333333,0.0036323000022093765,0.9981757000023208,4.029999763588421e-05,4e-05,0.033402400000341004,1.7082768000000215,1.7414122999980464,1.9998003000000608,2.033215499999642,2.2912953999984893,2.2912953999984893,2.5915266999982123,2.458137899997382,0.1668424999988929,,,,None,,4.741426099997625,2.4501306999991357,2.283288200000243,1.32253,-0.1254369212450826,-0.0782136097175221,,,,,,,,p4_base_01,001,2023-05-02_15h06.27.648,expectation_shapes_perceived_time,2022.2.4,119.62151751751745,
,,,,,,,,,,,,,29,0,29,0,testSingleStim,,,,,,green,1.61204541948967,1.6083333333333334,0.004617599999619415,0.9952563000006194,5.5999997130129486e-05,6e-05,0.033518299998831935,1.6080301000001782,1.6413613999975496,1.9999364999966929,2.0334564999975555,2.2915362999992794,2.2915362999992794,2.5914726999981212,2.2915362999992794,0.0,,,,None,,4.200114199997188,1.9085778999979084,1.9085778999979084,1.96236,-0.017440523118976738,0.14679106958472088,,,,,,,,p4_base_01,001,2023-05-02_15h06.27.648,expectation_shapes_perceived_time,2022.2.4,119.62151751751745,
,,,,,,,,,,,,,30,0,30,0,testSingleStim,,,,,,red,1.0071397365702441,1.0,0.004619800001819385,0.9971155999992334,3.2400002965005115e-05,3e-05,0.03351630000179284,1.000249000000622,1.0335116000023845,1.9999456000005011,2.033201900001586,2.2916304000027594,2.2916304000027594,2.591382100003102,2.716386300002341,0.42475589999958174,,,,None,,4.799919300003239,2.5082889000004798,2.083533000000898,0.07297,0.03358987923788985,0.1439566253052422,,,,,,,,p4_base_01,001,2023-05-02_15h06.27.648,expectation_shapes_perceived_time,2022.2.4,119.62151751751745,
,,,,,,,,,,,,,31,0,31,0,testSingleStim,,,,,,red,0.4790523242069892,0.475,0.004521799997746712,0.995478999997431,5.379999856813811e-05,5e-05,0.03334739999991143,0.47502689999964787,0.5084126000001561,1.9996967999977642,2.0332347999974445,2.2914476999976614,2.2914476999976614,2.5924070999972173,2.9166929999992135,0.6252453000015521,,,,None,,4.100220000000263,1.8087723000026017,1.1835270000010496,1.83295,-0.07406493989079822,0.12793035072046965,,,,,,,,p4_base_01,001,2023-05-02_15h06.27.648,expectation_shapes_perceived_time,2022.2.4,119.62151751751745,
,,,,,,,,,,,,,32,0,32,0,testSingleStim,,,,,,red,1.4504467942759887,1.45,0.004438099997059908,0.9946739999977581,3.0300001526484266e-05,3e-05,0.03328020000117249,1.4501473999989685,1.4836164000007557,1.999710200001573,2.033052700000553,2.2922001000006276,2.2922001000006276,2.5917312999990827,3.549818999999843,1.2576188999992155,,,,None,,4.558348800001113,2.2661487000004854,1.00852980000127,1.91581,-0.0386433530558756,0.14268314974477145,,,,,,,,p4_base_01,001,2023-05-02_15h06.27.648,expectation_shapes_perceived_time,2022.2.4,119.62151751751745,
,,,,,,,,,,,,,33,0,33,0,testSingleStim,,,,,,green,0.8860367581139592,0.8833333333333333,0.004782399999385234,0.9949797000008402,3.220000144210644e-05,3e-05,0.03319010000268463,0.8830542000032437,0.9164321000025666,1.9997789000008197,2.0330451000008907,2.291413200000534,2.291413200000534,2.591363999999885,3.1997131000025547,0.9082999000020209,,,,None,,4.458188399999926,2.1667751999993925,1.2584752999973716,0.0989,0.04519355148397601,0.14074563176438243,,,,,,,,p4_base_01,001,2023-05-02_15h06.27.648,expectation_shapes_perceived_time,2022.2.4,119.62151751751745,
,,,,,,,,,,,,,34,0,34,0,testSingleStim,,,,,,green,1.0525320519615229,1.05,0.0026131000013265293,0.996233800000482,1.4000001101521775e-05,1e-05,,1.0500303000007989,1.0833430999991833,2.0000013999997464,2.033326400000078,2.291660499999125,2.291660499999125,2.5916867000014463,2.8835513000012725,0.5918908000021474,,,,None,,4.250533599999471,1.9588731000003463,1.3669822999981989,0.07219,0.033239521421297664,0.14403792615895655,,,,,,,,p4_base_01,001,2023-05-02_15h06.27.648,expectation_shapes_perceived_time,2022.2.4,119.62151751751745,
,,,,,,,,,,,,,35,0,35,0,testSingleStim,,,,,,green,0.18568258059833406,0.18333333333333332,0.0045743000009679236,0.995724300002621,6.639999992330559e-05,7e-05,0.03318129999752273,0.18321419999847421,0.21658409999872674,2.000089299999672,2.0331785999987915,2.291551599999366,2.291551599999366,2.591543599999568,2.824809499998082,0.5332578999987163,,,,None,,4.54146149999724,2.249909899997874,1.7166519999991579,1.82621,-0.07675889471619442,0.12633234755373662,,,,,,,,p4_base_01,001,2023-05-02_15h06.27.648,expectation_shapes_perceived_time,2022.2.4,119.62151751751745,
,,,,,,,,,,,,,36,0,36,0,testSingleStim,,,,,,red,1.3587781251679147,1.3583333333333334,0.003001399996719556,0.9960283000000345,3.5799999750452116e-05,4e-05,0.03334369999720366,1.3585158999994746,1.3920178000007581,2.0006576999985555,2.0336212999973213,2.292045700000017,2.292045700000017,2.591872199998761,6.725225800000771,4.4331801000007545,,,,None,,12.175164599997515,9.883118899997498,5.449938799996744,0.142,0.06377926579811487,0.13335664666878563,,,,,,,,p4_base_01,001,2023-05-02_15h06.27.648,expectation_shapes_perceived_time,2022.2.4,119.62151751751745,
,,,,,,,,,,,,,37,0,37,0,testSingleStim,,,,,,red,0.8928926723555031,0.8916666666666666,0.004544399998849258,0.9970868999989762,2.5400000595254824e-05,3e-05,,0.8918465000024298,0.925332900002104,2.0000091000001703,,2.291619500003435,2.291619500003435,2.591987700001482,3.050444400003471,0.758824900000036,,,,None,,4.075121600002603,1.7835020999991684,1.0246771999991324,1.96478,-0.016324375742178574,0.14691938167960716,,,,,,,,p4_base_01,001,2023-05-02_15h06.27.648,expectation_shapes_perceived_time,2022.2.4,119.62151751751745,
,,,,,,,,,,,,,38,0,38,0,testSingleStim,,,,,,red,0.2050359466844793,0.20833333333333334,0.0046595999992860015,0.9974155999989307,3.170000127283856e-05,3e-05,0.03351970000221627,0.2082394999997632,0.2416058000017074,1.9997683000001416,2.0332077000020945,2.291625199999544,2.291625199999544,2.5917140999990806,3.1332150000016554,0.8415898000021116,,,,None,,3.933523600000626,1.6418984000010823,0.8003085999989707,1.83637,-0.07268772603244615,0.1287178481824567,,,,,,,,p4_base_01,001,2023-05-02_15h06.27.648,expectation_shapes_perceived_time,2022.2.4,119.62151751751745,
,,,,,,,,,,,,,39,0,39,0,testSingleStim,,,,,,red,1.0007425947907005,1.0,0.004383700001199031,0.9975895999996283,5.369999780668877e-05,5e-05,0.033164799999212846,0.9997803999976895,1.0331162000002223,1.9993118999991566,2.0326655999997456,2.2907677000002877,2.2907677000002877,2.591111199999432,3.1912653999970644,0.9004976999967766,,,,None,,4.0078848999983165,1.7171171999980288,0.8166195000012522,1.83112,-0.07480085570535057,0.12750145858866574,,,,,,,,p4_base_01,001,2023-05-02_15h06.27.648,expectation_shapes_perceived_time,2022.2.4,119.62151751751745,
,,,,,,,,,0,0,0,0,0,-1,-1,0,fam,0.5642566999995324,0.5642566999995324,270.0000000000009,2.5561233000007633,2.5561233000007633,,,,,,,,,,,,,,,,,,,,,,,,,,,,,,,,,,,,p4_base_01,001,2023-05-02_15h06.27.648,expectation_shapes_perceived_time,2022.2.4,119.62151751751745,
,,,,,,,,,1,0,1,0,0,-1,-1,0,fam,0.4971210000003339,0.4971210000003339,270.0000000000009,2.4887615000006917,2.4887615000006917,,,,,,,,,,,,,,,,,,,,,,,,,,,,,,,,,,,,p4_base_01,001,2023-05-02_15h06.27.648,expectation_shapes_perceived_time,2022.2.4,119.62151751751745,
,,,,,,,,,2,0,2,0,0,-1,-1,0,fam,0.4975803999986965,0.4975803999986965,270.0000000000009,2.489139099998283,2.489139099998283,,,,,,,,,,,,,,,,,,,,,,,,,,,,,,,,,,,,p4_base_01,001,2023-05-02_15h06.27.648,expectation_shapes_perceived_time,2022.2.4,119.62151751751745,
,,,,,,,,,3,0,3,0,0,-1,-1,0,fam,0.4974904999980936,0.4974904999980936,270.0000000000009,2.489211600000999,2.489211600000999,,,,,,,,,,,,,,,,,,,,,,,,,,,,,,,,,,,,p4_base_01,001,2023-05-02_15h06.27.648,expectation_shapes_perceived_time,2022.2.4,119.62151751751745,
1,-500,0.5,none,23,green,red,no_Expectation,,,,,,0,0,0,2,train_doubleStim,,,,,,green,1.4523705389702055,1.45,2.291350899999088,0.9985624000000826,3e-05,3e-05,,1.449882199998683,1.4832919000000402,1.9995850999985123,,2.291350899999088,2.291350899999088,2.491454300001351,5.5415490999985195,3.2501981999994314,,,,None,,6.491908100000728,4.20055720000164,0.9503590000022086,0.66604,0.12816504397237874,-0.07365807124849352,-0.5,-0.5,0.9190405389702053,0.9166666666666666,training_double_stim.csv,0.9165444999998726,0.9500750000006519,p4_base_01,001,2023-05-02_15h06.27.648,expectation_shapes_perceived_time,2022.2.4,119.62151751751745,
1,-500,0.5,none,77,green,red,no_Expectation,,,,,,0,1,1,1,train_doubleStim,,,,,,green,0.9572079273971816,0.9583333333333334,2.292252199997165,0.9935499000021082,2e-05,2e-05,,0.9585468999976001,0.9919553999970958,2.0008801000003587,,2.292252199997165,2.292252199997165,2.492091599997366,2.633475799997541,0.3412236000003759,,,,None,,3.8919704999971145,1.5997182999999495,1.2584946999995736,1.15866,-0.07067042505670013,-0.12983636231347234,-0.5,-0.5,0.4238779273971816,0.425,training_double_stim.csv,0.4257791999989422,0.4590991999975813,p4_base_01,001,2023-05-02_15h06.27.648,expectation_shapes_perceived_time,2022.2.4,119.62151751751745,
1,-500,0.5,none,59,green,red,no_Expectation,,,,,,0,2,2,0,train_doubleStim,,,,,,green,0.80365310701195,0.8,2.291955999997299,0.9950632999971276,1e-05,1e-05,0.03324,0.8005479999992531,0.8336756999997306,2.0000556999984838,2.033693099998345,2.291955999997299,2.291955999997299,2.4920196999992186,3.2086569999992207,0.9167010000019218,,,,None,,5.07493439999962,2.782978400002321,1.8662774000003992,1.11458,-0.052067292096759366,-0.1383502332856749,-0.5,-0.5,0.27032310701195006,0.26666666666666666,training_double_stim.csv,0.26744849999886355,0.3008604999995441,p4_base_01,001,2023-05-02_15h06.27.648,expectation_shapes_perceived_time,2022.2.4,119.62151751751745,
1,500,0.5,none,98,red,green,no_Expectation,,,,,,0,3,3,5,train_doubleStim,,,,,,red,1.2886008659761783,1.2833333333333332,2.2915657999983523,0.9983056000019133,3e-05,3e-05,0.03336,1.2831907999971008,1.3165439999975206,2.0000119999967865,2.033276999998634,2.2915657999983523,2.2915657999983523,2.4916079999966314,2.950152799996431,0.6585869999980787,,,,None,,4.383239899998443,2.091674100000091,1.4330871000020124,1.38872,-0.13888127466006012,-0.05063379805314692,0.5,0.5,1.8219308659761781,1.8166666666666667,training_double_stim.csv,1.8164550999972562,1.8497640999994474,p4_base_01,001,2023-05-02_15h06.27.648,expectation_shapes_perceived_time,2022.2.4,119.62151751751745,
1,500,0.5,none,25,green,red,no_Expectation,,,,,,0,4,4,6,train_doubleStim,,,,,,green,1.0633964698146188,1.0583333333333333,2.291788499998802,0.9960946999999578,3e-05,3e-05,,1.0586977000020852,1.0919065000016417,2.000197000001208,,2.291788499998802,2.291788499998802,2.491634400001203,4.175604600000952,1.88381610000215,,,,None,,7.166475599999103,4.874687100000301,2.990870999998151,0.32798,0.12675761363746998,0.07605456818248199,0.5,0.5,1.5967264698146186,1.5916666666666666,training_double_stim.csv,1.5918189000003622,1.625175400000444,p4_base_01,001,2023-05-02_15h06.27.648,expectation_shapes_perceived_time,2022.2.4,119.62151751751745,
1,500,0.5,none,60,red,green,no_Expectation,,,,,,0,5,5,8,train_doubleStim,,,,,,red,0.41456035490936044,0.4166666666666667,2.291795799999818,0.9969788999987941,3e-05,3e-05,0.03326,0.41652699999758624,0.45003730000098585,2.0002524000010453,2.033591499999602,2.291795799999818,2.291795799999818,2.4918330000000424,2.291795799999818,0.0,,,,None,,3.9085511999983282,1.6167553999985103,1.6167553999985103,1.14454,-0.06484047647037003,-0.1328439030124654,0.5,0.5,0.9478903549093606,0.9416666666666667,training_double_stim.csv,0.942460399997799,0.9754022999986773,p4_base_01,001,2023-05-02_15h06.27.648,expectation_shapes_perceived_time,2022.2.4,119.62151751751745,
1,-500,0.5,none,68,red,green,no_Expectation,,,,,,0,6,6,3,train_doubleStim,,,,,,red,1.6454685780870235,1.6416666666666666,2.2915682999991986,0.9974579999980051,3e-05,3e-05,0.03305,1.6415762999968138,1.6750151999985974,1.9999592999993183,2.0334242999997514,2.2915682999991986,2.2915682999991986,2.4917060999978276,2.4997814999987895,0.20821319999959087,,,,None,,3.8000204999989364,1.5084521999997378,1.300239000000147,1.30532,-0.12102784913364442,-0.08487667341839998,-0.5,-0.5,1.1121385780870237,1.1083333333333334,training_double_stim.csv,1.1083252999997057,1.1417049999981828,p4_base_01,001,2023-05-02_15h06.27.648,expectation_shapes_perceived_time,2022.2.4,119.62151751751745,
1,500,0.5,none,33,green,red,no_Expectation,,,,,,0,7,7,7,train_doubleStim,,,,,,green,0.2864912255030748,0.2833333333333333,2.291754799996852,0.9962253000012424,3e-05,3e-05,0.03315,0.28305469999759225,0.3163119999990158,2.000066099997639,2.0334656999984873,2.291754799996852,2.291754799996852,2.491657099999429,2.916479299998173,0.6247245000013208,,,,None,,4.341808499997569,2.050053700000717,1.4253291999993962,1.15101,-0.06752647168484346,-0.13149891854416887,0.5,0.5,0.8198212255030749,0.8166666666666667,training_double_stim.csv,0.8164858999989519,0.8501232999988133,p4_base_01,001,2023-05-02_15h06.27.648,expectation_shapes_perceived_time,2022.2.4,119.62151751751745,
1,500,0.5,none,88,red,green,no_Expectation,,,,,,0,8,8,9,train_doubleStim,,,,,,red,0.15578648504780945,0.15833333333333333,2.2919219999967027,0.9951805000018794,2e-05,2e-05,0.03324,0.15825329999643145,0.19160839999676682,2.0000379999983124,2.033535499998834,2.2919219999967027,2.2919219999967027,2.491774499998428,2.766776899999968,0.47485490000326536,,,,None,,3.7087089999986347,1.416787000001932,0.9419320999986667,1.00715,-0.0033210381833491546,-0.14778619915903737,0.5,0.5,0.6891164850478095,0.6833333333333333,training_double_stim.csv,0.6843465999991167,0.7174207999996725,p4_base_01,001,2023-05-02_15h06.27.648,expectation_shapes_perceived_time,2022.2.4,119.62151751751745,
1,-500,0.5,none,46,red,green,no_Expectation,,,,,,0,9,9,4,train_doubleStim,,,,,,red,0.8829561916660745,0.8833333333333333,2.292055599999003,0.9966588000024785,3e-05,3e-05,0.03333,0.8831333999987692,0.9168797999991511,2.0003957000008086,2.0338458999976865,2.292055599999003,2.292055599999003,2.4916616000009526,2.841803200000868,0.5497476000018651,,,,None,,3.9417412000002514,1.6496856000012485,1.0999379999993835,1.3022,-0.12018859818617456,-0.08606097154071758,-0.5,-0.5,0.3496261916660746,0.35,training_double_stim.csv,0.3496560999992653,0.3832168000008096,p4_base_01,001,2023-05-02_15h06.27.648,expectation_shapes_perceived_time,2022.2.4,119.62151751751745,
1,500,0.5,none,98,red,green,no_Expectation,,,,,,1,0,10,5,train_doubleStim,,,,,,red,1.1668591918862876,1.1666666666666667,2.291563300001144,0.9964809999983117,3e-05,3e-05,0.03319,1.1668254000032903,1.2005004000020563,1.9998327000030258,2.033271100001002,2.291563300001144,2.291563300001144,2.4916234000011173,2.7746089000029315,0.48304560000178753,,,,None,,4.132871600002545,1.8413083000014012,1.3582626999996137,1.34324,-0.13025620324398338,-0.06989357247238132,0.5,0.5,1.7001891918862875,1.6916666666666667,training_double_stim.csv,1.6916264000028605,1.7246370000029856,p4_base_01,001,2023-05-02_15h06.27.648,expectation_shapes_perceived_time,2022.2.4,119.62151751751745,
1,-500,0.5,none,23,green,red,no_Expectation,,,,,,1,1,11,2,train_doubleStim,,,,,,green,1.2916383070857815,1.2916666666666667,2.2915694000002986,0.9968136999996204,3e-05,3e-05,,1.3049982000011369,1.336891499999183,2.000065899999754,,2.2915694000002986,2.2915694000002986,2.491596899999422,5.449623000000429,3.1580536000001302,,,,None,,5.991818800001056,3.7002494000007573,0.5421958000006271,1.07527,-0.03462896641850799,-0.14371021063680817,-0.5,-0.5,0.7583083070857813,0.7583333333333333,training_double_stim.csv,0.7583489999997255,0.7916388000012375,p4_base_01,001,2023-05-02_15h06.27.648,expectation_shapes_perceived_time,2022.2.4,119.62151751751745,
1,-500,0.5,none,68,red,green,no_Expectation,,,,,,1,2,12,3,train_doubleStim,,,,,,red,1.235917018006964,1.2333333333333334,2.291781300002185,0.9957734000017808,3e-05,3e-05,0.03321,1.2332262999989325,1.266751099999965,1.9999137000013434,2.033346200001688,2.291781300002185,2.291781300002185,2.491838900001312,3.158189699999639,0.8664083999974537,,,,None,,4.483371700000134,2.191590399997949,1.3251820000004955,1.50354,-0.14781438542191389,0.0016423820602434879,-0.5,-0.5,0.7025870180069641,0.7,training_double_stim.csv,0.6997823000019707,0.7330741000005219,p4_base_01,001,2023-05-02_15h06.27.648,expectation_shapes_perceived_time,2022.2.4,119.62151751751745,
1,-500,0.5,none,77,green,red,no_Expectation,,,,,,1,3,13,1,train_doubleStim,,,,,,green,1.1558288190039705,1.15,2.291685799998959,0.9949516000015137,3e-05,3e-05,0.03328,1.149794799999654,1.1831543000007514,2.000209599998925,2.0336281999989296,2.291685799998959,2.291685799998959,2.4915794000007736,2.7830030000004626,0.4913172000015038,,,,None,,4.033292000000074,1.7416062000011152,1.2502889999996114,1.61873,-0.13765957587875952,0.05386679056125373,-0.5,-0.5,0.6224988190039704,0.6166666666666667,training_double_stim.csv,0.6165120000005118,0.6499208999994153,p4_base_01,001,2023-05-02_15h06.27.648,expectation_shapes_perceived_time,2022.2.4,119.62151751751745,
1,500,0.5,none,88,red,green,no_Expectation,,,,,,1,4,14,9,train_doubleStim,,,,,,red,0.9850188597014884,0.9833333333333333,2.2917221000025165,0.9946668999982649,3e-05,3e-05,,0.9830293000013626,1.0164600999996765,1.999715699999797,,2.2917221000025165,2.2917221000025165,2.4915126000014425,2.2917221000025165,0.0,,,,None,,5.166300600001705,2.8745784999991884,2.8745784999991884,1.46719,-0.14703883181946517,-0.015210913636496399,0.5,0.5,1.5183488597014885,1.5166666666666666,training_double_stim.csv,1.5163715000016964,1.5497763999992458,p4_base_01,001,2023-05-02_15h06.27.648,expectation_shapes_perceived_time,2022.2.4,119.62151751751745,
1,500,0.5,none,33,green,red,no_Expectation,,,,,,1,5,15,7,train_doubleStim,,,,,,green,0.9700877705553747,0.9666666666666667,2.2922614000017347,0.9963835000016843,7e-05,7e-05,0.03336,0.9667098999998416,1.0001035999994201,1.9999481000013475,2.0331876000018383,2.2922614000017347,2.2922614000017347,2.4919560000016645,2.7586492000009457,0.466387799999211,,,,None,,4.53335750000042,2.2410960999986855,1.7747082999994745,1.69863,-0.11996385442103516,0.08637397518314532,0.5,0.5,1.5034177705553746,1.5,training_double_stim.csv,1.5000514999992447,1.5334365999988222,p4_base_01,001,2023-05-02_15h06.27.648,expectation_shapes_perceived_time,2022.2.4,119.62151751751745,
1,500,0.5,none,60,red,green,no_Expectation,,,,,,1,6,16,8,train_doubleStim,,,,,,red,0.9999647602829402,1.0,2.2916356999994605,0.9973194000012882,9e-05,9e-05,,0.9998623999999836,1.0328279999994265,1.9999425999994855,,2.2916356999994605,2.2916356999994605,2.491491600001609,7.074956100001145,4.783320400001685,,,,None,,7.666346900001372,5.3747112000019115,0.5913908000002266,1.51902,-0.1475596493047968,0.008828355086611775,0.5,0.5,1.53329476028294,1.525,training_double_stim.csv,1.5244616999989375,1.5580083999993803,p4_base_01,001,2023-05-02_15h06.27.648,expectation_shapes_perceived_time,2022.2.4,119.62151751751745,
1,500,0.5,none,25,green,red,no_Expectation,,,,,,1,7,17,6,train_doubleStim,,,,,,green,0.609699261642503,0.6083333333333333,2.2921865999996953,0.9961063999980979,3e-05,3e-05,0.03348,0.6084929999997257,0.6419787999984692,2.0002917000019806,2.033755200001906,2.2921865999996953,2.2921865999996953,2.4914717999999993,4.050232500001584,1.758045900001889,,,,None,,5.125065799998993,2.8328791999992973,1.0748332999974082,1.32683,-0.12648122341978293,-0.07651333268604153,0.5,0.5,1.1430292616425028,1.1416666666666666,training_double_stim.csv,1.1418376000001444,1.17522050000116,p4_base_01,001,2023-05-02_15h06.27.648,expectation_shapes_perceived_time,2022.2.4,119.62151751751745,
1,-500,0.5,none,46,red,green,no_Expectation,,,,,,1,8,18,4,train_doubleStim,,,,,,red,0.8516647394653294,0.85,2.2918728000004194,0.9960559000028297,3e-05,3e-05,,0.8501858000017819,0.8832628000018303,2.0004726000006485,,2.2918728000004194,2.2918728000004194,2.491649800002051,3.1165948000016215,0.8247220000012021,,,,None,,3.8166307999999844,1.524757999999565,0.700035999998363,1.46911,-0.1471280549134791,-0.0143222000358254,-0.5,-0.5,0.3183347394653294,0.31666666666666665,training_double_stim.csv,0.3167706999993243,0.35014400000000023,p4_base_01,001,2023-05-02_15h06.27.648,expectation_shapes_perceived_time,2022.2.4,119.62151751751745,
1,-500,0.5,none,59,green,red,no_Expectation,,,,,,1,9,19,0,train_doubleStim,,,,,,green,1.8007095264728306,1.7916666666666667,2.292168199997832,0.9978283999989799,3e-05,3e-05,0.0334,1.7913612999982433,1.82473409999875,1.9999455999968632,2.0332997999976214,2.292168199997832,2.292168199997832,2.4918431999976747,2.8584137999969244,0.5662455999990925,,,,None,,4.000088099997811,1.707919899999979,1.1416743000008864,1.26791,-0.11024103892186547,-0.09848199477019984,-0.5,-0.5,1.2673795264728305,1.2666666666666666,training_double_stim.csv,1.266544199999771,1.2999681999972381,p4_base_01,001,2023-05-02_15h06.27.648,expectation_shapes_perceived_time,2022.2.4,119.62151751751745,
,,,,,,,,,0,0,0,0,0,-1,-1,0,fam,0.5647071999992477,0.5647071999992477,270.0000000000009,2.5567460999991454,2.5567460999991454,,,,,,,,,,,,,,,,,,,,,,,,,,,,,,,,,,,,p4_base_01,001,2023-05-02_15h06.27.648,expectation_shapes_perceived_time,2022.2.4,119.62151751751745,
,,,,,,,,,1,0,1,0,0,-1,-1,0,fam,0.4976470000001427,0.4976470000001427,270.0000000000009,2.4894979000018793,2.4894979000018793,,,,,,,,,,,,,,,,,,,,,,,,,,,,,,,,,,,,p4_base_01,001,2023-05-02_15h06.27.648,expectation_shapes_perceived_time,2022.2.4,119.62151751751745,
,,,,,,,,,2,0,2,0,0,-1,-1,0,fam,0.49732700000095065,0.49732700000095065,270.0000000000009,2.4892519999993965,2.4892519999993965,,,,,,,,,,,,,,,,,,,,,,,,,,,,,,,,,,,,p4_base_01,001,2023-05-02_15h06.27.648,expectation_shapes_perceived_time,2022.2.4,119.62151751751745,
,,,,,,,,,3,0,3,0,0,-1,-1,0,fam,0.49713010000050417,0.49713010000050417,270.0000000000009,2.489235600001848,2.489235600001848,,,,,,,,,,,,,,,,,,,,,,,,,,,,,,,,,,,,p4_base_01,001,2023-05-02_15h06.27.648,expectation_shapes_perceived_time,2022.2.4,119.62151751751745,
,233,0.5,none,,green,red,,1482.0130268479816,,,,,0,0,0,227,trial,,,,,,green,1.4820130268479816,1.475,2.291687400000228,0.9912135000013222,4e-05,4e-05,0.03335,1.4750705000005837,1.50822330000301,2.000217700002395,2.033759000001737,2.291687400000228,2.291687400000228,2.4916585000028135,3.1746829000003345,0.8829955000001064,,,,None,,3.8911826000003202,1.5994952000000922,0.7164996999999858,1.66809,-0.12768682854998437,0.0744839833208242,0.233,0.23333333333333334,1.7483430268479816,1.7416666666666667,trial_list_0.5_green.csv,1.7416063000018767,1.774781800002529,p4_base_01,001,2023-05-02_15h06.27.648,expectation_shapes_perceived_time,2022.2.4,119.62151751751745,
,-167,0.5,none,,green,red,,405.5286759373942,,,,,0,1,1,467,trial,,,,,,green,0.4055286759373942,0.4083333333333333,2.2911681000005046,0.996850400002586,4e-05,4e-05,0.03305,0.40810899999996764,0.441368899999361,1.999765100001241,2.033048500001314,2.2911681000005046,2.2911681000005046,2.491373900000326,3.01616180000201,0.7249937000015052,,,,None,,3.907656200000929,1.6164881000004243,0.8914943999989191,1.72192,-0.11332859295365623,0.09491269659868709,-0.167,-0.16666666666666666,0.20519867593739421,0.20833333333333334,trial_list_0.5_green.csv,0.20792720000099507,0.24114209999970626,p4_base_01,001,2023-05-02_15h06.27.648,expectation_shapes_perceived_time,2022.2.4,119.62151751751745,
,233,0.5,none,,red,green,,400.8757338674368,,,,,0,2,2,388,trial,,,,,,red,0.4008757338674368,0.4,2.2909856000005675,0.9980845999998564,9e-05,9e-05,0.03324,0.3991328000010981,0.43245499999829917,1.9995358000014676,2.032858999999007,2.2909856000005675,2.2909856000005675,2.4909589999988384,2.9243395000012242,0.6333539000006567,,,,None,,4.082267199999478,1.7912815999989107,1.157927699998254,1.74713,-0.10546441093697041,0.10358111788452451,0.233,0.23333333333333334,0.6672057338674369,0.6666666666666666,trial_list_0.5_green.csv,0.6661411999994016,0.6993951000004017,p4_base_01,001,2023-05-02_15h06.27.648,expectation_shapes_perceived_time,2022.2.4,119.62151751751745,
,-233,0.5,none,,green,red,,1020.7156997519464,,,,,0,3,3,221,trial,,,,,,green,1.0207156997519464,1.0166666666666666,2.291407900000195,0.9975408999998763,4e-05,4e-05,0.03332,1.0167418999990332,1.0500947000000451,2.000247500000114,2.0334947999981523,2.291407900000195,2.291407900000195,2.4916489999995974,3.374808500000654,1.0834006000004592,,,,None,,4.958204499998828,2.6667965999986336,1.5833959999981744,1.40337,-0.14106430544151546,-0.044188818572040996,-0.233,-0.23333333333333334,0.7543856997519464,0.75,trial_list_0.5_green.csv,0.7498943999999028,0.7830562999988615,p4_base_01,001,2023-05-02_15h06.27.648,expectation_shapes_perceived_time,2022.2.4,119.62151751751745,
,-233,0.5,none,,green,red,,840.9590070116465,,,,,0,4,4,5,trial,,,,,,green,0.8409590070116465,0.8416666666666667,2.2912900999981503,0.9976937999999791,4e-05,4e-05,0.03336,0.8414164999994682,0.8747817000003124,1.9999375999977929,2.033183799998369,2.2912900999981503,2.2912900999981503,2.4914239999998244,2.6413520999994944,0.35006200000134413,,,,None,,4.0249451999989105,1.7336551000007603,1.3835930999994162,1.49323,-0.14779006146803922,-0.003144469392937004,-0.233,-0.23333333333333334,0.5746290070116464,0.575,trial_list_0.5_green.csv,0.5748543999980029,0.6083655999973416,p4_base_01,001,2023-05-02_15h06.27.648,expectation_shapes_perceived_time,2022.2.4,119.62151751751745,
,33,0.5,none,,green,red,,1206.522483070699,,,,,0,5,5,139,trial,,,,,,green,1.206522483070699,1.2,2.2914373999992677,0.9961191000002145,6e-05,6e-05,,1.1996531000004325,1.2329540999999153,1.9997573999971792,,2.2914373999992677,2.2914373999992677,2.491513199998735,3.8830361000000266,1.591598700000759,,,,None,,4.883061699998507,2.591624299999239,1.0000255999984802,1.44347,-0.14549842410296615,-0.026115101762070846,0.033,0.03333333333333333,1.272852483070699,1.2666666666666666,trial_list_0.5_green.csv,1.2662399000000732,1.299769199998991,p4_base_01,001,2023-05-02_15h06.27.648,expectation_shapes_perceived_time,2022.2.4,119.62151751751745,
,33,0.5,none,,red,green,,1467.739003541505,,,,,0,6,6,410,trial,,,,,,red,1.467739003541505,1.4666666666666666,2.2916062000003876,0.996056400002999,3e-05,3e-05,0.03328,1.4669372999996995,1.4998153999986243,2.000031999999919,2.0333195999992313,2.2916062000003876,2.2916062000003876,2.491383999997197,4.483277799998177,2.1916715999977896,,,,None,,5.424751799997466,3.1331455999970785,0.9414739999992889,1.64579,-0.13258874568406026,0.06536064928087477,0.033,0.03333333333333333,1.534069003541505,1.5333333333333332,trial_list_0.5_green.csv,1.5332041999972716,1.5665641999985382,p4_base_01,001,2023-05-02_15h06.27.648,expectation_shapes_perceived_time,2022.2.4,119.62151751751745,
,-300,0.5,none,,red,green,,1710.1800092906465,,,,,0,7,7,228,trial,,,,,,red,1.7101800092906465,1.7083333333333333,2.2880965000003926,0.9924767999982578,2e-05,2e-05,,1.7048481999991054,1.7382008000022324,2.0047110000014072,,2.2880965000003926,2.2880965000003926,2.4881451000001107,3.304939199999353,1.0168426999989606,,,,None,,4.188250200000766,1.9001537000003736,0.883311000001413,1.46369,-0.14686254920175906,-0.016828000429368228,-0.3,-0.3,1.3768500092906466,1.375,trial_list_0.5_green.csv,1.3715771000024688,1.4048780000011902,p4_base_01,001,2023-05-02_15h06.27.648,expectation_shapes_perceived_time,2022.2.4,119.62151751751745,
,-300,0.5,none,,red,green,,1358.2655178870823,,,,,0,8,8,14,trial,,,,,,red,1.3582655178870824,1.35,2.2917443000005733,0.9978287000012642,4e-05,4e-05,0.03311,1.3499565999991319,1.383266699998785,1.9997655999977724,2.0331686999998055,2.2917443000005733,2.2917443000005733,2.49157859999832,3.1497501999983797,0.8580058999978064,,,,None,,4.191540600000735,1.8997963000001619,1.0417904000023555,1.25909,-0.10746963565173664,-0.10149910033775127,-0.3,-0.3,1.0249355178870823,1.025,trial_list_0.5_green.csv,1.025238199999876,1.0587470999998914,p4_base_01,001,2023-05-02_15h06.27.648,expectation_shapes_perceived_time,2022.2.4,119.62151751751745,
,33,0.5,none,,red,green,,461.4093027285046,,,,,0,9,9,246,trial,,,,,,red,0.4614093027285046,0.4583333333333333,2.2916826000000583,0.9961073999984364,3e-05,3e-05,0.03335,0.4580491000015172,0.49169049999909475,2.000160399999004,2.0336623000002874,2.2916826000000583,2.2916826000000583,2.4919359000014083,3.21667829999933,0.9249956999992719,,,,None,,4.799924300001294,2.5082417000012356,1.5832460000019637,0.96827,0.014708988952502843,-0.14708988952502844,0.033,0.03333333333333333,0.5277393027285047,0.525,trial_list_0.5_green.csv,0.5247324000010849,0.5581660999996529,p4_base_01,001,2023-05-02_15h06.27.648,expectation_shapes_perceived_time,2022.2.4,119.62151751751745,
,-233,0.5,none,,red,green,,954.6655570878842,,,,,0,10,10,230,trial,,,,,,red,0.9546655570878841,0.95,2.291915000001609,0.9961466999993718,3e-05,3e-05,0.03325,0.9500700999997207,0.9834477000003972,1.9999576000009256,2.0334063000009337,2.291915000001609,2.291915000001609,2.4920095000015863,3.5668670000013663,1.2749519999997574,,,,None,,4.674843299999338,2.3829282999977295,1.107976299997972,1.14099,-0.06335482156973052,-0.13355881303889133,-0.233,-0.23333333333333334,0.6883355570878841,0.6833333333333333,trial_list_0.5_green.csv,0.6834219000011217,0.7167541000017081,p4_base_01,001,2023-05-02_15h06.27.648,expectation_shapes_perceived_time,2022.2.4,119.62151751751745,
,233,0.5,none,,red,green,,435.65146702171216,,,,,0,11,11,328,trial,,,,,,red,0.43565146702171215,0.43333333333333335,2.2910195000004023,0.9977728000012576,8e-05,8e-05,,0.4326471999993373,0.4662072999999509,1.9998445000019274,,2.2910195000004023,2.2910195000004023,2.4911672999987786,8.090850600001431,5.799831100001029,,,,None,,9.074025699999765,6.783006199999363,0.9831750999983342,0.87025,0.058602563215714665,-0.13571119902586554,0.233,0.23333333333333334,0.7019814670217122,0.7,trial_list_0.5_green.csv,0.6995791000008467,0.7331278000019665,p4_base_01,001,2023-05-02_15h06.27.648,expectation_shapes_perceived_time,2022.2.4,119.62151751751745,
,-100,0.5,none,,green,red,,928.9518023943116,,,,,0,12,12,363,trial,,,,,,green,0.9289518023943116,0.9249999999999999,2.2918600000011793,0.9977425999968546,4e-05,4e-05,0.03341,0.9251609000020835,0.958283100000699,2.0001539000004414,2.0334492000001774,2.2918600000011793,2.2918600000011793,2.4917726000021503,2.6251088000026357,0.3332488000014564,,,,None,,3.4916682000002766,1.1998081999990973,0.8665593999976409,1.22942,-0.09755479328898886,-0.11106238005207962,-0.1,-0.1,0.7956218023943116,0.7916666666666666,trial_list_0.5_green.csv,0.7918095999993966,0.8251087000026018,p4_base_01,001,2023-05-02_15h06.27.648,expectation_shapes_perceived_time,2022.2.4,119.62151751751745,
,100,0.5,none,,green,red,,238.94186292510253,,,,,0,13,13,331,trial,,,,,,green,0.23894186292510253,0.24166666666666667,2.291256100001192,0.9980998999999429,6e-05,6e-05,0.03321,0.24133760000040638,0.27461030000267783,1.999393100002635,2.032736400000431,2.291256100001192,2.291256100001192,2.4910621000017272,2.7410329000013007,0.4497768000001088,,,,None,,3.5244115000023157,1.2331554000011238,0.783378600001015,1.40535,-0.14133580541129612,-0.04331258552926816,0.1,0.1,0.37227186292510256,0.375,trial_list_0.5_green.csv,0.37470329999996466,0.40795799999978044,p4_base_01,001,2023-05-02_15h06.27.648,expectation_shapes_perceived_time,2022.2.4,119.62151751751745,
,-33,0.5,none,,green,red,,930.565380960434,,,,,0,14,14,435,trial,,,,,,green,0.9305653809604341,0.9249999999999999,2.2921133000018017,0.9964267000032123,1e-05,1e-05,,0.9253807999994024,0.9587852000004204,2.0002248999990115,,2.2921133000018017,2.2921133000018017,2.4919245000019146,2.4588007000020298,0.16668740000022808,,,,None,,3.4502333999989787,1.158120099997177,0.9914326999969489,1.57606,-0.14362387851158248,0.03498530374000087,-0.033,-0.03333333333333333,0.864235380960434,0.8583333333333333,trial_list_0.5_green.csv,0.8591711000008218,0.8919137000011688,p4_base_01,001,2023-05-02_15h06.27.648,expectation_shapes_perceived_time,2022.2.4,119.62151751751745,
,-167,0.5,none,,red,green,,631.8026344631372,,,,,0,15,15,418,trial,,,,,,red,0.6318026344631372,0.6333333333333333,2.291711800000485,0.9974021000016364,3e-05,3e-05,,0.6330631000018911,0.6664060000002792,2.0002064000000246,,2.291711800000485,2.291711800000485,2.491688600002817,2.9917922000022372,0.7000804000017524,,,,None,,3.6416106000033324,1.3498988000028476,0.6498184000010951,1.36083,-0.13391796065991396,-0.06259209030843804,-0.167,-0.16666666666666666,0.4314726344631372,0.43333333333333335,trial_list_0.5_green.csv,0.433136800002103,0.4664781999999832,p4_base_01,001,2023-05-02_15h06.27.648,expectation_shapes_perceived_time,2022.2.4,119.62151751751745,
,-233,0.5,none,,red,green,,1404.937575040129,,,,,0,16,16,434,trial,,,,,,red,1.4049375750401292,1.4,2.291809900001681,0.9958041999998386,3e-05,3e-05,0.03325,1.400662200001534,1.4339730000028794,1.999974199999997,2.0334620000030554,2.291809900001681,2.291809900001681,2.4918191000033403,3.316907700002048,1.025097800000367,,,,None,,4.325047100002848,2.0332372000011674,1.0081394000008004,1.62567,-0.1364524702939337,0.05685519595580572,-0.233,-0.23333333333333334,1.1386075750401292,1.1333333333333333,trial_list_0.5_green.csv,1.1330803000018932,1.1663722000012058,p4_base_01,001,2023-05-02_15h06.27.648,expectation_shapes_perceived_time,2022.2.4,119.62151751751745,
,-167,0.5,none,,red,green,,985.218618405654,,,,,0,17,17,440,trial,,,,,,red,0.985218618405654,0.9833333333333333,2.2915262000024086,0.9973929999978282,3e-05,3e-05,0.03344,0.9837771000020439,1.017077700002119,2.000049100002798,2.033409000003303,2.2915262000024086,2.2915262000024086,2.4914908000027935,3.425202000002173,1.1336757999997644,,,,None,,4.424773400001868,2.1332471999994596,0.9995713999996951,1.43788,-0.1450173697976619,-0.02866622426232851,-0.167,-0.16666666666666666,0.7848886184056539,0.7833333333333333,trial_list_0.5_green.csv,0.7830278000001272,0.8163613000033365,p4_base_01,001,2023-05-02_15h06.27.648,expectation_shapes_perceived_time,2022.2.4,119.62151751751745,
,233,0.5,none,,red,green,,1578.6794314231931,,,,,0,18,18,324,trial,,,,,,red,1.5786794314231931,1.575,2.292156100000284,0.9976062000023376,2e-05,2e-05,0.03325,1.5752853999983927,1.6086625999996613,2.000101199999335,2.0332367999981216,2.292156100000284,2.292156100000284,2.491955899997265,3.158550699998159,0.866394599997875,,,,None,,4.658521399996971,2.366365299996687,1.499970699998812,1.29517,-0.11825880758807587,-0.0886941056910569,0.233,0.23333333333333334,1.845009431423193,1.8416666666666666,trial_list_0.5_green.csv,1.8417898999978206,1.8750608999980614,p4_base_01,001,2023-05-02_15h06.27.648,expectation_shapes_perceived_time,2022.2.4,119.62151751751745,
,-300,0.5,none,,red,green,,1401.9894521292083,,,,,0,19,19,478,trial,,,,,,red,1.4019894521292082,1.4,2.2911067999993975,0.9978208999964409,6e-05,6e-05,,1.3994067999992694,1.4328453000016452,1.9996509000011429,,2.2911067999993975,2.2911067999993975,2.4913180000003194,4.0827683999996225,1.791661600000225,,,,None,,8.799511500001245,6.508404700001847,4.716743100001622,0.88342,0.052938830412086524,-0.13801909357436842,-0.3,-0.3,1.0686594521292083,1.0666666666666667,trial_list_0.5_green.csv,1.0669256000001042,1.1000832999998238,p4_base_01,001,2023-05-02_15h06.27.648,expectation_shapes_perceived_time,2022.2.4,119.62151751751745,
,-100,0.5,none,,green,red,,1677.327952088972,,,,,0,20,20,317,trial,,,,,,green,1.6773279520889721,1.675,2.2918591999987257,0.9971028999971168,2e-05,2e-05,,1.6752328000002308,1.7085823999987042,2.0003790999980993,,2.2918591999987257,2.2918591999987257,2.4918479999978445,2.2918591999987257,0.0,,,,None,,3.6668762999979663,1.3750170999992406,1.3750170999992406,1.74545,-0.10600943218106267,0.10302325099286373,-0.1,-0.1,1.5439979520889722,1.5416666666666667,trial_list_0.5_green.csv,1.541999199998827,1.5755704999974114,p4_base_01,001,2023-05-02_15h06.27.648,expectation_shapes_perceived_time,2022.2.4,119.62151751751745,
,33,0.5,none,,red,green,,1240.0542488040312,,,,,0,21,21,58,trial,,,,,,red,1.2400542488040311,1.2333333333333334,2.292044599998917,0.9972182000019529,4e-05,4e-05,0.0333,1.2335821999986365,1.2669072999997297,2.0005866999999853,2.033592799998587,2.292044599998917,2.292044599998917,2.4922384999990754,2.3005774000012025,0.008532800002285512,,,,None,,3.3508943999986514,1.0588497999997344,1.0503169999974489,0.08528,0.03913139326719442,0.1425500754733511,0.033,0.03333333333333333,1.3063842488040311,1.3,trial_list_0.5_green.csv,1.3002355999997235,1.3335712000007334,p4_base_01,001,2023-05-02_15h06.27.648,expectation_shapes_perceived_time,2022.2.4,119.62151751751745,
,-33,0.5,none,,green,red,,1390.6831104826028,,,,,0,22,22,429,trial,,,,,,green,1.3906831104826027,1.3833333333333333,2.2922580000013113,0.9959463000013784,3e-05,3e-05,0.03327,1.383223500000895,1.4164954000007128,2.0003276000024925,2.0336870000028284,2.2922580000013113,2.2922580000013113,2.4918390000020736,3.025420200003282,0.7331622000019706,,,,None,,3.925019300000713,1.6327612999994017,0.899599099997431,1.65615,-0.13039146919152356,0.06964089831820008,-0.033,-0.03333333333333333,1.324353110482603,1.3166666666666667,trial_list_0.5_green.csv,1.3171048000003793,1.350043000002188,p4_base_01,001,2023-05-02_15h06.27.648,expectation_shapes_perceived_time,2022.2.4,119.62151751751745,
,-167,0.5,none,,green,red,,1434.6473098489023,,,,,0,23,23,251,trial,,,,,,green,1.4346473098489023,1.4333333333333333,2.2918540999999095,0.995425900000555,3e-05,3e-05,0.03334,1.4332280000016908,1.4666532000010193,1.9999974999991537,2.0334709999988263,2.2918540999999095,2.2918540999999095,2.4916580999997677,3.325076299999637,1.0332221999997273,,,,None,,4.708386900001642,2.4165328000017325,1.3833106000020052,1.63639,-0.13445963682457843,0.06141983410505435,-0.167,-0.16666666666666666,1.2343173098489024,1.2333333333333334,trial_list_0.5_green.csv,1.2339198000008764,1.2674947000014072,p4_base_01,001,2023-05-02_15h06.27.648,expectation_shapes_perceived_time,2022.2.4,119.62151751751745,
,-33,0.5,none,,green,red,,199.3764937912792,,,,,0,24,24,29,trial,,,,,,green,0.1993764937912792,0.2,2.2919152999966173,0.9971296000003349,4e-05,4e-05,,0.19994279999809805,0.23327689999860013,2.000254099999438,,2.2919152999966173,2.2919152999966173,2.4922073999987333,4.900007699998241,2.608092400001624,,,,None,,7.050876799999969,4.758961500003352,2.150869100001728,1.4058,-0.14139799046919826,-0.043109143435731176,-0.033,-0.03333333333333333,0.1330464937912792,0.13333333333333333,trial_list_0.5_green.csv,0.1332788999970944,0.16661219999878085,p4_base_01,001,2023-05-02_15h06.27.648,expectation_shapes_perceived_time,2022.2.4,119.62151751751745,
,-167,0.5,none,,red,green,,1095.036808207264,0,0,0,0,0,25,25,86,fam,0.5912424000016472,0.5912424000016472,270.0000000000009,2.5825661000017135,2.5825661000017135,,,,,,,,,,,,,,,,,,,,,,,,,,,,,,,,,,,,p4_base_01,001,2023-05-02_15h06.27.648,expectation_shapes_perceived_time,2022.2.4,119.62151751751745,
,-167,0.5,none,,red,green,,1095.036808207264,1,0,1,0,0,25,25,86,fam,0.4980182999970566,0.4980182999970566,270.0000000000009,2.4893978999971296,2.4893978999971296,,,,,,,,,,,,,,,,,,,,,,,,,,,,,,,,,,,,p4_base_01,001,2023-05-02_15h06.27.648,expectation_shapes_perceived_time,2022.2.4,119.62151751751745,
,-167,0.5,none,,red,green,,1095.036808207264,2,0,2,0,0,25,25,86,fam,0.4974374999983411,0.4974374999983411,270.0000000000009,2.489178100000572,2.489178100000572,,,,,,,,,,,,,,,,,,,,,,,,,,,,,,,,,,,,p4_base_01,001,2023-05-02_15h06.27.648,expectation_shapes_perceived_time,2022.2.4,119.62151751751745,
,-167,0.5,none,,red,green,,1095.036808207264,3,0,3,0,0,25,25,86,fam,0.49723160000212374,0.49723160000212374,270.0000000000009,2.488988299999619,2.488988299999619,,,,,,,,,,,,,,,,,,,,,,,,,,,,,,,,,,,,p4_base_01,001,2023-05-02_15h06.27.648,expectation_shapes_perceived_time,2022.2.4,119.62151751751745,
,-167,0.5,none,,red,green,,1095.036808207264,,,,,0,25,25,86,trial,,,,,,red,1.095036808207264,1.0916666666666666,2.291863900001772,0.9982192999996187,3e-05,3e-05,,1.0920521000007284,1.1253477999998722,2.0001394000028085,,2.291863900001772,2.291863900001772,2.4918738000014855,2.9421628000018245,0.6502989000000525,,,,None,,4.233578999999736,1.941715099997964,1.2914161999979115,1.97529,-0.011462765021790302,0.1473784074230182,-0.167,-0.16666666666666666,0.8947068082072639,0.8916666666666666,trial_list_0.5_green.csv,0.8924846000008984,0.925106800001231,p4_base_01,001,2023-05-02_15h06.27.648,expectation_shapes_perceived_time,2022.2.4,119.62151751751745,
,300,0.5,none,,red,green,,418.0260395868547,,,,,0,26,26,262,trial,,,,,,red,0.41802603958685475,0.4166666666666667,2.2921260000002803,0.9939690999999584,3e-05,3e-05,0.03324,0.4168348999992304,0.4504665999993449,2.0002628000002005,2.0338019999981043,2.2921260000002803,2.2921260000002803,2.4921609000011813,2.841759099999763,0.5496330999994825,,,,None,,3.933549999997922,1.6414239999976417,1.0917908999981591,1.70979,-0.11686184767466767,0.09052678340995383,0.3,0.3,0.7513560395868548,0.75,trial_list_0.5_green.csv,0.7501316999987466,0.7835119999981544,p4_base_01,001,2023-05-02_15h06.27.648,expectation_shapes_perceived_time,2022.2.4,119.62151751751745,
,-233,0.5,none,,red,green,,1388.485601555636,,,,,0,27,27,422,trial,,,,,,red,1.3884856015556362,1.3833333333333333,2.2918476999984705,0.9951572999998461,2e-05,2e-05,0.03343,1.3835279000013543,1.4169293000013568,2.0002948000001197,2.033711399999447,2.2918476999984705,2.2918476999984705,2.492059200001677,2.867090299998381,0.5752425999999105,,,,None,,3.7000262000001385,1.408178500001668,0.8329359000017575,1.38622,-0.13847991001951837,-0.05172141217596469,-0.233,-0.23333333333333334,1.1221556015556362,1.1166666666666667,trial_list_0.5_green.csv,1.1168576999989455,1.1503312999993796,p4_base_01,001,2023-05-02_15h06.27.648,expectation_shapes_perceived_time,2022.2.4,119.62151751751745,
,-300,0.5,none,,green,red,,895.6532193783589,,,,,0,28,28,37,trial,,,,,,green,0.895653219378359,0.8916666666666666,2.291578100001061,0.9977670000007492,6e-05,6e-05,0.03324,0.8922340999997687,0.9254390999994939,2.0006694000003336,2.0338697000006505,2.291578100001061,2.291578100001061,2.4917239999995218,2.9331041000004916,0.6415259999994305,,,,None,,3.491496399998141,1.1999182999970799,0.5583922999976494,1.54837,-0.14611975796597215,0.022378701670464206,-0.3,-0.3,0.5623232193783589,0.5583333333333333,trial_list_0.5_green.csv,0.5579742999980226,0.5914670999991358,p4_base_01,001,2023-05-02_15h06.27.648,expectation_shapes_perceived_time,2022.2.4,119.62151751751745,
,300,0.5,none,,green,red,,781.9493416560473,,,,,0,29,29,377,trial,,,,,,green,0.7819493416560473,0.7833333333333333,2.291714899998624,0.9960138999995252,3e-05,3e-05,0.03309,0.7828163999984099,0.8161677999996755,2.000462799998786,,2.291714899998624,2.291714899998624,2.491594499999337,2.8499721999978647,0.5582572999992408,,,,None,,3.7246153999985836,1.4329004999999597,0.8746432000007189,1.0869,-0.039857641852566836,-0.14234872090202438,0.3,0.3,1.1152793416560471,1.1083333333333334,trial_list_0.5_green.csv,1.1080633999990823,1.1414029999978084,p4_base_01,001,2023-05-02_15h06.27.648,expectation_shapes_perceived_time,2022.2.4,119.62151751751745,
,233,0.5,none,,red,green,,960.0001152811348,,,,,0,30,30,290,trial,,,,,,red,0.9600001152811347,0.9583333333333334,2.2919184999991558,0.9972347000002628,3e-05,3e-05,0.03331,0.9582991999996011,0.9916841999984172,1.9999266999984684,2.0332687000009173,2.2919184999991558,2.2919184999991558,2.4916818999990937,2.8583840999999666,0.5664656000008108,,,,None,,3.666888399999152,1.3749698999999964,0.8085042999991856,1.31397,-0.12328762076012252,-0.08155950296438874,0.233,0.23333333333333334,1.2263301152811346,1.225,trial_list_0.5_green.csv,1.224824199998693,1.2580912999983411,p4_base_01,001,2023-05-02_15h06.27.648,expectation_shapes_perceived_time,2022.2.4,119.62151751751745,
,-100,0.5,none,,green,red,,1276.1531132806526,,,,,0,31,31,311,trial,,,,,,green,1.2761531132806527,1.275,2.291333699999086,0.9975333000002138,3e-05,3e-05,,1.2746733999993012,1.3080845999975281,2.000011899999663,,2.291333699999086,2.291333699999086,2.491416599998047,2.74966719999793,0.45833349999884376,,,,None,,3.416316899998492,1.1249831999994058,0.666649700000562,1.23274,-0.0987097775456693,-0.1100371290673035,-0.1,-0.1,1.1428231132806528,1.1416666666666666,trial_list_0.5_green.csv,1.1414422999987437,1.174873399999342,p4_base_01,001,2023-05-02_15h06.27.648,expectation_shapes_perceived_time,2022.2.4,119.62151751751745,
,233,0.5,none,,green,red,,883.0077146688006,,,,,0,32,32,161,trial,,,,,,green,0.8830077146688007,0.8833333333333333,2.291489499999443,0.9966291999990062,3e-05,3e-05,0.0335,0.8831939999981842,0.9165849999990314,1.999733799999376,2.0330496999995376,2.291489499999443,2.291489499999443,2.4913144999991346,3.0418207999973674,0.7503312999979244,,,,None,,3.6581948999992164,1.3667053999997734,0.616374100001849,1.65244,-0.13119278472708643,0.06811933053137179,0.233,0.23333333333333334,1.1493377146688006,1.1416666666666666,trial_list_0.5_green.csv,1.141768099998444,1.175100599997677,p4_base_01,001,2023-05-02_15h06.27.648,expectation_shapes_perceived_time,2022.2.4,119.62151751751745,
,-167,0.5,none,,green,red,,1082.4373794591734,,,,,0,33,33,277,trial,,,,,,green,1.0824373794591733,1.075,2.2913477000001876,0.9965288999992481,3e-05,3e-05,0.03334,1.0752265000010084,1.1084332999998878,2.0001262000005227,2.033638000000792,2.2913477000001876,2.2913477000001876,2.4913663000006636,3.133157799999026,0.8418100999988383,,,,None,,3.6248047000008228,1.3334570000006352,0.4916469000017969,1.7624,-0.10037836881040134,0.10851715547070413,-0.167,-0.16666666666666666,0.8821073794591733,0.8833333333333333,trial_list_0.5_green.csv,0.8836430000010296,0.9167543000003207,p4_base_01,001,2023-05-02_15h06.27.648,expectation_shapes_perceived_time,2022.2.4,119.62151751751745,
,100,0.5,none,,green,red,,592.3200677007123,,,,,0,34,34,385,trial,,,,,,green,0.5923200677007123,0.5916666666666667,2.2919793000000936,0.9961846999976842,2e-05,2e-05,,0.5921244999990449,0.6252669999994396,2.0002962999969895,,2.2919793000000936,2.2919793000000936,2.492292799997813,3.4597893999998632,1.1678100999997696,,,,None,,4.3207430000002205,2.028763700000127,0.8609536000003573,1.60365,-0.14005474362373732,0.04729121213269052,0.1,0.1,0.7256500677007124,0.725,trial_list_0.5_green.csv,0.7252637999990839,0.7585149999977148,p4_base_01,001,2023-05-02_15h06.27.648,expectation_shapes_perceived_time,2022.2.4,119.62151751751745,
,100,0.5,none,,green,red,,1535.7968142517543,,,,,0,35,35,107,trial,,,,,,green,1.5357968142517544,1.5333333333333332,2.292066400001204,0.9940300000016578,3e-05,3e-05,0.03331,1.5331514999998035,1.5664818000004743,1.9999033999993117,2.033389800002624,2.292066400001204,2.292066400001204,2.491525100002036,3.144543300000805,0.8524768999996013,,,,None,,4.3164629000020796,2.0243965000008757,1.1719196000012744,1.53728,-0.14681100777825035,0.017271883268029455,0.1,0.1,1.6691268142517541,1.6666666666666667,trial_list_0.5_green.csv,1.6665322000008018,1.6999476000019058,p4_base_01,001,2023-05-02_15h06.27.648,expectation_shapes_perceived_time,2022.2.4,119.62151751751745,
,-33,0.5,none,,red,green,,1179.2793875208663,,,,,0,36,36,326,trial,,,,,,red,1.1792793875208663,1.175,2.2913639999969746,0.9962528000032762,3e-05,3e-05,0.03334,1.1750964999991993,1.208245399997395,2.0001562999968883,2.0333331000001635,2.2913639999969746,2.2913639999969746,2.4916346999998495,2.7340392999976757,0.4426753000007011,,,,None,,3.31665029999931,1.0252863000023353,0.5826110000016342,1.75398,-0.10321235525070874,0.10582532626971401,-0.033,-0.03333333333333333,1.1129493875208665,1.1083333333333334,trial_list_0.5_green.csv,1.1083326999978453,1.1417657999991206,p4_base_01,001,2023-05-02_15h06.27.648,expectation_shapes_perceived_time,2022.2.4,119.62151751751745,
,300,0.5,none,,red,green,,953.4543007028212,,,,,0,37,37,104,trial,,,,,,red,0.9534543007028212,0.95,2.2915501999996195,0.9944365999981528,2e-05,2e-05,,0.9497741000013775,0.983096600000863,1.9997452999996312,,2.2915501999996195,2.2915501999996195,2.4913974000010057,2.8248069000001124,0.5332567000004929,,,,None,,3.49990329999855,1.2083530999989307,0.6750963999984378,1.83433,-0.07350936981324144,0.12825038988693185,0.3,0.3,1.2867843007028212,1.2833333333333332,trial_list_0.5_green.csv,1.28308990000005,1.3164639999995416,p4_base_01,001,2023-05-02_15h06.27.648,expectation_shapes_perceived_time,2022.2.4,119.62151751751745,
,-100,0.5,none,,red,green,,1220.8155200882293,,,,,0,38,38,138,trial,,,,,,red,1.2208155200882294,1.2166666666666666,2.291540199999872,0.9953628000002936,2e-05,2e-05,,1.2165391000016825,1.2499095000021043,1.9998764000010851,,2.291540199999872,2.291540199999872,2.4915794000007736,2.374898400001257,0.08335820000138483,,,,None,,3.3333004000014625,1.0417602000015904,0.9584020000002056,1.8846,-0.052426233541446474,0.13821461570017707,-0.1,-0.1,1.0874855200882294,1.0833333333333333,trial_list_0.5_green.csv,1.0832014000006893,1.1165629000024637,p4_base_01,001,2023-05-02_15h06.27.648,expectation_shapes_perceived_time,2022.2.4,119.62151751751745,
,-100,0.5,none,,red,green,,277.7798776826188,,,,,0,39,39,250,trial,,,,,,red,0.2777798776826188,0.275,2.2917285000003176,0.9976687999987917,3e-05,3e-05,0.03333,0.2750229000012041,0.3083392000007734,2.0000467999998364,2.0333872999981395,2.2917285000003176,2.2917285000003176,2.491774699999951,2.475156100001186,0.18342760000086855,,,,None,,3.6255531999995583,1.3338246999992407,1.1503970999983721,1.78863,-0.09110485016296004,0.11641175298600451,-0.1,-0.1,0.14444987768261883,0.14166666666666666,trial_list_0.5_green.csv,0.14176379999844357,0.17500440000003437,p4_base_01,001,2023-05-02_15h06.27.648,expectation_shapes_perceived_time,2022.2.4,119.62151751751745,
,100,0.5,none,,green,red,,663.8907867643139,,,,,0,40,40,423,trial,,,,,,green,0.6638907867643139,0.6583333333333333,2.2917735000009998,0.9969560000026831,3e-05,3e-05,0.0333,0.658452200001193,0.6916289000000688,2.000075100000686,2.0333262999993167,2.2917735000009998,2.2917735000009998,2.4914322000004177,2.4914322000004177,0.19965869999941788,,,,None,,3.3667480000003707,1.074974499999371,0.875315799999953,1.9124,-0.04016794478945769,0.14226147112932933,0.1,0.1,0.797220786764314,0.7916666666666666,trial_list_0.5_green.csv,0.7916382000003068,0.8250331999988703,p4_base_01,001,2023-05-02_15h06.27.648,expectation_shapes_perceived_time,2022.2.4,119.62151751751745,
,-33,0.5,none,,green,red,,1349.432650863938,,,,,0,41,41,289,trial,,,,,,green,1.349432650863938,1.3416666666666666,2.2919971000010264,0.9953663000014785,3e-05,3e-05,0.03332,1.3419061000022339,1.3754248000004736,2.0004580999993777,2.033481700000266,2.2919971000010264,2.2919971000010264,2.4918133999999554,2.2919971000010264,0.0,,,,None,,2.9920268999994732,0.7000297999984468,0.7000297999984468,1.86756,-0.05974491846580308,0.13521218389629117,-0.033,-0.03333333333333333,1.283102650863938,1.275,trial_list_0.5_green.csv,1.2756111999988207,1.308462100001634,p4_base_01,001,2023-05-02_15h06.27.648,expectation_shapes_perceived_time,2022.2.4,119.62151751751745,
,-167,0.5,none,,red,green,,333.5804097032058,,,,,0,42,42,180,trial,,,,,,red,0.3335804097032058,0.3333333333333333,2.29175110000142,0.995889799996803,3e-05,3e-05,0.03329,0.33314510000127484,0.36639540000032866,1.9998259999993024,2.0331689000013284,2.29175110000142,2.29175110000142,2.4914243999992323,2.408539700001711,0.1167886000002909,,,,None,,3.374642300001142,1.0828911999997217,0.9661025999994308,1.71363,-0.11576219379304471,0.0919288009533002,-0.167,-0.16666666666666666,0.13325040970320584,0.13333333333333333,trial_list_0.5_green.csv,0.13306659999943804,0.16625779999958468,p4_base_01,001,2023-05-02_15h06.27.648,expectation_shapes_perceived_time,2022.2.4,119.62151751751745,
,300,0.5,none,,red,green,,1271.9659062144344,,,,,0,43,43,190,trial,,,,,,red,1.2719659062144344,1.2666666666666666,2.2920493999990867,0.9960194999985106,3e-05,3e-05,,1.2664928999984113,1.2998296000005212,1.9997600999995484,,2.2920493999990867,2.2920493999990867,2.4918877000018256,2.5914545000014186,0.2994051000023319,,,,None,,3.4247046999989834,1.1326552999998967,0.8332501999975648,1.67325,-0.12646302404525114,0.07654340929054673,0.3,0.3,1.6052959062144343,1.6,trial_list_0.5_green.csv,1.5999293999993824,1.6330564999989292,p4_base_01,001,2023-05-02_15h06.27.648,expectation_shapes_perceived_time,2022.2.4,119.62151751751745,
,100,0.5,none,,green,red,,236.6195627494898,,,,,0,44,44,23,trial,,,,,,green,0.2366195627494898,0.23333333333333334,2.2912619000017003,0.9950757999977213,3e-05,3e-05,0.03318,0.23307550000026822,0.2666367999991053,2.0001000000011118,2.033364499999152,2.2912619000017003,2.2912619000017003,2.491237900001579,2.682949000001827,0.3916871000001265,,,,None,,3.3497148000024026,1.0584529000007024,0.6667658000005758,1.51571,-0.1476435933867989,0.0072910416487308085,0.1,0.1,0.36994956274948976,0.36666666666666664,trial_list_0.5_green.csv,0.3663339000013366,0.3996924000020954,p4_base_01,001,2023-05-02_15h06.27.648,expectation_shapes_perceived_time,2022.2.4,119.62151751751745,
,-233,0.5,none,,red,green,,617.824687497294,,,,,0,45,45,438,trial,,,,,,red,0.617824687497294,0.6166666666666667,2.2919345000009343,0.9953643999979249,3e-05,3e-05,0.03336,0.6168848000015714,0.65023089999886,1.9999888999991526,2.033375999999407,2.2919345000009343,2.2919345000009343,2.4917724000006274,2.5086741000013717,0.21673960000043735,,,,None,,3.3750067000000854,1.083072199999151,0.8663325999987137,1.99293,-0.0032841560747987704,0.14778702336594468,-0.233,-0.23333333333333334,0.351494687497294,0.35,trial_list_0.5_green.csv,0.35041410000121687,0.38367160000052536,p4_base_01,001,2023-05-02_15h06.27.648,expectation_shapes_perceived_time,2022.2.4,119.62151751751745,
,-167,0.5,none,,green,red,,1585.465545224517,,,,,0,46,46,495,trial,,,,,,green,1.585465545224517,1.5833333333333333,2.292491100000916,0.9977451000013389,3e-05,3e-05,,1.5833910000001197,1.6165629999995872,2.0002958000004583,2.03374089999852,2.292491100000916,2.292491100000916,2.4917997000011383,2.658359400000336,0.36586829999941983,,,,None,,3.391689600000973,1.0991985000000568,0.733330200000637,1.73013,-0.11084366332484492,0.0978032323454514,-0.167,-0.16666666666666666,1.385135545224517,1.3833333333333333,trial_list_0.5_green.csv,1.383444099999906,1.416920300001948,p4_base_01,001,2023-05-02_15h06.27.648,expectation_shapes_perceived_time,2022.2.4,119.62151751751745,
,167,0.5,none,,green,red,,1285.9460438566728,,,,,0,47,47,165,trial,,,,,,green,1.2859460438566728,1.2833333333333332,2.2907182999988436,0.996522500001447,7e-05,7e-05,0.03303,1.2822876999998698,1.3155207999989216,1.9991837000015948,2.0324924000015017,2.2907182999988436,2.2907182999988436,2.490883499998745,2.7741677000012714,0.48344940000242786,,,,None,,3.6241139999983716,1.333395699999528,0.8499462999971001,1.61206,-0.1387574580992928,0.05097212746504633,0.167,0.16666666666666666,1.4862760438566727,1.4833333333333334,trial_list_0.5_green.csv,1.4824641999985033,1.5159227000003739,p4_base_01,001,2023-05-02_15h06.27.648,expectation_shapes_perceived_time,2022.2.4,119.62151751751745,
,-167,0.5,none,,red,green,,824.6029843288134,,,,,0,48,48,304,trial,,,,,,red,0.8246029843288134,0.825,2.2919781999989937,0.9954233000025852,3e-05,3e-05,0.03338,0.8254105000014533,0.8590637000015704,2.0001907000005303,2.0334150999988196,2.2919781999989937,2.2919781999989937,2.492088599999988,2.700235399999656,0.4082572000006621,,,,None,,3.2673866000004637,0.97540840000147,0.5671512000008079,1.44685,-0.14576770373665962,-0.02456759051741454,-0.167,-0.16666666666666666,0.6242729843288133,0.625,trial_list_0.5_green.csv,0.6251515000003565,0.6585589999995136,p4_base_01,001,2023-05-02_15h06.27.648,expectation_shapes_perceived_time,2022.2.4,119.62151751751745,
,-300,0.5,none,,green,red,,1462.6145059728772,,,,,0,49,49,271,trial,,,,,,green,1.4626145059728772,1.4583333333333333,2.2916748999996344,0.997070999997959,3e-05,3e-05,0.03355,1.4582884999981616,1.4917119999990973,2.000070499998401,2.0336074000006192,2.2916748999996344,2.2916748999996344,2.491684599997825,2.7002561000008427,0.40858120000120834,,,,None,,3.2334062999980233,0.941731399998389,0.5331501999971806,1.70311,-0.1187373596657032,0.08805242402175743,-0.3,-0.3,1.1292845059728773,1.125,trial_list_0.5_green.csv,1.1254970000009052,1.1589217000000644,p4_base_01,001,2023-05-02_15h06.27.648,expectation_shapes_perceived_time,2022.2.4,119.62151751751745,
,-300,0.5,none,,green,red,,1070.762907457559,0,0,0,0,0,50,50,15,fam,0.5564758000000438,0.5564758000000438,270.0000000000009,2.548009300000558,2.548009300000558,,,,,,,,,,,,,,,,,,,,,,,,,,,,,,,,,,,,p4_base_01,001,2023-05-02_15h06.27.648,expectation_shapes_perceived_time,2022.2.4,119.62151751751745,
,-300,0.5,none,,green,red,,1070.762907457559,1,0,1,0,0,50,50,15,fam,0.4976282999996329,0.4976282999996329,270.0000000000009,2.489526500001375,2.489526500001375,,,,,,,,,,,,,,,,,,,,,,,,,,,,,,,,,,,,p4_base_01,001,2023-05-02_15h06.27.648,expectation_shapes_perceived_time,2022.2.4,119.62151751751745,
,-300,0.5,none,,green,red,,1070.762907457559,2,0,2,0,0,50,50,15,fam,0.49759629999971366,0.49759629999971366,270.0000000000009,2.48911809999845,2.48911809999845,,,,,,,,,,,,,,,,,,,,,,,,,,,,,,,,,,,,p4_base_01,001,2023-05-02_15h06.27.648,expectation_shapes_perceived_time,2022.2.4,119.62151751751745,
,-300,0.5,none,,green,red,,1070.762907457559,3,0,3,0,0,50,50,15,fam,0.4981621000006271,0.4981621000006271,270.0000000000009,2.490069899999071,2.490069899999071,,,,,,,,,,,,,,,,,,,,,,,,,,,,,,,,,,,,p4_base_01,001,2023-05-02_15h06.27.648,expectation_shapes_perceived_time,2022.2.4,119.62151751751745,
,-300,0.5,none,,green,red,,1070.762907457559,,,,,0,50,50,15,trial,,,,,,green,1.070762907457559,1.0666666666666667,2.2913952999988396,0.9984150000018417,3e-05,3e-05,,1.0665473000008205,1.0999602999982017,1.99951560000045,,2.2913952999988396,2.2913952999988396,2.4921229999999923,2.5955001000002085,0.30410480000136886,,,,None,,3.549954699999944,1.2585594000011042,0.9544545999997354,1.99316,-0.0031782653449314233,0.14778933853931117,-0.3,-0.3,0.7374329074575591,0.7333333333333333,trial_list_0.5_green.csv,0.7335501999987173,0.7666812999996182,p4_base_01,001,2023-05-02_15h06.27.648,expectation_shapes_perceived_time,2022.2.4,119.62151751751745,
,167,0.5,none,,green,red,,240.8348377812938,,,,,0,51,51,47,trial,,,,,,green,0.2408348377812938,0.24166666666666667,2.2913373000010324,0.9949351000032038,3e-05,3e-05,0.03335,0.24171239999850513,0.2747961999994004,2.00021199999901,,2.2913373000010324,2.2913373000010324,2.491415500000585,2.69956860000093,0.4082312999998976,,,,None,,3.5668263000006846,1.2754889999996522,0.8672576999997545,1.66581,-0.12821719973917906,0.07356724575198798,0.167,0.16666666666666666,0.4411648377812938,0.44166666666666665,trial_list_0.5_green.csv,0.4416347999977006,0.4751240000005055,p4_base_01,001,2023-05-02_15h06.27.648,expectation_shapes_perceived_time,2022.2.4,119.62151751751745,
,167,0.5,none,,green,red,,1259.6607809347286,,,,,0,52,52,41,trial,,,,,,green,1.2596607809347287,1.2583333333333333,2.2916564000006474,0.991304900002433,3e-05,3e-05,0.0334,1.2585870000002615,1.2920572000002721,2.000012299999071,2.033295299999736,2.2916564000006474,2.2916564000006474,2.4917299000007915,2.79973610000161,0.5080797000009625,,,,None,,3.5837543000016012,1.2920979000009538,0.7840181999999913,1.82631,-0.07671716914964424,0.1263576903641199,0.167,0.16666666666666666,1.4599907809347286,1.4583333333333333,trial_list_0.5_green.csv,1.4589018000006035,1.4921547000012652,p4_base_01,001,2023-05-02_15h06.27.648,expectation_shapes_perceived_time,2022.2.4,119.62151751751745,
,167,0.5,none,,red,green,,1571.706662699831,,,,,0,53,53,352,trial,,,,,,red,1.571706662699831,1.5666666666666667,2.2916511000003084,0.9948024000004807,4e-05,4e-05,,1.5666879000018525,1.5999924999996438,2.000275499998679,,2.2916511000003084,2.2916511000003084,2.4915213999993284,2.724938600000314,0.4332875000000058,,,,None,,3.2829404000003706,0.9912893000000622,0.5580018000000564,1.41938,-0.1431078349946124,-0.03703967493978204,0.167,0.16666666666666666,1.772036662699831,1.7666666666666666,trial_list_0.5_green.csv,1.7668585999999777,1.8000093000009656,p4_base_01,001,2023-05-02_15h06.27.648,expectation_shapes_perceived_time,2022.2.4,119.62151751751745,
,-300,0.5,none,,green,red,,1483.5924990070098,,,,,0,54,54,335,trial,,,,,,green,1.4835924990070097,1.475,2.2919457999996666,0.9973278999968898,3e-05,3e-05,,1.4750880999999936,1.5084128999988025,2.000168099999428,2.033482599999843,2.2919457999996666,2.2919457999996666,2.491844600001059,2.7335123999982898,0.44156659999862313,,,,None,,3.2336781000012706,0.941732300001604,0.5001657000029809,1.61926,-0.13756815627681984,0.054099836738075224,-0.3,-0.3,1.1502624990070098,1.15,trial_list_0.5_green.csv,1.1501422000001185,1.1834043000017118,p4_base_01,001,2023-05-02_15h06.27.648,expectation_shapes_perceived_time,2022.2.4,119.62151751751745,
,-33,0.5,none,,green,red,,1792.1300526919647,,,,,0,55,55,421,trial,,,,,,green,1.7921300526919648,1.7833333333333332,2.2919122999992396,0.9954771999982768,4e-05,4e-05,0.03331,1.783535499998834,1.817025399999693,2.000152900000103,2.0335813999990933,2.2919122999992396,2.2919122999992396,2.492022400001588,2.61673200000223,0.32481970000299043,,,,None,,3.5508011000019906,1.258888800002751,0.9340690999997605,1.69989,-0.11962102681508695,0.08684814275615901,-0.033,-0.03333333333333333,1.7258000526919648,1.7166666666666666,trial_list_0.5_green.csv,1.7167082000014489,1.7502186999990954,p4_base_01,001,2023-05-02_15h06.27.648,expectation_shapes_perceived_time,2022.2.4,119.62151751751745,
,-233,0.5,none,,green,red,,1436.9709440340184,,,,,0,56,56,287,trial,,,,,,green,1.4369709440340184,1.4333333333333333,2.2916913000008208,0.9967880999975023,3e-05,3e-05,0.03329,1.4334457999975712,1.466688599997724,2.000027499998396,2.0333817999999155,2.2916913000008208,2.2916913000008208,2.492227799997636,2.725186299998313,0.4334949999974924,,,,None,,3.658203799997864,1.366512499997043,0.9330174999995506,1.74376,-0.10655607340668949,0.1024577628910476,-0.233,-0.23333333333333334,1.1706409440340184,1.1666666666666667,trial_list_0.5_green.csv,1.1665522000002966,1.199931099999958,p4_base_01,001,2023-05-02_15h06.27.648,expectation_shapes_perceived_time,2022.2.4,119.62151751751745,
,233,0.5,none,,green,red,,339.15054939425767,,,,,0,57,57,181,trial,,,,,,green,0.33915054939425765,0.3416666666666667,2.291695100000652,0.9958651999986614,3e-05,3e-05,0.03308,0.3415994999995746,0.37471630000072764,2.0004592000004777,2.033723900000041,2.291695100000652,2.291695100000652,2.4913108000000648,2.841539599998214,0.5498444999975618,,,,None,,3.524571499998274,1.2328763999976218,0.68303190000006,1.77994,-0.09424749702292864,0.11388239223603877,0.233,0.23333333333333334,0.6054805493942578,0.6,trial_list_0.5_green.csv,0.5994422000003397,0.6331485999980941,p4_base_01,001,2023-05-02_15h06.27.648,expectation_shapes_perceived_time,2022.2.4,119.62151751751745,
,233,0.5,none,,green,red,,1276.3306549441384,,,,,0,58,58,9,trial,,,,,,green,1.2763306549441384,1.275,2.2917873000005784,0.9979209999983141,2e-05,2e-05,,1.274939999999333,1.3083821999971406,2.0000161999996635,2.0334549999970477,2.2917873000005784,2.2917873000005784,2.49191289999726,2.783558399998583,0.4917710999980045,,,,None,,3.699995899998612,1.4082085999980336,0.9164375000000291,1.51747,-0.1476008768856591,0.008109938290420829,0.233,0.23333333333333334,1.5426606549441382,1.5416666666666667,trial_list_0.5_green.csv,1.5422106999976677,1.5758457999982056,p4_base_01,001,2023-05-02_15h06.27.648,expectation_shapes_perceived_time,2022.2.4,119.62151751751745,
,-33,0.5,none,,red,green,,837.2022348965666,,,,,0,59,59,118,trial,,,,,,red,0.8372022348965665,0.8333333333333334,2.2913803000010375,0.9951682999999321,6e-05,6e-05,,0.833089600000676,0.866629500000272,2.000379299999622,,2.2913803000010375,2.2913803000010375,2.491420599999401,3.4413853000005474,1.15000499999951,,,,None,,4.274571100002504,1.9831908000014664,0.8331858000019565,1.87547,-0.05636967530608726,0.1366537583177873,-0.033,-0.03333333333333333,0.7708722348965665,0.7666666666666666,trial_list_0.5_green.csv,0.766618000001472,0.7997907999997551,p4_base_01,001,2023-05-02_15h06.27.648,expectation_shapes_perceived_time,2022.2.4,119.62151751751745,
,167,0.5,none,,red,green,,944.735981744755,,,,,0,60,60,106,trial,,,,,,red,0.944735981744755,0.9416666666666667,2.2921028999990085,0.9955950000003213,3e-05,3e-05,0.03339,0.941591700000572,0.9749434999976074,2.0001259999989998,2.033296800000244,2.2921028999990085,2.2921028999990085,2.4920020999998087,2.900372799998877,0.6082698999998684,,,,None,,3.8001484999986133,1.5080455999996047,0.8997756999997364,1.76491,-0.09951802879167002,0.10930668736134246,0.167,0.16666666666666666,1.145065981744755,1.1416666666666666,trial_list_0.5_green.csv,1.141711199998099,1.1749882000003709,p4_base_01,001,2023-05-02_15h06.27.648,expectation_shapes_perceived_time,2022.2.4,119.62151751751745,
,-100,0.5,none,,green,red,,384.71678603085934,,,,,0,61,61,465,trial,,,,,,green,0.38471678603085935,0.3833333333333333,2.2911246000003302,0.9979562999978953,0.00011,0.00011,0.03335,0.38275309999880847,0.4163531999984116,2.0000384999984817,2.0333683999997447,2.2911246000003302,2.2911246000003302,2.4914341000003333,2.9745755000003555,0.6834509000000253,,,,None,,4.115991999999096,1.824867399998766,1.1414164999987406,1.73098,-0.11058301840139659,0.0980978389044647,-0.1,-0.1,0.25138678603085934,0.25,trial_list_0.5_green.csv,0.24935760000153095,0.28266159999839147,p4_base_01,001,2023-05-02_15h06.27.648,expectation_shapes_perceived_time,2022.2.4,119.62151751751745,
