id,delay,expectation,congruency,trial_num,stim_color,distractor_color,block,targetTimeMs,famLoop.thisRepN,famLoop.thisTrialN,famLoop.thisN,famLoop.thisIndex,trialss.thisRepN,trialss.thisTrialN,trialss.thisN,trialss.thisIndex,isTrial,handMove.started,audioCue2Start.started,handOri,handMove.ended,audioCue2End.started,target_color,expected_target_onset,expected_target_onset_in_frames,fixationPoint.started,fixationPoint.stopped,audCueStart.started,placeholder.started,target.started,target.stopped,audCueEnd.started,responsePointer.started,cueForRep.started,space2pass.started,responseStarted,rtUntillMotionTreshold,responsePointer.stopped,rTAfterMotionTreshold,rtDurationBtwRespMotion,perceivedTime,resp_x_coord,resp_y_coord,feedbackPointer.stopped,actualTime_x_coord,actualTime_y_coord,space2pass.keys,space2pass.rt,audCueStart.stopped,audCueEnd.stopped,expected_delay,expected_delays_frame,expected_distractor,expected_distractor_frame,expBlockFiles,distractor.started,distractor.stopped,participant,session,date,expName,psychopyVersion,frameRate,
,,,,,,,,,0,0,0,0,,,,,fam,0.6737108000015724,0.6737108000015724,270.0,2.673726600001828,2.673726600001828,,,,,,,,,,,,,,,,,,,,,,,,,,,,,,,,,,,,p3_high2_01,001,2023-05-02_16h24.27.328,expectation_shapes_perceived_time,2022.2.4,119.99616012332228,
,,,,,,,,,1,0,1,0,,,,,fam,0.4987306000002718,0.4987306000002718,270.0,2.4989862000002177,2.4989862000002177,,,,,,,,,,,,,,,,,,,,,,,,,,,,,,,,,,,,p3_high2_01,001,2023-05-02_16h24.27.328,expectation_shapes_perceived_time,2022.2.4,119.99616012332228,
,,,,,,,,,2,0,2,0,,,,,fam,0.4986155000005965,0.4986155000005965,270.0,2.498781100002816,2.498781100002816,,,,,,,,,,,,,,,,,,,,,,,,,,,,,,,,,,,,p3_high2_01,001,2023-05-02_16h24.27.328,expectation_shapes_perceived_time,2022.2.4,119.99616012332228,
,,,,,,,,,3,0,3,0,,,,,fam,0.49867599999925005,0.49867599999925005,270.0,2.498592700001609,2.498592700001609,,,,,,,,,,,,,,,,,,,,,,,,,,,,,,,,,,,,p3_high2_01,001,2023-05-02_16h24.27.328,expectation_shapes_perceived_time,2022.2.4,119.99616012332228,
,,,,,,,,,4,0,4,0,,,,,fam,0.4990700000016659,0.4990700000016659,270.0,2.4988951000013913,2.4988951000013913,,,,,,,,,,,,,,,,,,,,,,,,,,,,,,,,,,,,p3_high2_01,001,2023-05-02_16h24.27.328,expectation_shapes_perceived_time,2022.2.4,119.99616012332228,
,,,,,,,,,,,,,0,0,0,0,test,,,,,,red,1.847267584181957,1.8499999999999999,2.300461599999835,0.9984292000008281,2.840000161086209e-05,3e-05,1.8498728000013216,1.883546799999749,1.999913400002697,2.300461599999835,2.300461599999835,2.600323599999683,3.475062400000752,1.174600800000917,10.788870700002008,8.488409100002173,7.313808300001256,1.4028,-0.14098507746528188,-0.044440948331447544,10.788870700002008,-0.06823861391119787,0.13113078024616648,space,8.18424099999902,,,,,,,,,,p3_high2_01,001,2023-05-02_16h24.27.328,expectation_shapes_perceived_time,2022.2.4,119.99616012332228,
,,,,,,,,,,,,,1,0,1,0,test,,,,,,red,1.261462917491174,1.2583333333333333,2.300107200000639,0.996302999999898,1.4499997632810846e-05,1e-05,1.2583778000007442,1.2918501999993168,2.000206699998671,2.300107200000639,2.300107200000639,2.5997609999976703,2.8081442000002426,0.5080369999996037,7.758476399998472,5.458369199997833,4.950332199998229,0.01696,0.007872731682769406,0.14761371905192636,7.758476399998472,-0.10822262922500536,-0.10069584142414692,space,5.151804799999809,0.03347329999814974,2.033586199999263,,,,,,,,p3_high2_01,001,2023-05-02_16h24.27.328,expectation_shapes_perceived_time,2022.2.4,119.99616012332228,
,,,,,,,,,,,,,2,0,2,0,test,,,,,,green,0.7521257680180728,0.75,2.2992262999978266,0.998778900000616,0.00011219999942113645,0.00011,0.7494177999979001,0.7826537000000826,1.9991708999987168,2.2992262999978266,2.2992262999978266,2.5995933999984118,2.491354300000239,0.1921280000024126,5.8079794999976,3.5087531999997736,3.316625199997361,0.13055,0.05894109311262893,0.13556451415904652,5.8079794999976,0.10382661782896799,-0.10522273227153603,space,3.201338399998349,0.033307800000329735,,,,,,,,,p3_high2_01,001,2023-05-02_16h24.27.328,expectation_shapes_perceived_time,2022.2.4,119.99616012332228,
,,,,,,,,,,,,,3,0,3,0,test,,,,,,green,0.7564443633274082,0.7583333333333333,2.3000753999986046,0.9981508999990183,1.2399999832268804e-05,1e-05,0.7582973999997193,0.7916246999993746,1.9997609999991255,2.3000753999986046,2.3000753999986046,2.599838899997849,2.949632500000007,0.6495571000014024,4.999785099997098,2.6997096999984933,2.050152599997091,0.51728,0.14760567978689615,-0.008022047814505225,4.999785099997098,0.10238952111544128,-0.1066216484689696,space,2.3931765999986965,,,,,,,,,,p3_high2_01,001,2023-05-02_16h24.27.328,expectation_shapes_perceived_time,2022.2.4,119.99616012332228,
,,,,,,,,,,,,,4,0,4,0,test,,,,,,red,0.201791332575572,0.2,2.3005067000012787,0.9983167000027606,1.2500000593718141e-05,1e-05,0.20013960000142106,0.23310900000069523,1.9998693999987154,2.3005067000012787,2.3005067000012787,2.6026601000012306,2.508554300002288,0.20804760000100941,4.758461100002023,2.4579544000007445,2.249906799999735,0.122,0.0552813117894571,0.13709765323785364,4.758461100002023,0.0875601182597285,0.11910086333369832,space,2.1503529000001436,,,,,,,,,,p3_high2_01,001,2023-05-02_16h24.27.328,expectation_shapes_perceived_time,2022.2.4,119.99616012332228,
,,,,,,,,,0,0,0,0,0,-1,-1,0,fam,0.549130100000184,0.549130100000184,270.0,2.549351800000295,2.549351800000295,,,,,,,,,,,,,,,,,,,,,,,,,,,,,,,,,,,,p3_high2_01,001,2023-05-02_16h24.27.328,expectation_shapes_perceived_time,2022.2.4,119.99616012332228,
,,,,,,,,,1,0,1,0,0,-1,-1,0,fam,0.49489919999905396,0.49489919999905396,270.0,2.4944916000022204,2.4944916000022204,,,,,,,,,,,,,,,,,,,,,,,,,,,,,,,,,,,,p3_high2_01,001,2023-05-02_16h24.27.328,expectation_shapes_perceived_time,2022.2.4,119.99616012332228,
,,,,,,,,,2,0,2,0,0,-1,-1,0,fam,0.49883520000003045,0.49883520000003045,270.0,2.4989352999982657,2.4989352999982657,,,,,,,,,,,,,,,,,,,,,,,,,,,,,,,,,,,,p3_high2_01,001,2023-05-02_16h24.27.328,expectation_shapes_perceived_time,2022.2.4,119.99616012332228,
,,,,,,,,,3,0,3,0,0,-1,-1,0,fam,0.4984283999983745,0.4984283999983745,270.0,2.4983360999976867,2.4983360999976867,,,,,,,,,,,,,,,,,,,,,,,,,,,,,,,,,,,,p3_high2_01,001,2023-05-02_16h24.27.328,expectation_shapes_perceived_time,2022.2.4,119.99616012332228,
1,500,0.5,none,98,red,green,no_Expectation,,,,,,0,0,0,5,train_doubleStim,,,,,,red,0.5750924566841429,0.575,2.2996630999987246,0.9992496999984724,2e-05,2e-05,0.5746866000008595,0.6079456000006758,1.9998316000019258,2.2996630999987246,2.2996630999987246,2.4998583999986295,2.4998583999986295,0.20019529999990482,3.1416776000005484,0.8420145000018238,0.6418192000019189,1.80691,-0.08427145514855068,0.12145003830232304,,,,None,,,,0.5,0.5,1.1084224566841427,1.1083333333333334,training_double_stim.csv,1.1087153000007675,1.1419954000011785,p3_high2_01,001,2023-05-02_16h24.27.328,expectation_shapes_perceived_time,2022.2.4,119.99616012332228,
1,-500,0.5,none,77,green,red,no_Expectation,,,,,,0,1,1,1,train_doubleStim,,,,,,green,0.7463219618215512,0.75,2.300208799999382,0.9983400999990408,1e-05,1e-05,0.7501945999974851,0.7835091999986616,2.0006649999995716,2.300208799999382,2.300208799999382,2.5002457999980834,2.316795799997635,0.016586999998253305,3.199952499999199,0.8997436999998172,0.8831567000015639,0.07595,0.0349383199019277,0.14363531515236944,,,,None,,0.03381,2.0336754999989353,-0.5,-0.5,0.21299196182155122,0.21666666666666667,training_double_stim.csv,0.21659139999974286,0.25003319999814266,p3_high2_01,001,2023-05-02_16h24.27.328,expectation_shapes_perceived_time,2022.2.4,119.99616012332228,
1,500,0.5,none,60,red,green,no_Expectation,,,,,,0,2,2,8,train_doubleStim,,,,,,red,0.15662903553694194,0.15833333333333333,2.299965500002145,0.9973282999999356,2e-05,2e-05,0.1583734000014374,0.19189919999917038,1.9999413000005006,2.299965500002145,2.299965500002145,2.5006011000004946,2.299965500002145,0.0,3.2582857999987027,0.9583202999965579,0.9583202999965579,1.89942,-0.045934508272747775,0.14050555471664025,,,,None,,0.03351,2.0333944000012707,0.5,0.5,0.689959035536942,0.6916666666666667,training_double_stim.csv,0.6916932000021916,0.7253014999987499,p3_high2_01,001,2023-05-02_16h24.27.328,expectation_shapes_perceived_time,2022.2.4,119.99616012332228,
1,500,0.5,none,33,green,red,no_Expectation,,,,,,0,3,3,7,train_doubleStim,,,,,,green,0.7102684463692666,0.7083333333333334,2.2998881000021356,0.9983787999990454,3e-05,3e-05,0.7085062000005564,0.7416726000010385,1.999890900002356,2.2998881000021356,2.2998881000021356,2.5000166000027093,2.2998881000021356,0.0,2.9998820000000705,0.6999938999979349,0.6999938999979349,1.74564,-0.10594894244595554,0.10308545751498377,,,,None,,,,0.5,0.5,1.2435984463692666,1.2416666666666667,training_double_stim.csv,1.2415273000005982,1.2750930000001972,p3_high2_01,001,2023-05-02_16h24.27.328,expectation_shapes_perceived_time,2022.2.4,119.99616012332228,
1,-500,0.5,none,46,red,green,no_Expectation,,,,,,0,4,4,4,train_doubleStim,,,,,,red,0.7206811513635614,0.7166666666666667,2.3002813999992213,0.9981582000000344,1e-05,1e-05,0.7167059999992489,0.7503518000012264,2.000063499999669,2.3002813999992213,2.3002813999992213,2.5000270000018645,2.3002813999992213,0.0,3.333373199999187,1.0330917999999656,1.0330917999999656,1.9813,-0.008680495368927125,0.14756842127176112,,,,None,,,,-0.5,-0.5,0.18735115136356142,0.18333333333333332,training_double_stim.csv,0.18360409999877447,0.2170402000010654,p3_high2_01,001,2023-05-02_16h24.27.328,expectation_shapes_perceived_time,2022.2.4,119.99616012332228,
1,500,0.5,none,25,green,red,no_Expectation,,,,,,0,5,5,6,train_doubleStim,,,,,,green,0.4252650350585679,0.425,2.299679700001434,0.9989722999998776,0.00013,0.00013,0.4245136999998067,0.4577973000014026,1.9993247999991581,2.299679700001434,2.299679700001434,2.49994180000067,2.4829938000002585,0.18331409999882453,2.924222199999349,0.624542499997915,0.44122839999909047,1.87343,-0.05724206482400175,0.1362906305333375,,,,None,,0.03333,2.032988499999192,0.5,0.5,0.958595035058568,0.9583333333333334,training_double_stim.csv,0.9577917999995407,0.9909346999993431,p3_high2_01,001,2023-05-02_16h24.27.328,expectation_shapes_perceived_time,2022.2.4,119.99616012332228,
1,-500,0.5,none,23,green,red,no_Expectation,,,,,,0,6,6,2,train_doubleStim,,,,,,green,0.7951726166181756,0.7916666666666666,2.2999669999990147,0.9989983000014035,1e-05,1e-05,0.7913236999993387,0.8245691000010993,1.9998976999995648,2.2999669999990147,2.2999669999990147,2.4996543000015663,2.532899300000281,0.2329323000012664,3.249760899998364,0.9497938999993494,0.716861599998083,0.20055,0.08709349600508136,0.11944250880696872,,,,None,,,,-0.5,-0.5,0.26184261661817565,0.2583333333333333,training_double_stim.csv,0.2582741000005626,0.2913092999988294,p3_high2_01,001,2023-05-02_16h24.27.328,expectation_shapes_perceived_time,2022.2.4,119.99616012332228,
1,500,0.5,none,88,red,green,no_Expectation,,,,,,0,7,7,9,train_doubleStim,,,,,,red,0.39263449583322213,0.39166666666666666,2.3003329999992275,0.9972221999996691,3e-05,3e-05,0.39145519999874523,0.4246125999998185,2.0003390999991097,2.3003329999992275,2.3003329999992275,2.4997829999992973,2.6748880999984976,0.37455509999927017,3.1334390999982134,0.8331060999989859,0.4585509999997157,0.20383,0.08832178594898965,0.11853713377364403,,,,None,,,,0.5,0.5,0.9259644958332222,0.9249999999999999,training_double_stim.csv,0.9247684999972989,0.9583158999994339,p3_high2_01,001,2023-05-02_16h24.27.328,expectation_shapes_perceived_time,2022.2.4,119.99616012332228,
1,-500,0.5,none,68,red,green,no_Expectation,,,,,,0,8,8,3,train_doubleStim,,,,,,red,1.48892860625243,1.4916666666666667,2.299921500001801,0.9963490000009187,1e-05,1e-05,1.4919141000027594,1.5248443000018597,1.9999571000007563,2.299921500001801,2.299921500001801,2.499858099999983,2.299921500001801,0.0,3.2001318000002357,0.9002102999984345,0.9002102999984345,0.43462,0.144716321362804,0.03014923361725083,,,,None,,0.03331,2.033174500000314,-0.5,-0.5,0.95559860625243,0.9583333333333334,training_double_stim.csv,0.9583089000007021,0.9920882000005804,p3_high2_01,001,2023-05-02_16h24.27.328,expectation_shapes_perceived_time,2022.2.4,119.99616012332228,
1,-500,0.5,none,59,green,red,no_Expectation,,,,,,0,9,9,0,train_doubleStim,,,,,,green,1.2875777596908016,1.2916666666666667,2.3001650999976846,0.9971598999982234,2e-05,2e-05,1.291726399998879,1.3249432999982673,1.9999877999980527,2.3001650999976846,2.3001650999976846,2.499789999998029,2.691444500000216,0.3912794000025315,3.158164199998282,0.8579991000005975,0.46671969999806606,0.25776,0.10704461031679283,0.10194724792075507,,,,None,,0.03335,2.0335725999975693,-0.5,-0.5,0.7542477596908015,0.7583333333333333,training_double_stim.csv,0.7580690999966464,0.7916818999983661,p3_high2_01,001,2023-05-02_16h24.27.328,expectation_shapes_perceived_time,2022.2.4,119.99616012332228,
,,,,,,,,,0,0,0,0,0,-1,-1,0,fam,0.5404658000006748,0.5404658000006748,270.0,2.5404686000001675,2.5404686000001675,,,,,,,,,,,,,,,,,,,,,,,,,,,,,,,,,,,,p3_high2_01,001,2023-05-02_16h24.27.328,expectation_shapes_perceived_time,2022.2.4,119.99616012332228,
,,,,,,,,,1,0,1,0,0,-1,-1,0,fam,0.4989136999975017,0.4989136999975017,270.0,2.4988453999976628,2.4988453999976628,,,,,,,,,,,,,,,,,,,,,,,,,,,,,,,,,,,,p3_high2_01,001,2023-05-02_16h24.27.328,expectation_shapes_perceived_time,2022.2.4,119.99616012332228,
,,,,,,,,,2,0,2,0,0,-1,-1,0,fam,0.4987380000020494,0.4987380000020494,270.0,2.4983643000014126,2.4983643000014126,,,,,,,,,,,,,,,,,,,,,,,,,,,,,,,,,,,,p3_high2_01,001,2023-05-02_16h24.27.328,expectation_shapes_perceived_time,2022.2.4,119.99616012332228,
,,,,,,,,,3,0,3,0,0,-1,-1,0,fam,0.4986537999975553,0.4986537999975553,270.0,2.4985790999999153,2.4985790999999153,,,,,,,,,,,,,,,,,,,,,,,,,,,,,,,,,,,,p3_high2_01,001,2023-05-02_16h24.27.328,expectation_shapes_perceived_time,2022.2.4,119.99616012332228,
,-300,0.8,met,,red,green,,1049.8637698198258,,,,,0,0,0,41,trial,,,,,,red,1.0498637698198259,1.05,2.2996874999989814,0.9910860999989382,1e-05,1e-05,1.0495590999998967,1.083124199998565,1.9995407999995223,2.2996874999989814,2.2996874999989814,2.4994802000001073,2.2996874999989814,0.0,2.899422099999356,0.5997346000003745,0.5997346000003745,1.82306,-0.07800398272734797,0.12556738682938945,,,,None,,0.03301,2.03290940000079,-0.3,-0.3,0.7165337698198259,0.7166666666666667,trial_list_0.8_red.csv,0.7164541999991343,0.7497756999982812,p3_high2_01,001,2023-05-02_16h24.27.328,expectation_shapes_perceived_time,2022.2.4,119.99616012332228,
,-167,0.8,met,,red,green,,378.6514828014917,,,,,0,1,1,383,trial,,,,,,red,0.3786514828014917,0.375,2.2998264000016206,0.9984972999991442,1e-05,1e-05,0.3749409000010928,0.4080343999994511,2.0000832000005175,2.2998264000016206,2.2998264000016206,2.499922899998637,2.2998264000016206,0.0,2.9330100000006496,0.633183599999029,0.633183599999029,1.57356,-0.14389394201611255,0.033857398121438245,,,,None,,0.03298,,-0.167,-0.16666666666666666,0.1783214828014917,0.175,trial_list_0.8_red.csv,0.17464860000109184,0.20836449999842444,p3_high2_01,001,2023-05-02_16h24.27.328,expectation_shapes_perceived_time,2022.2.4,119.99616012332228,
,-33,0.8,met,,red,green,,1291.9329781517336,,,,,0,2,2,468,trial,,,,,,red,1.2919329781517335,1.2916666666666667,2.3004744999998366,0.9969862999969337,1e-05,1e-05,1.2920363000012003,1.3253528000022925,2.000091500001872,2.3004744999998366,2.3004744999998366,2.5006192000000738,2.3167744999991555,0.01629999999931897,3.3670657000002393,1.0665912000004028,1.0502912000010838,0.01962,0.009107572766960111,0.14754267882475378,,,,None,,,,-0.033,-0.03333333333333333,1.2256029781517337,1.225,trial_list_0.8_red.csv,1.2254558999993606,1.2587638000004517,p3_high2_01,001,2023-05-02_16h24.27.328,expectation_shapes_perceived_time,2022.2.4,119.99616012332228,
,233,0.1999999999999999,unmet,,green,red,,170.3594978926634,,,,,0,3,3,471,trial,,,,,,green,0.1703594978926634,0.16666666666666666,2.299919500001124,0.9972089000002597,1e-05,1e-05,0.16648340000028838,0.20011370000065654,2.0002394000002823,2.299919500001124,2.299919500001124,2.500025100001949,2.4584535000030883,0.15853400000196416,3.0586336000014853,0.7587141000003612,0.600180099998397,1.70781,-0.11742476265766395,0.0897954067382136,,,,None,,,,0.233,0.23333333333333334,0.43668949789266337,0.43333333333333335,trial_list_0.8_red.csv,0.43313380000108737,0.4665028000017628,p3_high2_01,001,2023-05-02_16h24.27.328,expectation_shapes_perceived_time,2022.2.4,119.99616012332228,
,-33,0.8,met,,red,green,,1211.828196576804,,,,,0,4,4,224,trial,,,,,,red,1.211828196576804,1.2083333333333333,2.3001005000005534,0.9982640000016545,1e-05,1e-05,1.2082644000001892,1.2415476999995008,2.000655399999232,2.3001005000005534,2.3001005000005534,2.5001577000002726,2.3001005000005534,0.0,3.066640400000324,0.7665398999997706,0.7665398999997706,0.19743,0.08592066964233423,0.12028893749926792,,,,None,,0.03322,2.0337015000004612,-0.033,-0.03333333333333333,1.145498196576804,1.1416666666666666,trial_list_0.8_red.csv,1.141683899997588,1.175041999998939,p3_high2_01,001,2023-05-02_16h24.27.328,expectation_shapes_perceived_time,2022.2.4,119.99616012332228,
,167,0.8,met,,red,green,,234.05852074581452,,,,,0,5,5,108,trial,,,,,,red,0.2340585207458145,0.23333333333333334,2.2999724999972386,0.998431600000913,1e-05,1e-05,0.2333214999998745,0.26675299999988056,2.0002301999993506,2.2999724999972386,2.2999724999972386,2.4999398999971163,2.474885699997685,0.17491320000044652,3.041878699998051,0.7419062000008125,0.566993000000366,1.99277,-0.0033587578797573633,0.14778534670932397,,,,None,,0.03374,2.033355499999743,0.167,0.16666666666666666,0.4343885207458145,0.43333333333333335,trial_list_0.8_red.csv,0.433421299996553,0.4669992999988608,p3_high2_01,001,2023-05-02_16h24.27.328,expectation_shapes_perceived_time,2022.2.4,119.99616012332228,
,-33,0.1999999999999999,unmet,,green,red,,1204.150646377276,,,,,0,6,6,61,trial,,,,,,green,1.204150646377276,1.2,2.3001444000001356,0.996034799998597,1e-05,1e-05,1.2001452000004065,1.2334217999996326,2.0001430999982404,2.3001444000001356,2.3001444000001356,2.500029800001357,2.591968900000211,0.2918245000000752,3.191704100001516,0.8915597000013804,0.5997352000013052,0.19978,0.08680604694376828,0.11965157821978871,,,,None,,0.03325,2.033734100001311,-0.033,-0.03333333333333333,1.137820646377276,1.1416666666666666,trial_list_0.8_red.csv,1.1417844999996305,1.1753323000011733,p3_high2_01,001,2023-05-02_16h24.27.328,expectation_shapes_perceived_time,2022.2.4,119.99616012332228,
,100,0.1999999999999999,unmet,,green,red,,634.7861303484563,,,,,0,7,7,17,trial,,,,,,green,0.6347861303484562,0.6333333333333333,2.300107700000808,0.9979424999983166,1e-05,1e-05,0.6335467000026256,0.6665400000019872,1.9999196999997366,2.300107700000808,2.300107700000808,2.4998847999995633,2.7415922000000137,0.4414844999992056,3.2585534999998345,0.9584457999990263,0.5169612999998208,0.43305,0.14456591263682234,0.03086238584381601,,,,None,,0.03321,2.033238700001675,0.1,0.1,0.7681161303484563,0.7666666666666666,trial_list_0.8_red.csv,0.7665713999995205,0.8001734999998007,p3_high2_01,001,2023-05-02_16h24.27.328,expectation_shapes_perceived_time,2022.2.4,119.99616012332228,
,-100,0.8,met,,red,green,,851.9672841803958,,,,,0,8,8,457,trial,,,,,,red,0.8519672841803958,0.85,2.3000493999970786,0.998165599998174,1e-05,1e-05,0.8501148999966972,0.8833163999988756,1.9999848999977985,2.3000493999970786,2.3000493999970786,2.5004214999971737,2.3000493999970786,0.0,3.250384599999961,0.9503352000028826,0.9503352000028826,0.10474,0.047768258462087695,0.1398927569246854,,,,None,,0.03335,2.033420699997805,-0.1,-0.1,0.7186372841803957,0.7166666666666667,trial_list_0.8_red.csv,0.7166637999980594,0.7502105999992636,p3_high2_01,001,2023-05-02_16h24.27.328,expectation_shapes_perceived_time,2022.2.4,119.99616012332228,
,33,0.8,met,,red,green,,1634.5259426982757,,,,,0,9,9,113,trial,,,,,,red,1.6345259426982757,1.6333333333333333,2.2997165999986464,0.9982841999990342,5e-05,5e-05,1.6332495999995444,1.6665369000002102,2.000092599999334,2.2997165999986464,2.2997165999986464,2.4999004999990575,2.2997165999986464,0.0,3.067117499998858,0.7674009000002115,0.7674009000002115,0.45849,0.1465684185014209,0.0192220876723175,,,,None,,0.03335,2.0333436999972037,0.033,0.03333333333333333,1.7008559426982757,1.7,trial_list_0.8_red.csv,1.6998019999991811,1.7332411999996111,p3_high2_01,001,2023-05-02_16h24.27.328,expectation_shapes_perceived_time,2022.2.4,119.99616012332228,
,100,0.1999999999999999,unmet,,green,red,,963.8797437054274,,,,,0,10,10,317,trial,,,,,,green,0.9638797437054274,0.9666666666666667,2.2997166000022844,0.9971120999980485,1e-05,1e-05,0.9664167000009911,0.9998577000005753,2.0002702999991016,2.2997166000022844,2.2997166000022844,2.4998446999998123,2.319002600001113,0.01928599999882863,2.849608000000444,0.5498913999981596,0.530605399999331,1.93281,-0.030973325235411554,0.14454218443192057,,,,None,,0.03304,2.0337046999993618,0.1,0.1,1.0972097437054271,1.1,trial_list_0.8_red.csv,1.0995449000001827,1.133243100000982,p3_high2_01,001,2023-05-02_16h24.27.328,expectation_shapes_perceived_time,2022.2.4,119.99616012332228,
,-100,0.8,met,,red,green,,402.9279365969748,,,,,0,11,11,479,trial,,,,,,red,0.4029279365969748,0.4,2.299616000000242,0.9960947999970813,1e-05,1e-05,0.39974849999998696,0.4332226000005903,1.999859200001083,2.299616000000242,2.299616000000242,2.4996926999992866,2.458059399999911,0.15844339999966905,3.0497601999995823,0.7501441999993403,0.5917007999996713,0.23974,0.10110257795243574,0.10784274981593145,,,,None,,,,-0.1,-0.1,0.26959793659697484,0.26666666666666666,trial_list_0.8_red.csv,0.26649470000120346,0.29979739999907906,p3_high2_01,001,2023-05-02_16h24.27.328,expectation_shapes_perceived_time,2022.2.4,119.99616012332228,
,167,0.8,met,,red,green,,780.7828190287634,,,,,0,12,12,93,trial,,,,,,red,0.7807828190287633,0.7833333333333333,2.2999736999991,0.9981068999986746,1e-05,1e-05,0.78336119999949,0.8162960000008752,1.999705800000811,2.2999736999991,2.2999736999991,2.499766199998703,2.4162348999998358,0.1162612000007357,2.9745981999985815,0.6746244999994815,0.5583632999987458,0.0053,0.002463383045307026,0.14780298271842157,,,,None,,,,0.167,0.16666666666666666,0.9811128190287633,0.9833333333333333,trial_list_0.8_red.csv,0.9832377999991877,1.016732399999455,p3_high2_01,001,2023-05-02_16h24.27.328,expectation_shapes_perceived_time,2022.2.4,119.99616012332228,
,33,0.8,met,,red,green,,831.046066983627,,,,,0,13,13,154,trial,,,,,,red,0.831046066983627,0.8333333333333334,2.300209899996844,0.9969357999980275,3e-05,3e-05,0.8335678999974334,0.8667887999981758,2.000158199996804,2.300209899996844,2.300209899996844,2.500215499996557,2.41682469999796,0.11661480000111624,3.016763199997513,0.716553300000669,0.5999384999995527,0.32127,0.1251267991307901,0.07870879300162605,,,,None,,0.03339,2.03355559999909,0.033,0.03333333333333333,0.897376066983627,0.9,trial_list_0.8_red.csv,0.9000831999983347,0.9334427999965556,p3_high2_01,001,2023-05-02_16h24.27.328,expectation_shapes_perceived_time,2022.2.4,119.99616012332228,
,233,0.8,met,,red,green,,862.5331050045104,,,,,0,14,14,50,trial,,,,,,red,0.8625331050045104,0.8666666666666667,2.3001125999981014,0.9987240999980713,4e-05,4e-05,0.8665497000001778,0.8998805999981414,1.9999204000014288,2.3001125999981014,2.3001125999981014,2.499867800001084,2.374829399999726,0.0747168000016245,3.0584453999981633,0.758332800000062,0.6836159999984375,1.98166,-0.008514121952171157,0.1475781138376334,,,,None,,0.0334,2.033279399998719,0.233,0.23333333333333334,1.1288631050045104,1.125,trial_list_0.8_red.csv,1.1250473000000056,1.158348199998727,p3_high2_01,001,2023-05-02_16h24.27.328,expectation_shapes_perceived_time,2022.2.4,119.99616012332228,
,233,0.8,met,,red,green,,338.2621198902825,,,,,0,15,15,465,trial,,,,,,red,0.33826211989028254,0.3416666666666667,2.300021499999275,0.9973939999981667,1e-05,1e-05,0.3416938000009395,0.3749362000016845,1.9999518000004173,2.300021499999275,2.300021499999275,2.5000194999993255,2.3833259000020917,0.08330440000281669,3.03332170000067,0.7333002000013948,0.6499957999985781,0.31695,0.12404653946767707,0.08040053484016108,,,,None,,,,0.233,0.23333333333333334,0.6045921198902826,0.6083333333333333,trial_list_0.8_red.csv,0.6082045000002836,0.6416382999996131,p3_high2_01,001,2023-05-02_16h24.27.328,expectation_shapes_perceived_time,2022.2.4,119.99616012332228,
,33,0.8,met,,red,green,,838.9799289526009,,,,,0,16,16,278,trial,,,,,,red,0.8389799289526009,0.8416666666666667,2.3000011000003724,0.9987977999990107,1e-05,1e-05,0.8414379999994708,0.874845299997105,1.9998930000001565,2.3000011000003724,2.3000011000003724,2.4998669999986305,2.3000011000003724,0.0,2.933084999996936,0.6330838999965636,0.6330838999965636,1.92612,-0.0340031698706823,0.143859564837502,,,,None,,0.03326,2.033338899997034,0.033,0.03333333333333333,0.9053099289526009,0.9083333333333333,trial_list_0.8_red.csv,0.9081387999976869,0.9417102999977942,p3_high2_01,001,2023-05-02_16h24.27.328,expectation_shapes_perceived_time,2022.2.4,119.99616012332228,
,-233,0.1999999999999999,unmet,,green,red,,816.9736562623638,,,,,0,17,17,306,trial,,,,,,green,0.8169736562623637,0.8166666666666667,2.3000237999985984,0.9979276999983995,3e-05,3e-05,0.8165993000002345,0.8500206999997317,2.0000868999995873,2.3000237999985984,2.3000237999985984,2.5001569999985804,2.3000237999985984,0.0,3.033374200000253,0.7333504000016546,0.7333504000016546,0.50837,0.14777235062926783,-0.003888746069191259,,,,None,,0.03336,2.0336010999999417,-0.233,-0.23333333333333334,0.5506436562623637,0.55,trial_list_0.8_red.csv,0.5502009999981965,0.583528800001659,p3_high2_01,001,2023-05-02_16h24.27.328,expectation_shapes_perceived_time,2022.2.4,119.99616012332228,
,233,0.8,met,,red,green,,1233.4204516936247,,,,,0,18,18,270,trial,,,,,,red,1.2334204516936247,1.2333333333333334,2.299969100000453,0.9968613000019104,1e-05,1e-05,1.2335482000016782,1.2666567999986,2.000134599999001,2.299969100000453,2.299969100000453,2.4999822999998287,2.758820300001389,0.45885120000093593,3.2168678999987605,0.9168987999983074,0.45804759999737144,0.68486,0.12358753627761625,-0.08110432068218568,,,,None,,,,0.233,0.23333333333333334,1.4997504516936246,1.5,trial_list_0.8_red.csv,1.5002959000012197,1.533404400001018,p3_high2_01,001,2023-05-02_16h24.27.328,expectation_shapes_perceived_time,2022.2.4,119.99616012332228,
,-167,0.1999999999999999,unmet,,green,red,,1173.2042033700018,,,,,0,19,19,291,trial,,,,,,green,1.1732042033700019,1.175,2.300024399999529,0.9982304999975895,1e-05,1e-05,1.1756499000002805,1.2086128999981156,2.0002010999996855,2.300024399999529,2.300024399999529,2.5004709999993793,2.5500403000005463,0.25001590000101714,3.3169849000005343,1.0169605000010051,0.766944599999988,0.24658,0.10339708244666065,0.10564484510854459,,,,None,,0.03344,2.033357000000251,-0.167,-0.16666666666666666,0.9728742033700017,0.975,trial_list_0.8_red.csv,0.9755641000010655,1.0089631999981066,p3_high2_01,001,2023-05-02_16h24.27.328,expectation_shapes_perceived_time,2022.2.4,119.99616012332228,
,-233,0.8,met,,red,green,,999.6587733284578,,,,,0,20,20,245,trial,,,,,,red,0.9996587733284578,1.0,2.3000255999977526,0.9961614999992889,2e-05,2e-05,0.9998509999968519,1.0331456999992952,2.00007469999764,2.3000255999977526,2.3000255999977526,2.5004059999992023,2.6250198999987333,0.32499430000098073,3.2749583999975584,0.9749327999998059,0.6499384999988251,0.4885,0.1477270434207035,0.0053395316899049455,,,,None,,0.03328,2.0333707999998296,-0.233,-0.23333333333333334,0.7333287733284577,0.7333333333333333,trial_list_0.8_red.csv,0.7332300999987638,0.7668315999981132,p3_high2_01,001,2023-05-02_16h24.27.328,expectation_shapes_perceived_time,2022.2.4,119.99616012332228,
,167,0.8,met,,red,green,,391.660250216354,,,,,0,21,21,447,trial,,,,,,red,0.391660250216354,0.39166666666666666,2.300271200001589,0.9986251000009361,1e-05,1e-05,0.3915892000004533,0.4252985000020999,1.9998564000015904,2.300271200001589,2.300271200001589,2.500870500000019,2.4837030000016966,0.18343180000010761,3.249987900002452,0.9497167000008631,0.7662849000007554,0.33334,0.12802061527535852,0.07390880881876369,,,,None,,,,0.167,0.16666666666666666,0.591990250216354,0.5916666666666667,trial_list_0.8_red.csv,0.591525100000581,0.6248352000002342,p3_high2_01,001,2023-05-02_16h24.27.328,expectation_shapes_perceived_time,2022.2.4,119.99616012332228,
,167,0.1999999999999999,unmet,,green,red,,1330.2297435737933,,,,,0,22,22,379,trial,,,,,,green,1.3302297435737933,1.3333333333333333,2.2996683999990637,0.9988874999980908,1e-05,1e-05,1.3331375999987358,1.3662527999986196,2.0002705000006245,2.2996683999990637,2.2996683999990637,2.499707099999796,2.316297900000791,0.016629500001727138,2.9914925000011863,0.6918241000021226,0.6751946000003954,0.53468,0.1469471661549172,-0.01607234629819407,,,,None,,,,0.167,0.16666666666666666,1.5305597435737932,1.5333333333333332,trial_list_0.8_red.csv,1.5331689000013284,1.5663294000005408,p3_high2_01,001,2023-05-02_16h24.27.328,expectation_shapes_perceived_time,2022.2.4,119.99616012332228,
,100,0.1999999999999999,unmet,,green,red,,361.50108295826976,,,,,0,23,23,277,trial,,,,,,green,0.36150108295826977,0.35833333333333334,2.300427899997885,0.9977135000008275,1e-05,1e-05,0.3584019999980228,0.3921526999984053,2.000284699999611,2.300427899997885,2.300427899997885,2.500445399997261,2.549980999996478,0.2495530999985931,3.1917727000000014,0.8913448000021162,0.6417917000035231,0.31283,0.1229965945771262,0.08199772971808414,,,,None,,,,0.1,0.1,0.4948310829582697,0.49166666666666664,trial_list_0.8_red.csv,0.49217229999703704,0.5252857999985281,p3_high2_01,001,2023-05-02_16h24.27.328,expectation_shapes_perceived_time,2022.2.4,119.99616012332228,
,33,0.8,met,,red,green,,494.9334294282805,,,,,0,24,24,433,trial,,,,,,red,0.4949334294282805,0.49166666666666664,2.299095299997134,0.9974672999996983,0.00013,0.00013,0.49104129999977886,0.5248269999974582,1.9993247999991581,2.299095299997134,2.299095299997134,2.499294400000508,2.5908328000004985,0.2917375000033644,3.00743650000004,0.7083412000029057,0.4166036999995413,0.28148,0.11433829758067127,0.09369388273971674,,,,None,,0.03314,2.0326146999977937,0.033,0.03333333333333333,0.5612634294282806,0.5583333333333333,trial_list_0.8_red.csv,0.5577962999996089,0.5910207999986596,p3_high2_01,001,2023-05-02_16h24.27.328,expectation_shapes_perceived_time,2022.2.4,119.99616012332228,
,-167,0.8,met,,red,green,,330.0366560924502,0,0,0,0,0,25,25,97,fam,0.5323377999993681,0.5323377999993681,270.0,2.532805200000439,2.532805200000439,,,,,,,,,,,,,,,,,,,,,,,,,,,,,,,,,,,,p3_high2_01,001,2023-05-02_16h24.27.328,expectation_shapes_perceived_time,2022.2.4,119.99616012332228,
,-167,0.8,met,,red,green,,330.0366560924502,1,0,1,0,0,25,25,97,fam,0.49887590000071214,0.49887590000071214,270.0,2.4986687999989954,2.4986687999989954,,,,,,,,,,,,,,,,,,,,,,,,,,,,,,,,,,,,p3_high2_01,001,2023-05-02_16h24.27.328,expectation_shapes_perceived_time,2022.2.4,119.99616012332228,
,-167,0.8,met,,red,green,,330.0366560924502,2,0,2,0,0,25,25,97,fam,0.49872859999959473,0.49872859999959473,270.0,2.4989170000008016,2.4989170000008016,,,,,,,,,,,,,,,,,,,,,,,,,,,,,,,,,,,,p3_high2_01,001,2023-05-02_16h24.27.328,expectation_shapes_perceived_time,2022.2.4,119.99616012332228,
,-167,0.8,met,,red,green,,330.0366560924502,3,0,3,0,0,25,25,97,fam,0.4985728999999992,0.4985728999999992,270.0,2.4986258999997517,2.4986258999997517,,,,,,,,,,,,,,,,,,,,,,,,,,,,,,,,,,,,p3_high2_01,001,2023-05-02_16h24.27.328,expectation_shapes_perceived_time,2022.2.4,119.99616012332228,
,-167,0.8,met,,red,green,,330.0366560924502,,,,,0,25,25,97,trial,,,,,,red,0.3300366560924502,0.3333333333333333,2.2998922000006132,0.9993609999983164,2e-05,2e-05,0.33299819999956526,0.3662999999978638,1.9995993999982602,2.2998922000006132,2.2998922000006132,2.4997354000006453,2.3167189999985567,0.016826799997943453,3.874732199998107,1.5748399999974936,1.5580131999995501,0.33751,0.12897690132454576,0.07222706474174563,,,,None,,0.03327,2.033284099998127,-0.167,-0.16666666666666666,0.1297066560924502,0.13333333333333333,trial_list_0.8_red.csv,0.1332196000003023,0.16658710000046995,p3_high2_01,001,2023-05-02_16h24.27.328,expectation_shapes_perceived_time,2022.2.4,119.99616012332228,
,233,0.8,met,,red,green,,229.35779554401404,,,,,0,26,26,190,trial,,,,,,red,0.22935779554401403,0.23333333333333334,2.2999376999978267,0.9968872999997984,4e-05,4e-05,0.23307840000052238,0.26669439999750466,1.9999852000000828,2.2999376999978267,2.2999376999978267,2.499635899999703,2.332987599998887,0.03304990000106045,3.5496098000003258,1.249672100002499,1.2166222000014386,0.27288,0.11176363353780064,0.09675060813720053,,,,None,,0.03308,2.0329639999981737,0.233,0.23333333333333334,0.49568779554401404,0.49166666666666664,trial_list_0.8_red.csv,0.491328699998121,0.5248341000005894,p3_high2_01,001,2023-05-02_16h24.27.328,expectation_shapes_perceived_time,2022.2.4,119.99616012332228,
,167,0.8,met,,red,green,,868.6873969555393,,,,,0,27,27,134,trial,,,,,,red,0.8686873969555393,0.8666666666666667,2.3001031999992847,0.9970493000000715,3e-05,3e-05,0.8674014999996871,0.9006853999999294,2.000187099998584,2.3001031999992847,2.3001031999992847,2.5001968999968085,2.3001031999992847,0.0,3.4251648999997997,1.125061700000515,1.125061700000515,0.43411,0.14466799443756262,0.030380278831888152,,,,None,,0.03333,2.0337733999986085,0.167,0.16666666666666666,1.0690173969555392,1.0666666666666667,trial_list_0.8_red.csv,1.0670390999985102,1.1004973999988579,p3_high2_01,001,2023-05-02_16h24.27.328,expectation_shapes_perceived_time,2022.2.4,119.99616012332228,
,300,0.8,met,,red,green,,397.8464175921049,,,,,0,28,28,430,trial,,,,,,red,0.3978464175921049,0.4,2.2996529000010923,0.9978262000004179,1e-05,1e-05,0.3997689000025275,0.4329139000001305,1.999526400002651,2.2996529000010923,2.2996529000010923,2.499892899999395,2.2996529000010923,0.0,3.049545699999726,0.7498927999986336,0.7498927999986336,0.53685,0.14683418295357706,-0.01707374220390431,,,,None,,0.03307,2.0328139000012015,0.3,0.3,0.7311764175921049,0.7333333333333333,trial_list_0.8_red.csv,0.7327110000005632,0.766114900001412,p3_high2_01,001,2023-05-02_16h24.27.328,expectation_shapes_perceived_time,2022.2.4,119.99616012332228,
,-100,0.8,met,,red,green,,1079.8429186758058,,,,,0,29,29,415,trial,,,,,,red,1.0798429186758058,1.0833333333333333,2.299973900000623,0.9972271000006003,1e-05,1e-05,1.0832697999976517,1.1169134999981907,2.001560500000778,2.299973900000623,2.299973900000623,2.5012674999998126,2.299973900000623,0.0,3.308403899998666,1.008429999998043,1.008429999998043,0.70042,0.11947635536641214,-0.08704705890981455,,,,None,,0.03331,,-0.1,-0.1,0.9465129186758058,0.95,trial_list_0.8_red.csv,0.950078099998791,0.9833987999991223,p3_high2_01,001,2023-05-02_16h24.27.328,expectation_shapes_perceived_time,2022.2.4,119.99616012332228,
,300,0.8,met,,red,green,,705.3282533565058,,,,,0,30,30,489,trial,,,,,,red,0.7053282533565058,0.7083333333333334,2.2999387999989267,0.9985196999987238,1e-05,1e-05,0.7083110999992641,0.742016500000318,2.0001978000000236,2.2999387999989267,2.2999387999989267,2.4998967999999877,2.6520643000003474,0.35212550000142073,3.1250924999985727,0.825153699999646,0.4730281999982253,0.29108,0.11710960350155311,0.0902060459403855,,,,None,,,,0.3,0.3,1.0386582533565059,1.0416666666666667,trial_list_0.8_red.csv,1.0415653999989445,1.0750233999970078,p3_high2_01,001,2023-05-02_16h24.27.328,expectation_shapes_perceived_time,2022.2.4,119.99616012332228,
,-167,0.8,met,,red,green,,708.1808365711138,,,,,0,31,31,199,trial,,,,,,red,0.7081808365711137,0.7083333333333334,2.2999381000008725,0.9967549000029976,2e-05,2e-05,0.7082412999989174,0.7416350000021339,2.0001919999995152,2.2999381000008725,2.2999381000008725,2.50044600000183,2.6916038999988814,0.3916657999980089,3.2499052999992273,0.9499671999983548,0.5583014000003459,0.39758,0.14023769450772117,0.046745898169240394,,,,None,,0.03339,2.0334737000011955,-0.167,-0.16666666666666666,0.5078508365711139,0.5083333333333333,trial_list_0.8_red.csv,0.5083451999998942,0.541576100000384,p3_high2_01,001,2023-05-02_16h24.27.328,expectation_shapes_perceived_time,2022.2.4,119.99616012332228,
,233,0.1999999999999999,unmet,,green,red,,892.3445201661846,,,,,0,32,32,325,trial,,,,,,green,0.8923445201661846,0.8916666666666666,2.30027759999939,0.9969707999989623,1e-05,1e-05,0.89182780000192,0.9250580000007176,1.9998873000004096,2.30027759999939,2.30027759999939,2.499989899999491,2.5334827000006044,0.2332051000012143,3.4251834000024246,1.1249058000030345,0.8917007000018202,0.28766,0.11613551721466134,0.0914567198065458,,,,None,,0.03356,2.0333577999990666,0.233,0.23333333333333334,1.1586745201661846,1.1583333333333332,trial_list_0.8_red.csv,1.1584884000003512,1.1924954000023718,p3_high2_01,001,2023-05-02_16h24.27.328,expectation_shapes_perceived_time,2022.2.4,119.99616012332228,
,33,0.1999999999999999,unmet,,green,red,,420.4281651776018,,,,,0,33,33,95,trial,,,,,,green,0.4204281651776018,0.4166666666666667,2.299528100000316,0.9989292999998725,7e-05,7e-05,0.41617910000059055,0.44970850000026985,1.9996400000018184,2.299528100000316,2.299528100000316,2.4995182000020577,2.3164534000025014,0.016925300002185395,3.0079885000013746,0.7084604000010586,0.6915350999988732,0.41375,0.14243059885324028,0.03956405523701119,,,,None,,,,0.033,0.03333333333333333,0.4867581651776018,0.48333333333333334,trial_list_0.8_red.csv,0.482971000001271,0.5163845999995829,p3_high2_01,001,2023-05-02_16h24.27.328,expectation_shapes_perceived_time,2022.2.4,119.99616012332228,
,-100,0.8,met,,red,green,,1785.0694796726866,,,,,0,34,34,31,trial,,,,,,red,1.7850694796726867,1.7833333333333332,2.2996289000002434,0.9974802999968233,1e-05,1e-05,1.7831020000012359,1.8168378000009398,1.9999917999994068,2.2996289000002434,2.2996289000002434,2.499582200001896,2.2996289000002434,0.0,3.3579305999992357,1.0583016999989923,1.0583016999989923,0.60655,0.1396188311865346,-0.04856307171705551,,,,None,,,,-0.1,-0.1,1.6517394796726868,1.65,trial_list_0.8_red.csv,1.6497555999994802,1.6829589000008127,p3_high2_01,001,2023-05-02_16h24.27.328,expectation_shapes_perceived_time,2022.2.4,119.99616012332228,
,33,0.8,met,,red,green,,1285.5671483402016,,,,,0,35,35,7,trial,,,,,,red,1.2855671483402016,1.2833333333333332,2.300072000001819,0.9985922000014398,1e-05,1e-05,1.2832979000013438,1.3166426999996474,2.000197000001208,2.300072000001819,2.300072000001819,2.50036910000199,2.8920041999990644,0.5919321999972453,3.4339838000014424,1.1339117999996233,0.541979600002378,0.66176,0.12914381186545382,-0.0719281990136705,,,,None,,0.03364,2.0335914000024786,0.033,0.03333333333333333,1.3518971483402016,1.35,trial_list_0.8_red.csv,1.349940100000822,1.3833780999993905,p3_high2_01,001,2023-05-02_16h24.27.328,expectation_shapes_perceived_time,2022.2.4,119.99616012332228,
,-167,0.1999999999999999,unmet,,green,red,,1007.3328509159332,,,,,0,36,36,387,trial,,,,,,green,1.0073328509159332,1.0083333333333333,2.3004287000003387,0.9967007999985071,1e-05,1e-05,1.0083211000019219,1.0416667000026791,2.0003090999998676,2.3004287000003387,2.3004287000003387,2.499843300000066,2.320627400000376,0.020198700000037206,3.2250347000008333,0.9246060000004945,0.9044073000004573,0.26446,0.10916551741628926,0.09967286372791628,,,,None,,,2.0337004000029992,-0.167,-0.16666666666666666,0.8070028509159332,0.8083333333333333,trial_list_0.8_red.csv,0.8079695000014908,0.8413546000010683,p3_high2_01,001,2023-05-02_16h24.27.328,expectation_shapes_perceived_time,2022.2.4,119.99616012332228,
,233,0.8,met,,red,green,,815.752518211879,,,,,0,37,37,19,trial,,,,,,red,0.815752518211879,0.8166666666666667,2.299892800001544,0.9984772000025259,1e-05,1e-05,0.8164648000019952,0.8499005000012403,2.000277900002402,2.299892800001544,2.299892800001544,2.4997935999999754,2.299892800001544,0.0,3.52496980000069,1.2250769999991462,1.2250769999991462,0.45034,0.14602786724540134,0.02297067574646763,,,,None,,0.03353,2.0331641000011587,0.233,0.23333333333333334,1.0820825182118787,1.0833333333333333,trial_list_0.8_red.csv,1.0834313000013935,1.1169100000006438,p3_high2_01,001,2023-05-02_16h24.27.328,expectation_shapes_perceived_time,2022.2.4,119.99616012332228,
,167,0.8,met,,red,green,,1669.1161517746837,,,,,0,38,38,225,trial,,,,,,red,1.6691161517746838,1.6666666666666667,2.300557499998831,0.9979569999995874,1e-05,1e-05,1.6666623000019172,1.6997252000001026,1.99987990000227,2.300557499998831,2.300557499998831,2.4997939000022598,2.300557499998831,0.0,3.366622699999425,1.066065200000594,1.066065200000594,0.28415,0.11511813586592737,0.09273405389199704,,,,None,,,,0.167,0.16666666666666666,1.8694461517746837,1.8666666666666667,trial_list_0.8_red.csv,1.8668346000013116,1.8999269000014465,p3_high2_01,001,2023-05-02_16h24.27.328,expectation_shapes_perceived_time,2022.2.4,119.99616012332228,
,100,0.8,met,,red,green,,782.0672623984409,,,,,0,39,39,370,trial,,,,,,red,0.7820672623984409,0.7833333333333333,2.3001881999989564,0.9978961999986495,2e-05,2e-05,0.783260700001847,0.8165468000006513,1.9998467000004894,2.3001881999989564,2.3001881999989564,2.49979059999896,2.391684800000803,0.09149660000184667,3.2164329000006546,0.9162447000016982,0.8247480999998515,0.57266,0.1439887436991443,-0.033451930354346654,,,,None,,,2.0334839999995893,0.1,0.1,0.915397262398441,0.9166666666666666,trial_list_0.8_red.csv,0.9164762000000337,0.9499525999999605,p3_high2_01,001,2023-05-02_16h24.27.328,expectation_shapes_perceived_time,2022.2.4,119.99616012332228,
,-33,0.8,met,,red,green,,250.684104855908,,,,,0,40,40,406,trial,,,,,,red,0.25068410485590803,0.25,2.299795200000517,0.997391199998674,5e-05,5e-05,0.2504689999987022,0.2833433000014338,1.9997255000016594,2.299795200000517,2.299795200000517,2.499909400001343,2.299795200000517,0.0,3.074958199998946,0.7751629999984289,0.7751629999984289,0.24442,0.10267739868416284,0.10634444863716866,,,,None,,0.03318,2.033385399998224,-0.033,-0.03333333333333333,0.18435410485590803,0.18333333333333332,trial_list_0.8_red.csv,0.18386349999855156,0.2166588000000047,p3_high2_01,001,2023-05-02_16h24.27.328,expectation_shapes_perceived_time,2022.2.4,119.99616012332228,
,33,0.8,met,,red,green,,1175.9686340756668,,,,,0,41,41,469,trial,,,,,,red,1.1759686340756668,1.175,2.300352300000668,0.9985322000029555,1e-05,1e-05,1.175208600001497,1.2084924000009778,1.999959000000672,2.300352300000668,2.300352300000668,2.5000997000024654,2.300352300000668,0.0,3.308500400002231,1.0081481000015629,1.0081481000015629,0.64932,0.13185414811358365,-0.06683018466030952,,,,None,,,,0.033,0.03333333333333333,1.2422986340756668,1.2416666666666667,trial_list_0.8_red.csv,1.2416759000007005,1.2751858000010543,p3_high2_01,001,2023-05-02_16h24.27.328,expectation_shapes_perceived_time,2022.2.4,119.99616012332228,
,-100,0.8,met,,red,green,,791.7512688117964,,,,,0,42,42,323,trial,,,,,,red,0.7917512688117965,0.7916666666666666,2.2998379999989993,0.9990842000006523,1e-05,1e-05,0.7913533999999345,0.8245296999994025,2.0001271000000997,2.2998379999989993,2.2998379999989993,2.499943399998301,2.3332346999995934,0.03339670000059414,3.274931600000855,0.9750936000018555,0.9416969000012614,0.2893,0.11660322717704903,0.09085965754055768,,,,None,,0.03318,,-0.1,-0.1,0.6584212688117964,0.6583333333333333,trial_list_0.8_red.csv,0.6579153999991831,0.6914992999991227,p3_high2_01,001,2023-05-02_16h24.27.328,expectation_shapes_perceived_time,2022.2.4,119.99616012332228,
,-300,0.8,met,,red,green,,1783.9497202480077,,,,,0,43,43,65,trial,,,,,,red,1.7839497202480077,1.7833333333333332,2.3084008999976504,0.9969393999999738,2e-05,2e-05,1.7831826000001456,1.8165737999988778,2.0004690999994637,2.3084008999976504,2.3084008999976504,2.5082489999986137,2.3084008999976504,0.0,3.1501088999975764,0.841707999999926,0.841707999999926,0.23903,0.1008626783539464,0.10806715537922829,,,,None,,0.03332,2.0337709999985236,-0.3,-0.3,1.4506197202480078,1.45,trial_list_0.8_red.csv,1.450178600000072,1.4835839999977907,p3_high2_01,001,2023-05-02_16h24.27.328,expectation_shapes_perceived_time,2022.2.4,119.99616012332228,
,-233,0.8,met,,red,green,,1558.4118044899203,,,,,0,44,44,362,trial,,,,,,red,1.5584118044899202,1.5583333333333333,2.300208199998451,0.9985771999999997,2e-05,2e-05,1.5584033000013733,1.5920144000010623,2.000416099999711,2.300208199998451,2.300208199998451,2.499911399998382,2.5998987999992096,0.2996906000007584,3.583339099997829,1.283130899999378,0.9834402999986196,0.46911,0.1471280549134791,0.0143222000358254,,,,None,,0.03347,2.033255599999393,-0.233,-0.23333333333333334,1.2920818044899205,1.2916666666666667,trial_list_0.8_red.csv,1.2917864999981248,1.3253065999997489,p3_high2_01,001,2023-05-02_16h24.27.328,expectation_shapes_perceived_time,2022.2.4,119.99616012332228,
,-167,0.8,met,,red,green,,741.8278919251068,,,,,0,45,45,437,trial,,,,,,red,0.7418278919251068,0.7416666666666667,2.2996214000013424,0.9987986000014644,1e-05,1e-05,0.7415944000022137,0.774875900002371,1.9996499000008043,2.2996214000013424,2.2996214000013424,2.499639699999534,2.2996214000013424,0.0,3.4830108000023756,1.1833894000010332,1.1833894000010332,0.72278,0.11307185775011111,-0.09521840652640937,,,,None,,0.03322,2.033198600001924,-0.167,-0.16666666666666666,0.5414978919251068,0.5416666666666666,trial_list_0.8_red.csv,0.5416115000007267,0.5749777999990329,p3_high2_01,001,2023-05-02_16h24.27.328,expectation_shapes_perceived_time,2022.2.4,119.99616012332228,
,-167,0.1999999999999999,unmet,,green,red,,1668.9439936122224,,,,,0,46,46,62,trial,,,,,,green,1.6689439936122223,1.6666666666666667,2.2999012999971455,0.9984555000010005,1e-05,1e-05,1.6668127999982971,1.6998534999984258,1.9997153999975126,2.2999012999971455,2.2999012999971455,2.4999139999999898,2.474683399999776,0.1747821000026306,3.441417999998521,1.1415167000013753,0.9667345999987447,0.41141,0.14213584439422905,0.04061024125549402,,,,None,,,,-0.167,-0.16666666666666666,1.4686139936122224,1.4666666666666666,trial_list_0.8_red.csv,1.466360899998108,1.5000548999996681,p3_high2_01,001,2023-05-02_16h24.27.328,expectation_shapes_perceived_time,2022.2.4,119.99616012332228,
,33,0.8,met,,red,green,,1030.25718503073,,,,,0,47,47,56,trial,,,,,,red,1.03025718503073,1.0333333333333332,2.2993066999988514,0.9979792000012822,7e-05,7e-05,1.0329061999982514,1.065880999998626,1.9996240000000398,2.2993066999988514,2.2993066999988514,2.499181299997872,2.316135699998995,0.016829000000143424,3.2160140999985742,0.9167073999997228,0.8998783999995794,0.21799,0.0935034801355319,0.11449405730881457,,,,None,,0.03319,,0.033,0.03333333333333333,1.0965871850307298,1.1,trial_list_0.8_red.csv,1.0995046999996703,1.1330146999971475,p3_high2_01,001,2023-05-02_16h24.27.328,expectation_shapes_perceived_time,2022.2.4,119.99616012332228,
,-167,0.8,met,,red,green,,744.8693757407905,,,,,0,48,48,482,trial,,,,,,red,0.7448693757407905,0.7416666666666667,2.300374999998894,0.9972508000028029,4e-05,4e-05,0.7417874999991909,0.7752326000008907,2.0002260000001115,2.300374999998894,2.300374999998894,2.5003289000014775,2.300374999998894,0.0,3.3249988999996276,1.0246239000007336,1.0246239000007336,0.48701,0.14770052817471696,0.006028592986723141,,,,None,,0.03333,2.033517399999255,-0.167,-0.16666666666666666,0.5445393757407905,0.5416666666666666,trial_list_0.8_red.csv,0.5416595999995479,0.5753865000006044,p3_high2_01,001,2023-05-02_16h24.27.328,expectation_shapes_perceived_time,2022.2.4,119.99616012332228,
,167,0.1999999999999999,unmet,,green,red,,562.6350616446884,,,,,0,49,49,251,trial,,,,,,green,0.5626350616446885,0.5666666666666667,2.299888600002305,0.9908087000003434,1e-05,1e-05,0.5662577000002784,0.599583100000018,1.9998875000019325,2.299888600002305,2.299888600002305,2.4997235000009823,2.299888600002305,0.0,3.30786900000021,1.007980399997905,1.007980399997905,0.73864,0.10819113587143636,-0.10072967822513043,,,,None,,0.03289,2.0333186000025307,0.167,0.16666666666666666,0.7629650616446885,0.7666666666666666,trial_list_0.8_red.csv,0.7661833000020124,0.7995129000009911,p3_high2_01,001,2023-05-02_16h24.27.328,expectation_shapes_perceived_time,2022.2.4,119.99616012332228,
,167,0.8,met,,red,green,,635.6914507176382,0,0,0,0,0,50,50,327,fam,0.5407214999977441,0.5407214999977441,270.0,2.540969399997266,2.540969399997266,,,,,,,,,,,,,,,,,,,,,,,,,,,,,,,,,,,,p3_high2_01,001,2023-05-02_16h24.27.328,expectation_shapes_perceived_time,2022.2.4,119.99616012332228,
,167,0.8,met,,red,green,,635.6914507176382,1,0,1,0,0,50,50,327,fam,0.4985469999992347,0.4985469999992347,270.0,2.498845699999947,2.498845699999947,,,,,,,,,,,,,,,,,,,,,,,,,,,,,,,,,,,,p3_high2_01,001,2023-05-02_16h24.27.328,expectation_shapes_perceived_time,2022.2.4,119.99616012332228,
,167,0.8,met,,red,green,,635.6914507176382,2,0,2,0,0,50,50,327,fam,0.49893209999936516,0.49893209999936516,270.0,2.4986879999996745,2.4986879999996745,,,,,,,,,,,,,,,,,,,,,,,,,,,,,,,,,,,,p3_high2_01,001,2023-05-02_16h24.27.328,expectation_shapes_perceived_time,2022.2.4,119.99616012332228,
,167,0.8,met,,red,green,,635.6914507176382,3,0,3,0,0,50,50,327,fam,0.49833120000039344,0.49833120000039344,270.0,2.4986384000003454,2.4986384000003454,,,,,,,,,,,,,,,,,,,,,,,,,,,,,,,,,,,,p3_high2_01,001,2023-05-02_16h24.27.328,expectation_shapes_perceived_time,2022.2.4,119.99616012332228,
,167,0.8,met,,red,green,,635.6914507176382,,,,,0,50,50,327,trial,,,,,,red,0.6356914507176382,0.6333333333333333,2.299886199998582,0.998882699997921,3e-05,3e-05,0.6333857999998145,0.6666397999979381,1.9997761999984505,2.299886199998582,2.299886199998582,2.499926399999822,2.449910600000294,0.1500244000017119,3.491602199999761,1.191716000001179,1.0416915999994671,0.41493,0.14257553246107152,0.039038538650055306,,,,None,,,,0.167,0.16666666666666666,0.8360214507176382,0.8333333333333334,trial_list_0.8_red.csv,0.8333652000001166,0.8666946999983338,p3_high2_01,001,2023-05-02_16h24.27.328,expectation_shapes_perceived_time,2022.2.4,119.99616012332228,
,33,0.8,met,,red,green,,919.6525558490492,,,,,0,51,51,136,trial,,,,,,red,0.9196525558490493,0.9166666666666666,2.299943699999858,0.99878439999884,1e-05,1e-05,0.9166599999989558,0.9498946999992768,2.000183799998922,2.299943699999858,2.299943699999858,2.500128299998323,2.6919091999989178,0.39196549999905983,3.2501908999984153,0.9502471999985573,0.5582816999994975,0.31283,0.1229965945771262,0.08199772971808414,,,,None,,0.03331,2.0333147999990615,0.033,0.03333333333333333,0.9859825558490493,0.9833333333333333,trial_list_0.8_red.csv,0.9832797999988543,1.0166461000007985,p3_high2_01,001,2023-05-02_16h24.27.328,expectation_shapes_perceived_time,2022.2.4,119.99616012332228,
,-100,0.1999999999999999,unmet,,green,red,,1760.20072790866,,,,,0,52,52,47,trial,,,,,,green,1.76020072790866,1.7583333333333333,2.3090509999965434,0.9984408999989682,2e-05,2e-05,1.758840099999361,1.792290099998354,2.0002975999996124,2.3090509999965434,2.3090509999965434,2.5084511999993993,2.3090509999965434,0.0,3.2672073999965505,0.9581564000000071,0.9581564000000071,0.79672,0.08811759374771294,-0.11868900382345009,,,,None,,0.03369,2.0347017999993113,-0.1,-0.1,1.62687072790866,1.625,trial_list_0.8_red.csv,1.6248967999999877,1.6591076999975485,p3_high2_01,001,2023-05-02_16h24.27.328,expectation_shapes_perceived_time,2022.2.4,119.99616012332228,
,300,0.8,met,,red,green,,1026.2180421365,,,,,0,53,53,100,trial,,,,,,red,1.0262180421365,1.025,2.299849800001539,0.9982904999997118,2e-05,2e-05,1.0252543000024161,1.058627800000977,1.999972900001012,2.299849800001539,2.299849800001539,2.499885000001086,2.299849800001539,0.0,2.966552600002615,0.666702800001076,0.666702800001076,0.53138,0.1471058078636271,-0.014548926052446634,,,,None,,,,0.3,0.3,1.3595480421364998,1.3583333333333334,trial_list_0.8_red.csv,1.3585622999999032,1.3917285000025004,p3_high2_01,001,2023-05-02_16h24.27.328,expectation_shapes_perceived_time,2022.2.4,119.99616012332228,
,300,0.1999999999999999,unmet,,green,red,,661.0617599896802,,,,,0,54,54,34,trial,,,,,,green,0.6610617599896802,0.6583333333333333,2.2996457000008377,0.9988694000021496,1e-05,1e-05,0.6581915999995545,0.6915287000010721,1.999585900000966,2.2996457000008377,2.2996457000008377,2.4996251999982633,2.2996457000008377,0.0,3.2246411999985867,0.924995499997749,0.924995499997749,0.69891,0.11988925302398283,-0.08647749398451221,,,,None,,0.03344,2.033437199999753,0.3,0.3,0.9943917599896803,0.9916666666666667,trial_list_0.8_red.csv,0.991612099998747,1.0248682999990706,p3_high2_01,001,2023-05-02_16h24.27.328,expectation_shapes_perceived_time,2022.2.4,119.99616012332228,
,167,0.8,met,,red,green,,685.9084641435117,,,,,0,55,55,231,trial,,,,,,red,0.6859084641435117,0.6833333333333333,2.299937499999942,0.9983553999991273,3e-05,3e-05,0.6833791999997629,0.7167253000006895,1.99998609999966,2.299937499999942,2.299937499999942,2.4998448000005737,2.3081119999988005,0.008174499998858664,2.924983599998086,0.6250460999981442,0.6168715999992855,0.48951,0.14774324574140993,0.004870656453013514,,,,None,,,,0.167,0.16666666666666666,0.8862384641435117,0.8833333333333333,trial_list_0.8_red.csv,0.8834926999988966,0.9164844999977504,p3_high2_01,001,2023-05-02_16h24.27.328,expectation_shapes_perceived_time,2022.2.4,119.99616012332228,
,300,0.8,met,,red,green,,1061.3593929569088,,,,,0,56,56,257,trial,,,,,,red,1.0613593929569087,1.0583333333333333,2.300155500000983,0.9980611999999383,2e-05,2e-05,1.0584406000016315,1.0917879000007815,2.000059699999838,2.300155500000983,2.300155500000983,2.5000185999997484,2.300155500000983,0.0,3.4584391999997024,1.1582836999987194,1.1582836999987194,0.29517,0.11825880758807587,0.0886941056910569,,,,None,,0.03324,2.0333267000023625,0.3,0.3,1.3946893929569086,1.3916666666666666,trial_list_0.8_red.csv,1.391687200000888,1.4250406000028306,p3_high2_01,001,2023-05-02_16h24.27.328,expectation_shapes_perceived_time,2022.2.4,119.99616012332228,
,-233,0.1999999999999999,unmet,,green,red,,436.15883855912057,,,,,0,57,57,351,trial,,,,,,green,0.4361588385591206,0.43333333333333335,2.29991660000087,0.9986667000011948,1e-05,1e-05,0.4331223000008322,0.4664693000013358,1.999973100002535,2.29991660000087,2.29991660000087,2.499988800002029,2.316542300002766,0.016625700001895893,3.2164463000008254,0.9165296999999555,0.8999039999980596,0.49668,0.14781549019903445,0.0015397446895732757,,,,None,,0.03324,2.0332861000024423,-0.233,-0.23333333333333334,0.1698288385591206,0.16666666666666666,trial_list_0.8_red.csv,0.16661210000165738,0.19989480000003823,p3_high2_01,001,2023-05-02_16h24.27.328,expectation_shapes_perceived_time,2022.2.4,119.99616012332228,
,-33,0.8,met,,red,green,,1282.667257505791,,,,,0,58,58,493,trial,,,,,,red,1.282667257505791,1.2833333333333332,2.2999883000011323,0.9987034000005224,2e-05,2e-05,1.2834010000005946,1.3166954000007536,1.9999873999986448,2.2999883000011323,2.2999883000011323,2.500074899999163,2.3584434000003967,0.05845509999926435,3.383349799998541,1.0833614999974088,1.0249063999981445,0.76539,0.09935300746954975,-0.10945670314441922,,,,None,,,,-0.033,-0.03333333333333333,1.2163372575057911,1.2166666666666666,trial_list_0.8_red.csv,1.21674239999993,1.2500719999989087,p3_high2_01,001,2023-05-02_16h24.27.328,expectation_shapes_perceived_time,2022.2.4,119.99616012332228,
,100,0.1999999999999999,unmet,,green,red,,1382.0602728909937,,,,,0,59,59,117,trial,,,,,,green,1.3820602728909936,1.3833333333333333,2.2997724000015296,0.9967533000017283,1e-05,1e-05,1.3832524000026751,1.4165709000008064,1.999842000001081,2.2997724000015296,2.2997724000015296,2.499868400002015,2.7250200000016775,0.42524760000014794,3.2834332000020368,0.9836608000005072,0.5584132000003592,0.1631,0.07247213700699794,0.12883935467910743,,,,None,,0.0333,2.0332443000006606,0.1,0.1,1.5153902728909936,1.5166666666666666,trial_list_0.8_red.csv,1.5164689000012004,1.549829800002044,p3_high2_01,001,2023-05-02_16h24.27.328,expectation_shapes_perceived_time,2022.2.4,119.99616012332228,
,167,0.1999999999999999,unmet,,green,red,,183.1919986230222,,,,,0,60,60,496,trial,,,,,,green,0.18319199862302218,0.18333333333333332,2.3000566999980947,0.9963570999971125,1e-05,1e-05,0.1831830999981321,0.2168125999996846,2.000057299999753,2.3000566999980947,2.3000566999980947,2.499928199998976,2.7915679999969143,0.4915112999988196,3.441618400000152,1.1415617000020575,0.6500504000032379,0.48183,0.1475827544238695,0.008433300252792542,,,,None,,0.03349,2.0332160999969346,0.167,0.16666666666666666,0.38352199862302216,0.3833333333333333,trial_list_0.8_red.csv,0.3832027999997081,0.4165525999997044,p3_high2_01,001,2023-05-02_16h24.27.328,expectation_shapes_perceived_time,2022.2.4,119.99616012332228,
,233,0.1999999999999999,unmet,,green,red,,612.2880549533513,,,,,0,61,61,333,trial,,,,,,green,0.6122880549533514,0.6083333333333333,2.3003180000014254,0.9980608999976539,1e-05,1e-05,0.6084498000018357,0.6417514999993728,2.0003045000012207,2.3003180000014254,2.3003180000014254,2.5002524000010453,2.3003180000014254,0.0,3.4750497000022733,1.174731700000848,1.174731700000848,0.80532,0.08487667341839998,-0.12102784913364442,,,,None,,,,0.233,0.23333333333333334,0.8786180549533513,0.875,trial_list_0.8_red.csv,0.8750020000006771,0.9084503000012774,p3_high2_01,001,2023-05-02_16h24.27.328,expectation_shapes_perceived_time,2022.2.4,119.99616012332228,
,300,0.8,met,,red,green,,1169.7738290837715,,,,,0,62,62,59,trial,,,,,,red,1.1697738290837716,1.1666666666666667,2.2999962999965646,0.9984815000025264,1e-05,1e-05,1.1670414000000164,1.200589599997329,2.0000441999982286,2.2999962999965646,2.2999962999965646,2.5001331999992544,2.808171399999992,0.5081751000034274,3.3415824999974575,1.0415862000008929,0.5334110999974655,0.44695,0.1457752229632607,0.024522934704099934,,,,None,,0.03332,2.033410999996704,0.3,0.3,1.5031038290837715,1.5,trial_list_0.8_red.csv,1.5001359999987471,1.5336011999970651,p3_high2_01,001,2023-05-02_16h24.27.328,expectation_shapes_perceived_time,2022.2.4,119.99616012332228,
,100,0.8,met,,red,green,,1334.123785420149,,,,,0,63,63,143,trial,,,,,,red,1.334123785420149,1.3333333333333333,2.2992739000001166,0.9993050999983097,0.0001,0.0001,1.332999900001596,1.366081200001645,1.9992602999991504,2.2992739000001166,2.2992739000001166,2.4993118999991566,2.457625899998675,0.1583519999985583,3.3495191000001796,1.050245200000063,0.8918932000015047,0.28352,0.11493441533010369,0.09296165945817209,,,,None,,0.03328,2.0326099999983853,0.1,0.1,1.467453785420149,1.4666666666666666,trial_list_0.8_red.csv,1.4660421000007773,1.499318800000765,p3_high2_01,001,2023-05-02_16h24.27.328,expectation_shapes_perceived_time,2022.2.4,119.99616012332228,
,-300,0.8,met,,red,green,,1534.200831937789,,,,,0,64,64,24,trial,,,,,,red,1.534200831937789,1.5333333333333332,2.300029199999699,0.9985391000009258,5e-05,5e-05,1.5331836000004841,1.5670463999995263,1.9998611000009987,2.300029199999699,2.300029199999699,2.5000891000017873,2.7665492000014638,0.46652000000176486,3.3915807000012137,1.0915515000015148,0.6250314999997499,0.24741,0.10367376664978849,0.10537333659486699,,,,None,,0.03317,2.033267499999056,-0.3,-0.3,1.200870831937789,1.2,trial_list_0.8_red.csv,1.2001526999993075,1.2332279000002018,p3_high2_01,001,2023-05-02_16h24.27.328,expectation_shapes_perceived_time,2022.2.4,119.99616012332228,
,-100,0.8,met,,red,green,,1223.2535248401582,,,,,0,65,65,177,trial,,,,,,red,1.2232535248401581,1.225,2.300174699998024,0.9980006000005233,1e-05,1e-05,1.2255525999971724,1.2592936000000918,2.000150299998495,2.300174699998024,2.300174699998024,2.500091499998234,2.300174699998024,0.0,3.4332217999981367,1.1330471000001126,1.1330471000001126,0.5556,0.14557416174768872,-0.02568955795547448,,,,None,,0.03334,2.033596499997657,-0.1,-0.1,1.0899235248401582,1.0916666666666666,trial_list_0.8_red.csv,1.0922231999975338,1.1255158999993,p3_high2_01,001,2023-05-02_16h24.27.328,expectation_shapes_perceived_time,2022.2.4,119.99616012332228,
,-100,0.1999999999999999,unmet,,green,red,,435.7882682066429,,,,,0,66,66,124,trial,,,,,,green,0.4357882682066429,0.43333333333333335,2.299720700000762,0.9991799999988871,1e-05,1e-05,0.4327155000028142,0.46629380000013043,1.9997225000006438,2.299720700000762,2.299720700000762,2.499601300001814,2.299720700000762,0.0,3.3161156000023766,1.0163949000016146,1.0163949000016146,0.75994,0.10121112960150716,-0.10774087989837859,,,,None,,0.03283,2.0330854000021645,-0.1,-0.1,0.3024582682066429,0.3,trial_list_0.8_red.csv,0.29993480000121053,0.3331687999998394,p3_high2_01,001,2023-05-02_16h24.27.328,expectation_shapes_perceived_time,2022.2.4,119.99616012332228,
,33,0.8,met,,red,green,,719.4331251408627,,,,,0,67,67,70,trial,,,,,,red,0.7194331251408627,0.7166666666666667,2.300054999999702,0.9965064999996684,1e-05,1e-05,0.7167272000006051,0.7505135000028531,1.9999390000011772,2.300054999999702,2.300054999999702,2.5004847000018344,2.6835567000016454,0.3835017000019434,3.3504987000014808,1.0504437000017788,0.6669419999998354,0.50328,0.14781565467972863,-0.0015238727286569962,,,,None,,,2.0333100000025297,0.033,0.03333333333333333,0.7857631251408627,0.7833333333333333,trial_list_0.8_red.csv,0.7834573000000091,0.816892500002723,p3_high2_01,001,2023-05-02_16h24.27.328,expectation_shapes_perceived_time,2022.2.4,119.99616012332228,
,-233,0.1999999999999999,unmet,,green,red,,1593.7645680541864,,,,,0,68,68,452,trial,,,,,,green,1.5937645680541863,1.5916666666666666,2.3000358999997843,0.9983919000005699,1e-05,1e-05,1.5918389999969804,1.6253271999994467,1.9998968999971112,2.3000358999997843,2.3000358999997843,2.4998601999977836,2.3000358999997843,0.0,3.2665448999978253,0.966508999998041,0.966508999998041,0.27975,0.11382728951225092,0.09431403988157933,,,,None,,0.03319,2.0332935999977053,-0.233,-0.23333333333333334,1.3274345680541864,1.325,trial_list_0.8_red.csv,1.324922299998434,1.3585445999997319,p3_high2_01,001,2023-05-02_16h24.27.328,expectation_shapes_perceived_time,2022.2.4,119.99616012332228,
,33,0.8,met,,red,green,,493.7423553585536,,,,,0,69,69,183,trial,,,,,,red,0.4937423553585536,0.49166666666666664,2.3004537999986496,0.9984186999972735,1e-05,1e-05,0.491737500000454,0.5249913999978162,2.0001295000001846,2.3004537999986496,2.3004537999986496,2.500035900000512,2.3166525999986334,0.01619879999998375,3.2251187000001664,0.9246649000015168,0.908466100001533,0.49716,0.14781761763752738,0.001319800157477923,,,,None,,0.03343,2.033424400000513,0.033,0.03333333333333333,0.5600723553585536,0.5583333333333333,trial_list_0.8_red.csv,0.5584335999992618,0.5920622000012372,p3_high2_01,001,2023-05-02_16h24.27.328,expectation_shapes_perceived_time,2022.2.4,119.99616012332228,
,-33,0.8,met,,red,green,,844.5859785660343,,,,,0,70,70,462,trial,,,,,,red,0.8445859785660343,0.8416666666666667,2.299444100000983,0.9977149000005738,0.00014,0.00014,0.8410530000001017,0.8745221999997739,1.999214800001937,2.299444100000983,2.299444100000983,2.4993833000007726,2.299444100000983,0.0,3.5076131999994686,1.2081690999984858,1.2081690999984858,0.78128,0.09376690766293942,-0.11427841871420744,,,,None,,,,-0.033,-0.03333333333333333,0.7782559785660342,0.775,trial_list_0.8_red.csv,0.7744014999989304,0.8079877999989549,p3_high2_01,001,2023-05-02_16h24.27.328,expectation_shapes_perceived_time,2022.2.4,119.99616012332228,
,-167,0.8,met,,red,green,,1467.7098505297545,,,,,0,71,71,329,trial,,,,,,red,1.4677098505297546,1.4666666666666666,2.2982358999979624,1.0000246000017796,6e-05,6e-05,1.4651746999988973,1.4985290999975405,2.006862199999887,2.2982358999979624,2.2982358999979624,2.498576199999661,2.6234455999983766,0.32520970000041416,3.223604599999817,0.9253687000018544,0.6001590000014403,0.22114,0.094634304676012,0.11356116561121439,,,,None,,,2.0398586000010255,-0.167,-0.16666666666666666,1.2673798505297547,1.2666666666666666,trial_list_0.8_red.csv,1.265180300000793,1.2985585999995237,p3_high2_01,001,2023-05-02_16h24.27.328,expectation_shapes_perceived_time,2022.2.4,119.99616012332228,
,300,0.1999999999999999,unmet,,green,red,,339.3011856171952,,,,,0,72,72,409,trial,,,,,,green,0.3393011856171952,0.3416666666666667,2.300307800000155,0.9970161000019289,1e-05,1e-05,0.3415997000010975,0.37495819999821833,2.0003585999984352,2.300307800000155,2.300307800000155,2.5004776999994647,2.300307800000155,0.0,3.3582719000005454,1.0579641000003903,1.0579641000003903,0.50884,0.1477665117927947,-0.004104625327577631,,,,None,,0.03327,2.0335924999999406,0.3,0.3,0.6726311856171953,0.675,trial_list_0.8_red.csv,0.6748067999978957,0.7081857000011951,p3_high2_01,001,2023-05-02_16h24.27.328,expectation_shapes_perceived_time,2022.2.4,119.99616012332228,
,-33,0.8,met,,red,green,,1613.53110531445,,,,,0,73,73,239,trial,,,,,,red,1.61353110531445,1.6166666666666667,2.2999601000010443,0.9967538000018976,1e-05,1e-05,1.6167468000021472,1.6501024999997753,1.9999027000012575,2.2999601000010443,2.2999601000010443,2.500204700001632,2.758109800000966,0.4581496999999217,3.367159299999912,1.0671991999988677,0.609049499998946,0.73554,0.10916551741628926,-0.09967286372791628,,,,None,,,,-0.033,-0.03333333333333333,1.54720110531445,1.55,trial_list_0.8_red.csv,1.5499588000020594,1.5833396000016364,p3_high2_01,001,2023-05-02_16h24.27.328,expectation_shapes_perceived_time,2022.2.4,119.99616012332228,
,167,0.1999999999999999,unmet,,green,red,,546.0990354247676,,,,,0,74,74,334,trial,,,,,,green,0.5460990354247677,0.55,2.3002556999999797,0.9966810000005353,1e-05,1e-05,0.5501632999985304,0.5831423000017821,1.9997709000017494,2.3002556999999797,2.3002556999999797,2.5006356999983836,2.767260199998418,0.4670044999984384,3.6497941999987233,1.3495384999987436,0.8825340000003052,0.25776,0.10704461031679283,0.10194724792075507,,,,None,,0.03361,2.0331393999986176,0.167,0.16666666666666666,0.7464290354247677,0.75,trial_list_0.8_red.csv,0.7498339999983727,0.7834394999990764,p3_high2_01,001,2023-05-02_16h24.27.328,expectation_shapes_perceived_time,2022.2.4,119.99616012332228,
,33,0.8,met,,red,green,,729.7405314391589,0,0,0,0,0,75,75,139,fam,0.5322564000016428,0.5322564000016428,270.0,2.532017100002122,2.532017100002122,,,,,,,,,,,,,,,,,,,,,,,,,,,,,,,,,,,,p3_high2_01,001,2023-05-02_16h24.27.328,expectation_shapes_perceived_time,2022.2.4,119.99616012332228,
,33,0.8,met,,red,green,,729.7405314391589,1,0,1,0,0,75,75,139,fam,0.49860629999966477,0.49860629999966477,270.0,2.498649100001785,2.498649100001785,,,,,,,,,,,,,,,,,,,,,,,,,,,,,,,,,,,,p3_high2_01,001,2023-05-02_16h24.27.328,expectation_shapes_perceived_time,2022.2.4,119.99616012332228,
,33,0.8,met,,red,green,,729.7405314391589,2,0,2,0,0,75,75,139,fam,0.4984843999991426,0.4984843999991426,270.0,2.498235200000636,2.498235200000636,,,,,,,,,,,,,,,,,,,,,,,,,,,,,,,,,,,,p3_high2_01,001,2023-05-02_16h24.27.328,expectation_shapes_perceived_time,2022.2.4,119.99616012332228,
,33,0.8,met,,red,green,,729.7405314391589,3,0,3,0,0,75,75,139,fam,0.4988482999979169,0.4988482999979169,270.0,2.498153699998511,2.498153699998511,,,,,,,,,,,,,,,,,,,,,,,,,,,,,,,,,,,,p3_high2_01,001,2023-05-02_16h24.27.328,expectation_shapes_perceived_time,2022.2.4,119.99616012332228,
,33,0.8,met,,red,green,,729.7405314391589,,,,,0,75,75,139,trial,,,,,,red,0.7297405314391588,0.7333333333333333,2.300069300003088,0.9988625999976648,3e-05,3e-05,0.7333718000008957,0.7667389000016556,2.0003866000006383,2.300069300003088,2.300069300003088,2.4999133000019356,2.300069300003088,0.0,3.1666710000026796,0.8666016999995918,0.8666016999995918,0.26674,0.10987634927798347,0.09888871435018512,,,,None,,0.0335,2.03341139999975,0.033,0.03333333333333333,0.796070531439159,0.8,trial_list_0.8_red.csv,0.8005272000009427,0.8339020000021264,p3_high2_01,001,2023-05-02_16h24.27.328,expectation_shapes_perceived_time,2022.2.4,119.99616012332228,
,-233,0.8,met,,red,green,,426.310152823597,,,,,0,76,76,416,trial,,,,,,red,0.42631015282359697,0.425,2.3003354000029503,0.9986897000017052,5e-05,5e-05,0.42573059999995166,0.458983000000444,2.0001288000021304,2.3003354000029503,2.3003354000029503,2.4999736999998277,2.3003354000029503,0.0,3.474978700000065,1.1746432999971148,1.1746432999971148,0.44743,0.1458122115556408,0.02430203525927347,,,,None,,,,-0.233,-0.23333333333333334,0.15998015282359698,0.15833333333333333,trial_list_0.8_red.csv,0.1582546000026923,0.19225590000132797,p3_high2_01,001,2023-05-02_16h24.27.328,expectation_shapes_perceived_time,2022.2.4,119.99616012332228,
,33,0.8,met,,red,green,,341.9780433687534,,,,,0,77,77,0,trial,,,,,,red,0.34197804336875337,0.3416666666666667,2.3004159000010986,0.9967689999975846,2e-05,2e-05,0.3413236999986111,0.3746638000011444,1.9995888999983435,2.3004159000010986,2.3004159000010986,2.499893799998972,2.6996997999995074,0.39928389999840874,3.3664527000000817,1.066036799998983,0.6667529000005743,0.74737,0.10538726654462183,-0.10365960643733294,,,,None,,0.03313,2.0329117000001133,0.033,0.03333333333333333,0.40830804336875337,0.4083333333333333,trial_list_0.8_red.csv,0.4079402999996091,0.44125500000154716,p3_high2_01,001,2023-05-02_16h24.27.328,expectation_shapes_perceived_time,2022.2.4,119.99616012332228,
,-167,0.8,met,,red,green,,408.1925139580098,,,,,0,78,78,159,trial,,,,,,red,0.40819251395800976,0.4083333333333333,2.2999305999983335,0.9970196000031137,1e-05,1e-05,0.40805619999810006,0.44181359999856795,2.000422199998866,2.2999305999983335,2.2999305999983335,2.4998350999994727,2.5997706999987713,0.2998401000004378,3.41634619999968,1.1164156000013463,0.8165755000009085,0.24737,0.10365960643733294,0.10538726654462183,,,,None,,,2.0334112999989884,-0.167,-0.16666666666666666,0.2078625139580098,0.20833333333333334,trial_list_0.8_red.csv,0.20816569999806234,0.24169029999757186,p3_high2_01,001,2023-05-02_16h24.27.328,expectation_shapes_perceived_time,2022.2.4,119.99616012332228,
,33,0.8,met,,red,green,,287.5900361091433,,,,,0,79,79,171,trial,,,,,,red,0.2875900361091433,0.2916666666666667,2.3085987999984354,0.998696700000437,1e-05,1e-05,0.29196830000000773,0.3249854999994568,2.000743799999327,2.3085987999984354,2.3085987999984354,2.5085331999980554,2.766799199998786,0.4582004000003508,3.641703099998267,1.3331042999998317,0.8749038999994809,0.47269,0.14727960143136856,0.012669213026354284,,,,None,,0.0336,,0.033,0.03333333333333333,0.35392003610914324,0.35,trial_list_0.8_red.csv,0.3502723999990849,0.383504699999321,p3_high2_01,001,2023-05-02_16h24.27.328,expectation_shapes_perceived_time,2022.2.4,119.99616012332228,
,300,0.8,met,,red,green,,618.3772161899378,,,,,0,80,80,423,trial,,,,,,red,0.6183772161899378,0.6166666666666667,2.2997126000009303,0.9974803000004613,1e-05,1e-05,0.6162956000007398,0.6499876000016229,1.9997312000014063,2.2997126000009303,2.2997126000009303,2.499914500000159,2.2997126000009303,0.0,3.3829762999994273,1.083263699998497,1.083263699998497,0.77886,0.094634304676012,-0.11356116561121439,,,,None,,,,0.3,0.3,0.9517072161899379,0.95,trial_list_0.8_red.csv,0.9499815000017406,0.9830622000008589,p3_high2_01,001,2023-05-02_16h24.27.328,expectation_shapes_perceived_time,2022.2.4,119.99616012332228,
,233,0.8,met,,red,green,,591.7247252627536,,,,,0,81,81,432,trial,,,,,,red,0.5917247252627537,0.5916666666666667,2.300051300000632,0.9988983000002918,1e-05,1e-05,0.5915558000015153,0.6248784000017622,2.0000643000021228,2.300051300000632,2.300051300000632,2.499922400002106,2.300051300000632,0.0,3.291583599999285,0.9915322999986529,0.9915322999986529,0.3086,0.1218954221200436,0.08362592912886713,,,,None,,0.03349,2.0335143000011158,0.233,0.23333333333333334,0.8580547252627536,0.8583333333333333,trial_list_0.8_red.csv,0.858312799999112,0.8920380000017758,p3_high2_01,001,2023-05-02_16h24.27.328,expectation_shapes_perceived_time,2022.2.4,119.99616012332228,
,233,0.8,met,,red,green,,286.9326932117177,,,,,0,82,82,204,trial,,,,,,red,0.2869326932117177,0.2833333333333333,2.3001598000009835,0.9982645999989472,2e-05,2e-05,0.2835720000002766,0.3166649000013422,2.0000658000026306,2.3001598000009835,2.3001598000009835,2.499979100000928,2.7417733000002045,0.44161349999922095,3.3831602999998722,1.0830004999988887,0.6413869999996678,0.45528,0.14636723112179056,0.02069839632025321,,,,None,,0.0338,2.033638600001723,0.233,0.23333333333333334,0.5532626932117177,0.55,trial_list_0.8_red.csv,0.5499395000006189,0.583813299999747,p3_high2_01,001,2023-05-02_16h24.27.328,expectation_shapes_perceived_time,2022.2.4,119.99616012332228,
,33,0.8,met,,red,green,,602.1881318608087,,,,,0,83,83,235,trial,,,,,,red,0.6021881318608087,0.6,2.3000088000007963,0.9985416000017722,3e-05,3e-05,0.5997988999988593,0.6333224000009068,1.999884299999394,2.3000088000007963,2.3000088000007963,2.499922899998637,2.3000088000007963,0.0,3.433605099999113,1.1335962999983167,1.1335962999983167,0.73903,0.10806715537922831,-0.10086267835394643,,,,None,,0.03293,2.0329626999991888,0.033,0.03333333333333333,0.6685181318608087,0.6666666666666666,trial_list_0.8_red.csv,0.6665628000009747,0.6996992999993381,p3_high2_01,001,2023-05-02_16h24.27.328,expectation_shapes_perceived_time,2022.2.4,119.99616012332228,
,167,0.1999999999999999,unmet,,green,red,,1315.771393458151,,,,,0,84,84,179,trial,,,,,,green,1.315771393458151,1.3166666666666667,2.3082231000007596,0.9972422999999253,0.00014,0.00014,1.3245080999986385,1.3578641999993124,1.9994230999982392,2.3082231000007596,2.3082231000007596,2.507647400001588,2.565970200001175,0.25774710000041523,3.3574675999989267,1.0492444999981672,0.7914973999977519,0.24768,0.10376127099977886,0.10528717204389323,,,,None,,0.03279,,0.167,0.16666666666666666,1.5161013934581509,1.5166666666666666,trial_list_0.8_red.csv,1.5243030999990879,1.557595099999162,p3_high2_01,001,2023-05-02_16h24.27.328,expectation_shapes_perceived_time,2022.2.4,119.99616012332228,
,167,0.8,met,,red,green,,755.3239744411585,,,,,0,85,85,68,trial,,,,,,red,0.7553239744411585,0.7583333333333333,2.2998241999994207,0.9967824999985169,2e-05,2e-05,0.7582913999976881,0.7915442999983497,1.9999967999974615,2.2998241999994207,2.2998241999994207,2.5001267999978154,2.2998241999994207,0.0,3.1915496999972675,0.8917254999978468,0.8917254999978468,0.46357,0.14685657400700347,0.016880065977816487,,,,None,,,,0.167,0.16666666666666666,0.9556539744411585,0.9583333333333334,trial_list_0.8_red.csv,0.9584299999987707,0.991767899999104,p3_high2_01,001,2023-05-02_16h24.27.328,expectation_shapes_perceived_time,2022.2.4,119.99616012332228,
,300,0.8,met,,red,green,,894.8366275501699,,,,,0,86,86,54,trial,,,,,,red,0.8948366275501699,0.8916666666666666,2.299674400001095,0.9989051000011386,1e-05,1e-05,0.8913491000021168,0.9247047999997449,1.9997099000029266,2.299674400001095,2.299674400001095,2.500191300001461,2.299674400001095,0.0,3.6166234000011173,1.3169490000000224,1.3169490000000224,0.76674,0.09888871435018512,-0.10987634927798347,,,,None,,0.03332,,0.3,0.3,1.2281666275501697,1.225,trial_list_0.8_red.csv,1.2245849999999336,1.257964100001118,p3_high2_01,001,2023-05-02_16h24.27.328,expectation_shapes_perceived_time,2022.2.4,119.99616012332228,
,-233,0.1999999999999999,unmet,,green,red,,1799.5884518936384,,,,,0,87,87,313,trial,,,,,,green,1.7995884518936385,1.8,2.3090540999983205,0.9982483999992837,1e-05,1e-05,1.8007278999975824,1.8340718999970704,2.0005950999984634,2.3090540999983205,2.3090540999983205,2.508555599997635,2.450081799997861,0.14102769999954035,3.2837165999990248,0.9746625000007043,0.833634800001164,0.47322,0.14730057877968267,0.012422940379009383,,,,None,,,,-0.233,-0.23333333333333334,1.5332584518936385,1.5333333333333332,trial_list_0.8_red.csv,1.5334115999976348,1.5666930999977922,p3_high2_01,001,2023-05-02_16h24.27.328,expectation_shapes_perceived_time,2022.2.4,119.99616012332228,
,-300,0.8,met,,red,green,,483.951116401705,,,,,0,88,88,400,trial,,,,,,red,0.483951116401705,0.48333333333333334,2.299578099999053,0.998713900000439,2e-05,2e-05,0.48289139999906183,0.5166866999970807,1.9997444999971776,2.299578099999053,2.299578099999053,2.500250599998253,2.844729599997663,0.5451514999986102,3.3916573999995308,1.0920793000004778,0.5469278000018676,0.19596,0.08536286160688446,0.12068542503042286,,,,None,,,2.0329389999969862,-0.3,-0.3,0.15062111640170503,0.15,trial_list_0.8_red.csv,0.149651099996845,0.182960499998444,p3_high2_01,001,2023-05-02_16h24.27.328,expectation_shapes_perceived_time,2022.2.4,119.99616012332228,
,33,0.1999999999999999,unmet,,green,red,,1484.7430136026403,,,,,0,89,89,347,trial,,,,,,green,1.4847430136026403,1.4833333333333334,2.30003079999733,0.9981322999992699,1e-05,1e-05,1.4835946999992302,1.5166456999977527,1.9999919999972917,2.30003079999733,2.30003079999733,2.5005000999990443,2.8416760999971302,0.5416452999998,3.566743299998052,1.2667125000007218,0.7250672000009217,0.51827,0.14757998602645672,-0.0084816083923251,,,,None,,0.03334,2.033650999997917,0.033,0.03333333333333333,1.5510730136026403,1.55,trial_list_0.8_red.csv,1.5505024999984016,1.5834858999987773,p3_high2_01,001,2023-05-02_16h24.27.328,expectation_shapes_perceived_time,2022.2.4,119.99616012332228,
,-233,0.8,met,,red,green,,1388.4089718343666,,,,,0,90,90,488,trial,,,,,,red,1.3884089718343666,1.3916666666666666,2.299703699998645,0.9983630000024277,1e-05,1e-05,1.3916744999987714,1.4245663000001514,1.9999595000008412,2.299703699998645,2.299703699998645,2.499967600000673,2.299703699998645,0.0,3.591557899999316,1.291854200000671,1.291854200000671,0.74552,0.1059887051821298,-0.1030445744826262,,,,None,,,,-0.233,-0.23333333333333334,1.1220789718343667,1.125,trial_list_0.8_red.csv,1.125094099999842,1.1580561000009766,p3_high2_01,001,2023-05-02_16h24.27.328,expectation_shapes_perceived_time,2022.2.4,119.99616012332228,
,-300,0.8,met,,red,green,,911.6348713375244,,,,,0,91,91,128,trial,,,,,,red,0.9116348713375244,0.9083333333333333,2.2999845999984245,0.9980439999999362,1e-05,1e-05,0.9086556999973254,0.9416313999972772,2.000246199997491,2.2999845999984245,2.2999845999984245,2.4999634999985574,2.841759799997817,0.5417751999993925,3.4333651999986614,1.1333806000002369,0.5916054000008444,0.23247,0.09861599054774364,0.1101211894449804,,,,None,,,,-0.3,-0.3,0.5783048713375243,0.575,trial_list_0.8_red.csv,0.5752397999967798,0.6083173999977589,p3_high2_01,001,2023-05-02_16h24.27.328,expectation_shapes_perceived_time,2022.2.4,119.99616012332228,
,-167,0.8,met,,red,green,,1643.8393994351827,,,,,0,92,92,473,trial,,,,,,red,1.6438393994351828,1.6416666666666666,2.299891899998329,0.9974834999993618,3e-05,3e-05,1.6416998999993666,1.6747533999987354,2.000121000000945,2.299891899998329,2.299891899998329,2.4998390000000654,2.716925099997752,0.41703319999942323,3.342325900001015,1.042434000002686,0.6254008000032627,0.5,0.14782350948509485,0.0,,,,None,,0.03355,2.0333952000000863,-0.167,-0.16666666666666666,1.4435093994351829,1.4416666666666667,trial_list_0.8_red.csv,1.4418855999974767,1.4751477999998315,p3_high2_01,001,2023-05-02_16h24.27.328,expectation_shapes_perceived_time,2022.2.4,119.99616012332228,
,-300,0.8,met,,red,green,,1118.4861268369389,,,,,0,93,93,86,trial,,,,,,red,1.1184861268369388,1.1166666666666667,2.3003672000013466,0.9957035000006726,3e-05,3e-05,1.1170377000016742,1.150356099999044,2.00044379999963,2.3003672000013466,2.3003672000013466,2.5000565000009374,2.950332399999752,0.6499651999984053,3.5417059999999765,1.2413387999986298,0.5913736000002245,0.72412,0.11267061685917443,-0.09569285267491527,,,,None,,0.03333,2.0334210000000894,-0.3,-0.3,0.7851561268369388,0.7833333333333333,trial_list_0.8_red.csv,0.7841670000016165,0.8169167000014568,p3_high2_01,001,2023-05-02_16h24.27.328,expectation_shapes_perceived_time,2022.2.4,119.99616012332228,
,-300,0.8,met,,red,green,,1344.158995203229,,,,,0,94,94,198,trial,,,,,,red,1.3441589952032291,1.3416666666666666,2.300175600001239,0.9987479999981588,1e-05,1e-05,1.3419314000020677,1.3751183000022138,2.0000559000000067,2.300175600001239,2.300175600001239,2.5001557000032335,2.300175600001239,0.0,3.991615200000524,1.6914395999992848,1.6914395999992848,0.19086,0.08341817061350176,0.1220376940456785,,,,None,,0.03342,,-0.3,-0.3,1.010828995203229,1.0083333333333333,trial_list_0.8_red.csv,1.0084709000002476,1.0433499999999185,p3_high2_01,001,2023-05-02_16h24.27.328,expectation_shapes_perceived_time,2022.2.4,119.99616012332228,
,-33,0.1999999999999999,unmet,,green,red,,269.6596666898914,,,,,0,95,95,310,trial,,,,,,green,0.26965966668989144,0.26666666666666666,2.300013399999443,0.9973591000016313,2e-05,2e-05,0.2666079000009631,0.2998698000010336,2.000117699997645,2.300013399999443,2.300013399999443,2.499960799999826,2.73345849999896,0.43344509999951697,3.4000071000009484,1.0999937000015052,0.6665486000019882,0.53871,0.14673161377795857,-0.017933863906194936,,,,None,,,,-0.033,-0.03333333333333333,0.20332966668989144,0.2,trial_list_0.8_red.csv,0.19996660000106203,0.23323080000045593,p3_high2_01,001,2023-05-02_16h24.27.328,expectation_shapes_perceived_time,2022.2.4,119.99616012332228,
,300,0.8,met,,red,green,,1064.857105685125,,,,,0,96,96,242,trial,,,,,,red,1.0648571056851248,1.0666666666666667,2.2999479999998584,0.9965793000010308,1e-05,1e-05,1.0665160000025935,1.099937000002683,2.000007500002539,2.2999479999998584,2.2999479999998584,2.5003170000018144,2.749843500001589,0.4498955000017304,3.6332392000003892,1.3332912000005308,0.8833956999988004,0.78407,0.09276298965780025,-0.11509482050134476,,,,None,,,,0.3,0.3,1.398187105685125,1.4,trial_list_0.8_red.csv,1.4000780000023951,1.433360700000776,p3_high2_01,001,2023-05-02_16h24.27.328,expectation_shapes_perceived_time,2022.2.4,119.99616012332228,
,100,0.8,met,,red,green,,1022.9212464111644,,,,,0,97,97,43,trial,,,,,,red,1.0229212464111643,1.025,2.2999670000026526,0.9969894000023487,1e-05,1e-05,1.0249946000003547,1.058892700002616,2.0005674000021827,2.2999670000026526,2.2999670000026526,2.5004395000032673,2.2999670000026526,0.0,3.199785000000702,0.8998179999980493,0.8998179999980493,0.46626,0.14699405893920564,0.015637665844596346,,,,None,,0.03323,2.033333900002617,0.1,0.1,1.1562512464111643,1.1583333333333332,trial_list_0.8_red.csv,1.1582766000028641,1.1915315000005648,p3_high2_01,001,2023-05-02_16h24.27.328,expectation_shapes_perceived_time,2022.2.4,119.99616012332228,
,233,0.8,met,,red,green,,885.0614629109144,,,,,0,98,98,252,trial,,,,,,red,0.8850614629109145,0.8833333333333333,2.2999013000007835,0.9972621999986586,2e-05,2e-05,0.883317600000737,0.9167682000006607,1.9999752000003355,2.2999013000007835,2.2999013000007835,2.50074510000195,2.5562241000006907,0.25632279999990715,3.5915721000019403,1.2916708000011567,1.0353480000012496,0.06422,0.029623274915105635,0.14482489958496086,,,,None,,0.03325,2.0333066999992297,0.233,0.23333333333333334,1.1513914629109145,1.15,trial_list_0.8_red.csv,1.1501650999998674,1.1834928999996919,p3_high2_01,001,2023-05-02_16h24.27.328,expectation_shapes_perceived_time,2022.2.4,119.99616012332228,
,-100,0.1999999999999999,unmet,,green,red,,416.8815631013277,,,,,0,99,99,153,trial,,,,,,green,0.4168815631013277,0.4166666666666667,2.299863899999764,0.9975655999987794,1e-05,1e-05,0.41647569999986445,0.4498351000002003,2.000232899998082,2.299863899999764,2.299863899999764,2.49995349999881,2.816682500000752,0.5168186000009882,3.4501096999993024,1.1502457999995386,0.6334271999985503,0.46799,0.1470764691970002,0.014842579460247729,,,,None,,0.03349,2.0331851999981154,-0.1,-0.1,0.2835515631013277,0.2833333333333333,trial_list_0.8_red.csv,0.28337739999915357,0.3165588000010757,p3_high2_01,001,2023-05-02_16h24.27.328,expectation_shapes_perceived_time,2022.2.4,119.99616012332228,
,167,0.8,met,,red,green,,1519.0878369210984,0,0,0,0,0,100,100,477,fam,0.5405778999993345,0.5405778999993345,270.0,2.5404873000006774,2.5404873000006774,,,,,,,,,,,,,,,,,,,,,,,,,,,,,,,,,,,,p3_high2_01,001,2023-05-02_16h24.27.328,expectation_shapes_perceived_time,2022.2.4,119.99616012332228,
,167,0.8,met,,red,green,,1519.0878369210984,1,0,1,0,0,100,100,477,fam,0.49825630000123056,0.49825630000123056,270.0,2.4981302000014693,2.4981302000014693,,,,,,,,,,,,,,,,,,,,,,,,,,,,,,,,,,,,p3_high2_01,001,2023-05-02_16h24.27.328,expectation_shapes_perceived_time,2022.2.4,119.99616012332228,
,167,0.8,met,,red,green,,1519.0878369210984,2,0,2,0,0,100,100,477,fam,0.49811680000129854,0.49811680000129854,270.0,2.498311899998953,2.498311899998953,,,,,,,,,,,,,,,,,,,,,,,,,,,,,,,,,,,,p3_high2_01,001,2023-05-02_16h24.27.328,expectation_shapes_perceived_time,2022.2.4,119.99616012332228,
,167,0.8,met,,red,green,,1519.0878369210984,3,0,3,0,0,100,100,477,fam,0.498786399999517,0.498786399999517,270.0,2.4988524000000325,2.4988524000000325,,,,,,,,,,,,,,,,,,,,,,,,,,,,,,,,,,,,p3_high2_01,001,2023-05-02_16h24.27.328,expectation_shapes_perceived_time,2022.2.4,119.99616012332228,
,167,0.8,met,,red,green,,1519.0878369210984,,,,,0,100,100,477,trial,,,,,,red,1.5190878369210985,1.5166666666666666,2.299935600000026,0.9990558999998029,1e-05,1e-05,1.5166300000018964,1.5501011999986076,2.000037199999497,2.299935600000026,2.299935600000026,2.499994900001184,2.3665794000007736,0.06664380000074743,3.499861399999645,1.199925799999619,1.1332819999988715,0.28685,0.1159004053690722,0.09175448758384883,,,,None,,0.03334,2.0334847000012815,0.167,0.16666666666666666,1.7194178369210984,1.7166666666666666,trial_list_0.8_red.csv,1.7167885999988357,1.7499518000004173,p3_high2_01,001,2023-05-02_16h24.27.328,expectation_shapes_perceived_time,2022.2.4,119.99616012332228,
,33,0.1999999999999999,unmet,,green,red,,607.4854579705813,,,,,0,101,101,106,trial,,,,,,green,0.6074854579705813,0.6083333333333333,2.299923200000194,0.9990584000006493,1e-05,1e-05,0.6082291999991867,0.6415773999979137,1.9997280999996292,2.299923200000194,2.299923200000194,2.499928999997792,2.7330927999973937,0.43316959999719984,3.1748263999979827,0.8749031999977888,0.4417336000005889,0.46896,0.14712121487270596,0.01439229275928645,,,,None,,0.03313,2.0330728000008094,0.033,0.03333333333333333,0.6738154579705813,0.675,trial_list_0.8_red.csv,0.6747481999991578,0.7080468999993172,p3_high2_01,001,2023-05-02_16h24.27.328,expectation_shapes_perceived_time,2022.2.4,119.99616012332228,
,233,0.8,met,,red,green,,1183.9166331398171,,,,,0,102,102,348,trial,,,,,,red,1.1839166331398172,1.1833333333333333,2.300138999999035,0.9966784999996889,1e-05,1e-05,1.1833317999989958,1.2169437000011385,2.000243999998929,2.300138999999035,2.300138999999035,2.499961000001349,2.6584159999983967,0.3582769999993616,3.5085638999989897,1.2084248999999545,0.8501479000005929,0.81169,0.08243963015815839,-0.12270084488656134,,,,None,,,,0.233,0.23333333333333334,1.450246633139817,1.45,trial_list_0.8_red.csv,1.4500044000014896,1.4834255999994639,p3_high2_01,001,2023-05-02_16h24.27.328,expectation_shapes_perceived_time,2022.2.4,119.99616012332228,
,167,0.8,met,,red,green,,258.2940945987765,,,,,0,103,103,253,trial,,,,,,red,0.2582940945987765,0.2583333333333333,2.3001240999983565,0.9984616000001552,1e-05,1e-05,0.25869299999976647,0.29168789999675937,2.0000015999976313,2.3001240999983565,2.3001240999983565,2.5000697999967088,2.7170298999990337,0.4169058000006771,3.2337123999968753,0.9335882999985188,0.5166824999978417,0.24745,0.10368747198188173,0.10535985056223465,,,,None,,,,0.167,0.16666666666666666,0.45862409459877646,0.4583333333333333,trial_list_0.8_red.csv,0.4587522000001627,0.49213549999694806,p3_high2_01,001,2023-05-02_16h24.27.328,expectation_shapes_perceived_time,2022.2.4,119.99616012332228,
,100,0.8,met,,red,green,,703.7157023538565,,,,,0,104,104,390,trial,,,,,,red,0.7037157023538565,0.7,2.300153499996668,0.9963439999992261,2e-05,2e-05,0.7003475999990769,0.7336952999976347,2.000317799996992,2.300153499996668,2.300153499996668,2.5004645999979402,2.62498499999856,0.324831500001892,3.091833799997403,0.7916803000007349,0.4668487999988429,0.4857,0.14767443745979614,0.006637053368979601,,,,None,,0.03332,2.0333726999997452,0.1,0.1,0.8370457023538566,0.8333333333333334,trial_list_0.8_red.csv,0.833728899997368,0.8674463999996078,p3_high2_01,001,2023-05-02_16h24.27.328,expectation_shapes_perceived_time,2022.2.4,119.99616012332228,
,100,0.8,met,,red,green,,1276.554182611059,,,,,0,105,105,427,trial,,,,,,red,1.2765541826110591,1.275,2.2995795999995607,0.9988061999974889,1e-05,1e-05,1.274550400001317,1.3078701999984332,1.999881899999309,2.2995795999995607,2.2995795999995607,2.4998591000003216,2.2995795999995607,0.0,3.358106700001372,1.058527100001811,1.058527100001811,0.77646,0.09548544905819836,-0.1128464397960526,,,,None,,0.0334,2.033154299999296,0.1,0.1,1.409884182611059,1.4083333333333332,trial_list_0.8_red.csv,1.408073599999625,1.441257399997994,p3_high2_01,001,2023-05-02_16h24.27.328,expectation_shapes_perceived_time,2022.2.4,119.99616012332228,
,33,0.8,met,,red,green,,886.4747297849287,,,,,0,106,106,8,trial,,,,,,red,0.8864747297849287,0.8833333333333333,2.308319499999925,0.9988058999988425,2e-05,2e-05,0.8831601999991108,0.916408400000364,2.000462100000732,2.308319499999925,2.308319499999925,2.508621100001619,2.433107100001507,0.12478760000158218,3.250076500000432,0.9417570000005071,0.8169693999989249,0.19314,0.08429113481289767,0.12143638066264917,,,,None,,0.03332,2.0338712000011583,0.033,0.03333333333333333,0.9528047297849288,0.95,trial_list_0.8_red.csv,0.9502791000013531,0.9835923999999068,p3_high2_01,001,2023-05-02_16h24.27.328,expectation_shapes_perceived_time,2022.2.4,119.99616012332228,
,-167,0.8,met,,red,green,,973.9507738367718,,,,,0,107,107,175,trial,,,,,,red,0.9739507738367718,0.975,2.2998367000000144,0.9963352000013401,4e-05,4e-05,0.9748364000006404,1.008434600000328,2.000036100002035,2.2998367000000144,2.2998367000000144,2.4998335000018415,2.2998367000000144,0.0,3.1337267000017164,0.833890000001702,0.833890000001702,0.51123,0.14773152540695395,-0.005214053837892493,,,,None,,0.03337,2.033203400002094,-0.167,-0.16666666666666666,0.7736207738367717,0.775,trial_list_0.8_red.csv,0.7752534999999625,0.8085283000000345,p3_high2_01,001,2023-05-02_16h24.27.328,expectation_shapes_perceived_time,2022.2.4,119.99616012332228,
,167,0.8,met,,red,green,,636.2940304124652,,,,,0,108,108,324,trial,,,,,,red,0.6362940304124652,0.6333333333333333,2.299960700001975,0.9965264999991632,1e-05,1e-05,0.6334681000007549,0.6665653999989445,1.9998663000005763,2.299960700001975,2.299960700001975,2.499913800002105,2.299960700001975,0.0,3.1581751000012446,0.8582143999992695,0.8582143999992695,0.84324,0.06989357247238132,-0.13025620324398338,,,,None,,0.03359,2.0334917000000132,0.167,0.16666666666666666,0.8366240304124652,0.8333333333333334,trial_list_0.8_red.csv,0.8332981000021391,0.8667392999996082,p3_high2_01,001,2023-05-02_16h24.27.328,expectation_shapes_perceived_time,2022.2.4,119.99616012332228,
,-100,0.8,met,,red,green,,833.2374401468576,,,,,0,109,109,321,trial,,,,,,red,0.8332374401468576,0.8333333333333334,2.299715000001015,0.9980340000001888,1e-05,1e-05,0.8331628000014462,0.8666940000002796,1.9997614999992948,2.299715000001015,2.299715000001015,2.500392500001908,2.4503592000000936,0.1506441999990784,4.066421600000467,1.766706599999452,1.6160624000003736,0.20543,0.08891623960039438,0.11809188071927376,,,,None,,0.03312,2.0335056000003533,-0.1,-0.1,0.6999074401468576,0.7,trial_list_0.8_red.csv,0.6998959000011382,0.7331352000001061,p3_high2_01,001,2023-05-02_16h24.27.328,expectation_shapes_perceived_time,2022.2.4,119.99616012332228,
,233,0.8,met,,red,green,,702.9118900164467,,,,,0,110,110,364,trial,,,,,,red,0.7029118900164467,0.7,2.3000987000013993,0.9984925999997358,1e-05,1e-05,0.6997870000013791,0.7333655000002182,1.9997652000020025,2.3000987000013993,2.3000987000013993,2.4997952000012447,2.3000987000013993,0.0,3.033191500002431,0.7330928000010317,0.7330928000010317,0.5159,0.1476390758393697,-0.007381953791968486,,,,None,,,,0.233,0.23333333333333334,0.9692418900164468,0.9666666666666667,trial_list_0.8_red.csv,0.9664078000023437,1.0003367999997863,p3_high2_01,001,2023-05-02_16h24.27.328,expectation_shapes_perceived_time,2022.2.4,119.99616012332228,
,300,0.1999999999999999,unmet,,green,red,,1016.7533140346604,,,,,0,111,111,340,trial,,,,,,green,1.0167533140346605,1.0166666666666666,2.299981600001047,0.9970251999984612,2e-05,2e-05,1.0168297000018356,1.0501516000003903,2.000054200001614,2.299981600001047,2.299981600001047,2.5000953000017034,2.3500951000023633,0.050113500001316424,3.1419194000009156,0.8419377999998687,0.7918242999985523,0.78783,0.09139694877026074,-0.11618256199609414,,,,None,,0.0333,2.0335079000033147,0.3,0.3,1.3500833140346604,1.35,trial_list_0.8_red.csv,1.3500914000032935,1.383408400000917,p3_high2_01,001,2023-05-02_16h24.27.328,expectation_shapes_perceived_time,2022.2.4,119.99616012332228,
,100,0.8,met,,red,green,,945.3452964185878,,,,,0,112,112,297,trial,,,,,,red,0.9453452964185879,0.9416666666666667,2.300090900000214,0.9983979999997246,1e-05,1e-05,0.9417380000013509,0.9750467000012577,2.0002796000007947,2.300090900000214,2.300090900000214,2.5004545000010694,2.300090900000214,0.0,3.0752360000005865,0.7751451000003726,0.7751451000003726,0.31183,0.1227373159612982,0.08238532167265221,,,,None,,0.03337,2.0334484000013617,0.1,0.1,1.0786752964185877,1.075,trial_list_0.8_red.csv,1.0750718999988749,1.108410199998616,p3_high2_01,001,2023-05-02_16h24.27.328,expectation_shapes_perceived_time,2022.2.4,119.99616012332228,
,-233,0.8,met,,red,green,,1762.1108888369918,,,,,0,113,113,112,trial,,,,,,red,1.7621108888369919,1.7583333333333333,2.30014730000039,0.9985278000021935,1e-05,1e-05,1.7582210000000487,1.7915721000026679,1.9999111000033736,2.30014730000039,2.30014730000039,2.500114600003144,2.30014730000039,0.0,3.258369800001674,0.9582225000012841,0.9582225000012841,0.47304,0.14729354543295575,0.012506055744307562,,,,None,,,,-0.233,-0.23333333333333334,1.495780888836992,1.4916666666666667,trial_list_0.8_red.csv,1.4920032000009087,1.52502110000205,p3_high2_01,001,2023-05-02_16h24.27.328,expectation_shapes_perceived_time,2022.2.4,119.99616012332228,
,-100,0.8,met,,red,green,,1651.90900036867,,,,,0,114,114,261,trial,,,,,,red,1.6519090003686698,1.65,2.299655499999062,0.9969178999999713,2e-05,2e-05,1.6497812999987218,1.6833406000005198,1.9996767999982694,2.299655499999062,2.299655499999062,2.499596099998598,2.299655499999062,0.0,3.049774899998738,0.7501193999996758,0.7501193999996758,0.86291,0.061716340569255276,-0.1343238000624968,,,,None,,,,-0.1,-0.1,1.5185790003686699,1.5166666666666666,trial_list_0.8_red.csv,1.5165185000005295,1.5496923999999126,p3_high2_01,001,2023-05-02_16h24.27.328,expectation_shapes_perceived_time,2022.2.4,119.99616012332228,
,33,0.8,met,,red,green,,963.8609215056596,,,,,0,115,115,281,trial,,,,,,red,0.9638609215056596,0.9666666666666667,2.299975399997493,0.9977065000020957,2e-05,2e-05,0.967128699998284,1.0001249999986612,2.000003099998139,2.299975399997493,2.299975399997493,2.500055299999076,2.299975399997493,0.0,3.8168124000003445,1.5168370000028517,1.5168370000028517,0.1967,0.0856458141478911,0.12048478939449088,,,,None,,,,0.033,0.03333333333333333,1.0301909215056597,1.0333333333333332,trial_list_0.8_red.csv,1.0337414999994508,1.0667739999989863,p3_high2_01,001,2023-05-02_16h24.27.328,expectation_shapes_perceived_time,2022.2.4,119.99616012332228,
,-100,0.8,met,,red,green,,1110.9990306622667,,,,,0,116,116,294,trial,,,,,,red,1.1109990306622668,1.1083333333333334,2.299761500002205,0.9988136000029044,2e-05,2e-05,1.1084134000011545,1.1416628000006313,1.9998176000008243,2.299761500002205,2.299761500002205,2.499976200000674,2.299761500002205,0.0,3.2748305999994045,0.9750690999971994,0.9750690999971994,0.48344,0.14762341801369458,0.007688719688213261,,,,None,,0.03309,2.033143900000141,-0.1,-0.1,0.9776690306622666,0.975,trial_list_0.8_red.csv,0.9748390999993717,1.0080898000014713,p3_high2_01,001,2023-05-02_16h24.27.328,expectation_shapes_perceived_time,2022.2.4,119.99616012332228,
,-300,0.8,met,,red,green,,772.5740144825425,,,,,0,117,117,299,trial,,,,,,red,0.7725740144825425,0.775,2.307507199999236,0.997318699999596,0.00011,0.00011,0.7829830999980913,0.8156714999968244,2.0073480999999447,2.307507199999236,2.307507199999236,2.5075728999981948,3.0740245999986655,0.7665173999994295,3.9740309999979218,1.6665237999986857,0.9000063999992562,0.78637,0.0919288009533002,-0.11576219379304471,,,,None,,0.03249,,-0.3,-0.3,0.43924401448254247,0.44166666666666665,trial_list_0.8_red.csv,0.4491387999987637,0.4824808999983361,p3_high2_01,001,2023-05-02_16h24.27.328,expectation_shapes_perceived_time,2022.2.4,119.99616012332228,
,-233,0.8,met,,red,green,,999.8731445731088,,,,,0,118,118,374,trial,,,,,,red,0.9998731445731088,1.0,2.3005398999994213,0.997964400001365,1e-05,1e-05,1.0003286999999546,1.0336195999989286,1.9999878000016906,2.3005398999994213,2.3005398999994213,2.500404200000048,4.241877799999202,1.9413378999997803,5.558592100001988,3.2580522000025667,1.3167143000027863,0.25776,0.10704461031679283,0.10194724792075507,,,,None,,0.03327,2.033705199999531,-0.233,-0.23333333333333334,0.7335431445731088,0.7333333333333333,trial_list_0.8_red.csv,0.7334845000004862,0.766765000000305,p3_high2_01,001,2023-05-02_16h24.27.328,expectation_shapes_perceived_time,2022.2.4,119.99616012332228,
,-100,0.8,met,,red,green,,592.6262231824602,,,,,0,119,119,480,trial,,,,,,red,0.5926262231824602,0.5916666666666667,2.3002326999994693,0.9976755999996385,1e-05,1e-05,0.5914005999984511,0.6250018999999156,2.000164599998243,2.3002326999994693,2.3002326999994693,2.4997855000001437,2.4086882999981754,0.10845559999870602,3.1414450999982364,0.8412123999987671,0.732756800000061,0.43592,0.1448380745766599,0.029558790729930597,,,,None,,0.03328,2.0331821999971,-0.1,-0.1,0.4592962231824602,0.4583333333333333,trial_list_0.8_red.csv,0.45810720000008587,0.49186619999818504,p3_high2_01,001,2023-05-02_16h24.27.328,expectation_shapes_perceived_time,2022.2.4,119.99616012332228,
,-167,0.8,met,,red,green,,739.1004576409723,,,,,0,120,120,148,trial,,,,,,red,0.7391004576409723,0.7416666666666667,2.300018600002659,0.9984856000010041,1e-05,1e-05,0.7418605000020762,0.7753198999998858,2.000115700000606,2.300018600002659,2.300018600002659,2.5002774999993562,2.300018600002659,0.0,3.2583905999999843,0.9583719999973255,0.9583719999973255,0.77646,0.09548544905819836,-0.11284643979605262,,,,None,,0.03338,2.0335298999998486,-0.167,-0.16666666666666666,0.5387704576409723,0.5416666666666666,trial_list_0.8_red.csv,0.5419421000005968,0.5748858000006294,p3_high2_01,001,2023-05-02_16h24.27.328,expectation_shapes_perceived_time,2022.2.4,119.99616012332228,
,-33,0.1999999999999999,unmet,,green,red,,1840.107109940261,,,,,0,121,121,335,trial,,,,,,green,1.8401071099402608,1.8416666666666666,2.2999481999977434,0.9986313000008522,8e-05,8e-05,1.841518499997619,1.8746070999986841,1.9999096999999892,2.2999481999977434,2.2999481999977434,2.5001539000004414,2.7165172999993956,0.41656910000165226,3.2079636999987997,0.9080155000010564,0.4914463999994041,0.17584,0.07757007470180027,0.12583589896069822,,,,None,,0.03328,2.033610899998166,-0.033,-0.03333333333333333,1.773777109940261,1.775,trial_list_0.8_red.csv,1.7747500999976182,1.808101300000999,p3_high2_01,001,2023-05-02_16h24.27.328,expectation_shapes_perceived_time,2022.2.4,119.99616012332228,
,233,0.8,met,,red,green,,1587.2211093702515,,,,,0,122,122,368,trial,,,,,,red,1.5872211093702515,1.5833333333333333,2.299979900002654,0.9986467000017001,1e-05,1e-05,1.5834386000024097,1.6168234000033408,2.000352600000042,2.299979900002654,2.299979900002654,2.500210200003494,2.299979900002654,0.0,3.266746300003433,0.966766400000779,0.966766400000779,0.42756,0.1440123344078435,0.033350224810237444,,,,None,,0.03359,2.0335887000001094,0.233,0.23333333333333334,1.8535511093702515,1.8499999999999999,trial_list_0.8_red.csv,1.8501042000025336,1.8836516000010306,p3_high2_01,001,2023-05-02_16h24.27.328,expectation_shapes_perceived_time,2022.2.4,119.99616012332228,
,167,0.8,met,,red,green,,975.6441488778396,,,,,0,123,123,213,trial,,,,,,red,0.9756441488778396,0.975,2.299478100001579,0.9990538000020024,1e-05,1e-05,0.9746006000023044,1.0080001999995147,1.9997139000006428,2.299478100001579,2.299478100001579,2.499758500001917,2.757933500000945,0.4584553999993659,3.5661784000003536,1.2667002999987744,0.8082448999994085,0.71774,0.1145659823480297,-0.09341533945300882,,,,None,,,,0.167,0.16666666666666666,1.1759741488778395,1.175,trial_list_0.8_red.csv,1.1745506000006571,1.207878900000651,p3_high2_01,001,2023-05-02_16h24.27.328,expectation_shapes_perceived_time,2022.2.4,119.99616012332228,
