id,delay,expectation,congruency,trial_num,stim_color,distractor_color,block,targetTimeMs,famLoop.thisRepN,famLoop.thisTrialN,famLoop.thisN,famLoop.thisIndex,trialss.thisRepN,trialss.thisTrialN,trialss.thisN,trialss.thisIndex,isTrial,handMove.started,audioCue2Start.started,handOri,handMove.ended,audioCue2End.started,target_color,expected_target_onset,expected_target_onset_in_frames,fixationPoint.started,fixationPoint.stopped,audCueStart.started,placeholder.started,audCueStart.stopped,target.started,target.stopped,audCueEnd.started,audCueEnd.stopped,responsePointer.started,cueForRep.started,space2pass.started,responseStarted,rtUntillMotionTreshold,responsePointer.stopped,rTAfterMotionTreshold,rtDurationBtwRespMotion,perceivedTime,resp_x_coord,resp_y_coord,feedbackPointer.stopped,actualTime_x_coord,actualTime_y_coord,space2pass.keys,space2pass.rt,expected_delay,expected_delays_frame,expected_distractor,expected_distractor_frame,expBlockFiles,distractor.started,distractor.stopped,participant,session,date,expName,psychopyVersion,frameRate,
,,,,,,,,,0,0,0,0,,,,,fam,1.2810633000008238,1.2810633000008238,270.0,3.2811513999986346,3.2811513999986346,,,,,,,,,,,,,,,,,,,,,,,,,,,,,,,,,,,,p5_base2_01,001,2023-05-02_17h16.50.645,expectation_shapes_perceived_time,2022.2.4,119.87389266060589,
,,,,,,,,,1,0,1,0,,,,,fam,0.49752989999979036,0.49752989999979036,270.0,2.4975138000008883,2.4975138000008883,,,,,,,,,,,,,,,,,,,,,,,,,,,,,,,,,,,,p5_base2_01,001,2023-05-02_17h16.50.645,expectation_shapes_perceived_time,2022.2.4,119.87389266060589,
,,,,,,,,,2,0,2,0,,,,,fam,0.4975111999992805,0.4975111999992805,270.0,2.4977021000013337,2.4977021000013337,,,,,,,,,,,,,,,,,,,,,,,,,,,,,,,,,,,,p5_base2_01,001,2023-05-02_17h16.50.645,expectation_shapes_perceived_time,2022.2.4,119.87389266060589,
,,,,,,,,,3,0,3,0,,,,,fam,0.49807439999858616,0.49807439999858616,270.0,2.4980720999992627,2.4980720999992627,,,,,,,,,,,,,,,,,,,,,,,,,,,,,,,,,,,,p5_base2_01,001,2023-05-02_17h16.50.645,expectation_shapes_perceived_time,2022.2.4,119.87389266060589,
,,,,,,,,,4,0,4,0,,,,,fam,0.49757529999988037,0.49757529999988037,270.0,2.497470800000883,2.497470800000883,,,,,,,,,,,,,,,,,,,,,,,,,,,,,,,,,,,,p5_base2_01,001,2023-05-02_17h16.50.645,expectation_shapes_perceived_time,2022.2.4,119.87389266060589,
,,,,,,,,,5,0,5,0,,,,,fam,0.4979403999968781,0.4979403999968781,270.0,2.4979166999983136,2.4979166999983136,,,,,,,,,,,,,,,,,,,,,,,,,,,,,,,,,,,,p5_base2_01,001,2023-05-02_17h16.50.645,expectation_shapes_perceived_time,2022.2.4,119.87389266060589,
,,,,,,,,,6,0,6,0,,,,,fam,0.49761489999946207,0.49761489999946207,270.0,2.513814800000546,2.513814800000546,,,,,,,,,,,,,,,,,,,,,,,,,,,,,,,,,,,,p5_base2_01,001,2023-05-02_17h16.50.645,expectation_shapes_perceived_time,2022.2.4,119.87389266060589,
,,,,,,,,,7,0,7,0,,,,,fam,0.4986644000018714,0.4986644000018714,270.0,2.498524599999655,2.498524599999655,,,,,,,,,,,,,,,,,,,,,,,,,,,,,,,,,,,,p5_base2_01,001,2023-05-02_17h16.50.645,expectation_shapes_perceived_time,2022.2.4,119.87389266060589,
,,,,,,,,,8,0,8,0,,,,,fam,0.497155400000338,0.497155400000338,270.0,2.4973232000011194,2.4973232000011194,,,,,,,,,,,,,,,,,,,,,,,,,,,,,,,,,,,,p5_base2_01,001,2023-05-02_17h16.50.645,expectation_shapes_perceived_time,2022.2.4,119.87389266060589,
,,,,,,,,,9,0,9,0,,,,,fam,0.5000252999998338,0.5000252999998338,270.0,2.5234474999997474,2.5234474999997474,,,,,,,,,,,,,,,,,,,,,,,,,,,,,,,,,,,,p5_base2_01,001,2023-05-02_17h16.50.645,expectation_shapes_perceived_time,2022.2.4,119.87389266060589,
,,,,,,,,,10,0,10,0,,,,,fam,0.497226799998316,0.497226799998316,270.0,2.497373999998672,2.497373999998672,,,,,,,,,,,,,,,,,,,,,,,,,,,,,,,,,,,,p5_base2_01,001,2023-05-02_17h16.50.645,expectation_shapes_perceived_time,2022.2.4,119.87389266060589,
,,,,,,,,,11,0,11,0,,,,,fam,0.4976457999982813,0.4976457999982813,270.0,2.509740800000145,2.509740800000145,,,,,,,,,,,,,,,,,,,,,,,,,,,,,,,,,,,,p5_base2_01,001,2023-05-02_17h16.50.645,expectation_shapes_perceived_time,2022.2.4,119.87389266060589,
,,,,,,,,,12,0,12,0,,,,,fam,0.5278833999982453,0.5278833999982453,270.0,2.5770888999977615,2.5770888999977615,,,,,,,,,,,,,,,,,,,,,,,,,,,,,,,,,,,,p5_base2_01,001,2023-05-02_17h16.50.645,expectation_shapes_perceived_time,2022.2.4,119.87389266060589,
,,,,,,,,,13,0,13,0,,,,,fam,0.4981947999986005,0.4981947999986005,270.0,2.4982652999970014,2.4982652999970014,,,,,,,,,,,,,,,,,,,,,,,,,,,,,,,,,,,,p5_base2_01,001,2023-05-02_17h16.50.645,expectation_shapes_perceived_time,2022.2.4,119.87389266060589,
,,,,,,,,,14,0,14,0,,,,,fam,0.4956568999987212,0.4956568999987212,270.0,2.504098099998373,2.504098099998373,,,,,,,,,,,,,,,,,,,,,,,,,,,,,,,,,,,,p5_base2_01,001,2023-05-02_17h16.50.645,expectation_shapes_perceived_time,2022.2.4,119.87389266060589,
,,,,,,,,,15,0,15,0,,,,,fam,0.4956658000010066,0.4956658000010066,270.0,2.495507000003272,2.495507000003272,,,,,,,,,,,,,,,,,,,,,,,,,,,,,,,,,,,,p5_base2_01,001,2023-05-02_17h16.50.645,expectation_shapes_perceived_time,2022.2.4,119.87389266060589,
,,,,,,,,,16,0,16,0,,,,,fam,0.4988751000018965,0.4988751000018965,270.0,2.4982311999992817,2.4982311999992817,,,,,,,,,,,,,,,,,,,,,,,,,,,,,,,,,,,,p5_base2_01,001,2023-05-02_17h16.50.645,expectation_shapes_perceived_time,2022.2.4,119.87389266060589,
,,,,,,,,,17,0,17,0,,,,,fam,0.4975123000003805,0.4975123000003805,270.0,2.497802400001092,2.497802400001092,,,,,,,,,,,,,,,,,,,,,,,,,,,,,,,,,,,,p5_base2_01,001,2023-05-02_17h16.50.645,expectation_shapes_perceived_time,2022.2.4,119.87389266060589,
,,,,,,,,,18,0,18,0,,,,,fam,0.5002417999967292,0.5002417999967292,270.0,2.500144300000102,2.500144300000102,,,,,,,,,,,,,,,,,,,,,,,,,,,,,,,,,,,,p5_base2_01,001,2023-05-02_17h16.50.645,expectation_shapes_perceived_time,2022.2.4,119.87389266060589,
,,,,,,,,,19,0,19,0,,,,,fam,0.49935999999797787,0.49935999999797787,270.0,2.499298999999155,2.499298999999155,,,,,,,,,,,,,,,,,,,,,,,,,,,,,,,,,,,,p5_base2_01,001,2023-05-02_17h16.50.645,expectation_shapes_perceived_time,2022.2.4,119.87389266060589,
,,,,,,,,,,,,,0,0,0,0,test,,,,,,green,0.23231345455604127,0.23333333333333334,2.299573699998291,0.9990246999986994,3.590000051190145e-05,4e-05,0.03307629999835626,0.23321610000130022,0.2663523000010173,1.9994262000000163,2.0328282000009494,2.299573699998291,2.299573699998291,2.5999784999985422,3.2580488999992667,0.9584752000009757,11.691254400000616,9.391680700002325,8.43320550000135,0.42286,0.14350421469966768,0.03547295194823245,11.691254400000616,0.098560749523418,0.11017063406312948,space,9.091130699998757,,,,,,,,p5_base2_01,001,2023-05-02_17h16.50.645,expectation_shapes_perceived_time,2022.2.4,119.87389266060589,
,,,,,,,,,,,,,1,0,1,0,test,,,,,,red,1.1881456912904045,1.1833333333333333,2.300054600000294,0.9972525000011956,9.309999950346537e-05,9e-05,,1.183300299999246,1.2167907000002742,2.0002031000003626,,2.300054600000294,2.300054600000294,2.599945400001161,2.899885800001357,0.5998312000010628,17.26663550000012,14.966580899999826,14.366749699998763,0.29151,0.1172315911718006,0.09004745408848451,17.26663550000012,-0.08237549682005925,-0.12274391015499844,space,14.663439899999503,,,,,,,,p5_base2_01,001,2023-05-02_17h16.50.645,expectation_shapes_perceived_time,2022.2.4,119.87389266060589,
,,,,,,,,,,,,,2,0,2,0,test,,,,,,green,0.7230961021741864,0.725,2.30058850000205,0.9975372000008065,5.2200000936863944e-05,5e-05,0.033322000002954155,0.7249645000010787,0.7581310000023223,2.0006055000012566,2.0337533000019903,2.30058850000205,2.30058850000205,2.6939364000027126,2.406701300002169,0.10611280000011902,20.058189400002448,17.757600900000398,17.65148810000028,0.7659,0.09917676210942664,-0.10961642127883997,20.058189400002448,0.11297808848209301,-0.09532964638255134,space,17.358650599999237,,,,,,,,p5_base2_01,001,2023-05-02_17h16.50.645,expectation_shapes_perceived_time,2022.2.4,119.87389266060589,
,,,,,,,,,,,,,3,0,3,0,test,,,,,,red,1.381910704885037,1.3833333333333333,2.300933200000145,0.9971251999995729,3.050000304938294e-05,3e-05,0.03329500000108965,1.3834242000011727,1.4168634000016027,2.0008719000034034,2.0342790000031528,2.300933200000145,2.300933200000145,2.6001868000021204,4.766687200000888,2.465754000000743,13.475001600003452,11.174068400003307,8.708314400002564,0.78674,0.09179302604149632,-0.1158698853310691,13.475001600003452,-0.13776699440059667,-0.053591465834737985,space,10.874497299999348,,,,,,,,p5_base2_01,001,2023-05-02_17h16.50.645,expectation_shapes_perceived_time,2022.2.4,119.87389266060589,
,,,,,,,,,,,,,4,0,4,0,test,,,,,,green,1.0373253341558768,1.0333333333333332,2.3267447000034736,0.9984139999978652,5.2200000936863944e-05,5e-05,,1.0335985000019718,1.0671095000034256,2.002488900001481,2.0371797000007064,2.3267447000034736,2.3267447000034736,2.6263702000032936,4.23307620000196,1.9063314999984868,8.433143800000835,6.106399099997361,4.200067599998874,1.25,-0.10452700597570448,-0.10452700597570448,8.433143800000835,-0.01729423519197544,-0.14680837641502126,space,5.804913100000704,,,,,,,,p5_base2_01,001,2023-05-02_17h16.50.645,expectation_shapes_perceived_time,2022.2.4,119.87389266060589,
,,,,,,,,,,,,,5,0,5,0,test,,,,,,green,0.9224116005739992,0.9249999999999999,2.3001311000007263,0.9968455999987782,5.4699998145224527e-05,5e-05,0.033184399999299785,0.9245388999988791,0.9578049000010651,2.00018529999943,2.033630899997661,2.3001311000007263,2.3001311000007263,2.6002631000010297,4.108099099998071,1.807967999997345,6.024523699998099,3.7243925999973726,1.9164246000000276,1.06653,-0.03067400031197179,-0.14460600147072417,6.024523699998099,0.035676402179008956,-0.14345377054665215,space,3.4208118000024115,,,,,,,,p5_base2_01,001,2023-05-02_17h16.50.645,expectation_shapes_perceived_time,2022.2.4,119.87389266060589,
,,,,,,,,,,,,,6,0,6,0,test,,,,,,red,1.5321339264545728,1.5333333333333332,2.2998250000018743,0.9982966000025044,0.00011680000170599669,0.00012,0.03324430000066059,1.5328451999994286,1.566239300002053,1.9995564999990165,2.033053099999961,2.2998250000018743,2.2998250000018743,2.599780100001226,2.4579687000004924,0.1581436999986181,6.941344300001219,4.641519299999345,4.483375600000727,1.67847,-0.1251902503000534,0.07860783158375445,6.941344300001219,-0.14707089601963416,0.014897701180782198,space,4.341356699998869,,,,,,,,p5_base2_01,001,2023-05-02_17h16.50.645,expectation_shapes_perceived_time,2022.2.4,119.87389266060589,
,,,,,,,,,,,,,7,0,7,0,test,,,,,,red,1.1878048972470525,1.1833333333333333,2.2999551000029896,0.9965419000000111,3.090000245720148e-05,3e-05,,1.183152000001428,1.2164510000002338,1.9999830000015208,,2.2999551000029896,2.2999551000029896,2.5999902000003203,2.8666578000011214,0.5667026999981317,5.583208700001705,3.283253599998716,2.716550900000584,1.26097,-0.10806715537922831,-0.10086267835394643,5.583208700001705,-0.08224403557651275,-0.12283203396744362,space,2.9831793000012112,,,,,,,,p5_base2_01,001,2023-05-02_17h16.50.645,expectation_shapes_perceived_time,2022.2.4,119.87389266060589,
,,,,,,,,,,,,,8,0,8,0,test,,,,,,red,0.25012740966864166,0.25,2.300049500001478,0.9981078000018897,3.569999898900278e-05,4e-05,0.03336940000008326,0.2500538999993296,0.28340530000059516,1.9999585000005027,2.0332348000010825,2.300049500001478,2.300049500001478,2.599974000000657,3.508225500001572,1.208176000000094,18.141502700000274,15.841453199998796,14.633277199998702,0.26557,0.10951258375683699,0.09929140927286553,18.141502700000274,0.1045688365504824,0.10448515865408073,space,15.5355206000022,,,,,,,,p5_base2_01,001,2023-05-02_17h16.50.645,expectation_shapes_perceived_time,2022.2.4,119.87389266060589,
,,,,,,,,,,,,,9,0,9,0,test,,,,,,green,0.75882559190651,0.7583333333333333,2.3000117000010505,0.998254199999792,3.6600002204068005e-05,4e-05,0.03332840000075521,0.7584013000014238,0.7916165999995428,1.9998720000003232,2.0331813000011607,2.3000117000010505,2.3000117000010505,2.59990420000031,2.3000117000010505,0.0,6.783211100002518,4.483199400001467,4.483199400001467,1.30186,-0.12009770614066059,-0.0861877655832976,6.783211100002518,0.10158904296840958,-0.10738461856919994,space,4.1783517000003485,,,,,,,,p5_base2_01,001,2023-05-02_17h16.50.645,expectation_shapes_perceived_time,2022.2.4,119.87389266060589,
,,,,,,,,,,,,,10,0,10,0,test,,,,,,green,0.7350706505774794,0.7333333333333333,2.2999963000002026,0.9982255000031728,1.6599999071331695e-05,2e-05,0.033262199998716824,0.7332716999990225,0.7666060000010475,2.0000091000001703,2.0333433999985573,2.2999963000002026,2.2999963000002026,2.600075199999992,2.2999963000002026,0.0,7.683425399998669,5.383429099998466,5.383429099998466,0.68628,0.12322452245499087,-0.08165480403643974,7.683425399998669,0.1093127798047375,-0.0995113366800532,space,5.082834500000899,,,,,,,,p5_base2_01,001,2023-05-02_17h16.50.645,expectation_shapes_perceived_time,2022.2.4,119.87389266060589,
,,,,,,,,,,,,,11,0,11,0,test,,,,,,red,0.9301848480335668,0.9333333333333333,2.3000580000007176,0.9974771000015608,8.009999874047935e-05,8e-05,,0.9332357999992382,0.9666987999989942,1.9999726999994891,,2.3000580000007176,2.3000580000007176,2.600027099997533,2.3000580000007176,0.0,6.0833480000001146,3.783289999999397,3.783289999999397,0.38698,0.13860251788066,0.05139194483215483,6.0833480000001146,0.032162917816224726,-0.14428214260273756,space,3.479246399998374,,,,,,,,p5_base2_01,001,2023-05-02_17h16.50.645,expectation_shapes_perceived_time,2022.2.4,119.87389266060589,
,,,,,,,,,,,,,12,0,12,0,test,,,,,,red,1.4290343740883589,1.425,2.3000739000017347,0.9964853000019502,2.8500002372311428e-05,3e-05,0.033336700002109865,1.42508540000199,1.4582609999997658,1.9998097000025155,2.0331742000016675,2.3000739000017347,2.3000739000017347,2.600047399999312,3.324935100001312,1.0248611999995774,5.100098999999318,2.8000250999975833,1.775163899998006,1.25497,-0.10614728380273242,-0.10288121353187911,5.100098999999318,-0.14416495336246707,-0.03268418850893528,space,2.492396399997233,,,,,,,,p5_base2_01,001,2023-05-02_17h16.50.645,expectation_shapes_perceived_time,2022.2.4,119.87389266060589,
,,,,,,,,,,,,,13,0,13,0,test,,,,,,red,0.3737585422484648,0.375,2.300146699999459,0.9968551000019943,4.1799998143687844e-05,4e-05,0.033339300000079675,0.3750235999978031,0.4083950999993249,1.9999290999985533,2.033258899999055,2.300146699999459,2.300146699999459,2.5998037999997905,2.300146699999459,0.0,5.799974799996562,3.499828099997103,3.499828099997103,0.31668,0.12397845128475751,0.08050548784724512,5.799974799996562,0.13634944647815606,0.05710182485341764,space,3.193090500000835,,,,,,,,p5_base2_01,001,2023-05-02_17h16.50.645,expectation_shapes_perceived_time,2022.2.4,119.87389266060589,
,,,,,,,,,,,,,14,0,14,0,test,,,,,,green,0.35746769701960374,0.35833333333333334,2.300007599998935,0.9973520999992616,2.019999737967737e-05,2e-05,0.03332650000083959,0.358326899997337,0.39153779999833205,2.000109699998575,2.0332114999982878,2.300007599998935,2.300007599998935,2.600111600000673,2.3666798999984167,0.06667229999948177,5.891648599998007,3.591640999999072,3.52496869999959,0.16375,0.07273763054825735,0.12868965404691685,5.891648599998007,0.13324976461134985,0.0640022670497677,space,3.288316499998473,,,,,,,,p5_base2_01,001,2023-05-02_17h16.50.645,expectation_shapes_perceived_time,2022.2.4,119.87389266060589,
,,,,,,,,,,,,,15,0,15,0,test,,,,,,green,0.6178506931902843,0.6166666666666667,2.2997384000009333,0.9979456000000937,3.0300001526484266e-05,3e-05,0.03333589999965625,0.6167224000018905,0.649979900001199,1.9998597000012523,2.0331366999998863,2.2997384000009333,2.2997384000009333,2.5999215000010736,2.7916729999997187,0.4919345999987854,7.950348000002123,5.650609600001189,5.158675000002404,0.45279,0.14620034538265209,0.021846028620396283,7.950348000002123,0.13780712732196865,-0.053488182019551266,space,5.3494576000011875,,,,,,,,p5_base2_01,001,2023-05-02_17h16.50.645,expectation_shapes_perceived_time,2022.2.4,119.87389266060589,
,,,,,,,,,,,,,16,0,16,0,test,,,,,,red,1.0467792485063518,1.0416666666666667,2.2999899000024016,0.9964055000018561,6.310000026132911e-05,6e-05,0.03328400000100373,1.0416037000031793,1.07491900000241,1.9998891000032017,2.0332529000006616,2.2999899000024016,2.2999899000024016,2.5999177000012423,2.358091800000693,0.05810189999829163,5.3583312000009755,3.058341299998574,3.0002394000002823,0.60353,0.14007396653305512,-0.04723424452858836,5.3583312000009755,-0.02164622687759981,-0.14623006126803545,space,2.7510755000002973,,,,,,,,p5_base2_01,001,2023-05-02_17h16.50.645,expectation_shapes_perceived_time,2022.2.4,119.87389266060589,
,,,,,,,,,,,,,17,0,17,0,test,,,,,,green,0.5974112596541747,0.6,2.300085599999875,0.9967525000029127,2.9200000426499173e-05,3e-05,0.033232599998882506,0.6001015000001644,0.633248400001321,1.9997944999995525,2.033153799999127,2.300085599999875,2.300085599999875,2.6001882999989903,2.9334080000007816,0.6333224000009068,7.825365600001533,5.525280000001658,4.891957600000751,0.47178,0.1472429534492788,0.013088262528824782,7.825365600001533,0.14095536312744117,-0.04453510482867555,space,5.225205000002461,,,,,,,,p5_base2_01,001,2023-05-02_17h16.50.645,expectation_shapes_perceived_time,2022.2.4,119.87389266060589,
,,,,,,,,,,,,,18,0,18,0,test,,,,,,red,0.7255454610225677,0.725,2.2997257000024547,0.9967037999995227,0.00017579999985173345,0.00018,,0.7249062000009872,0.7582723000014084,1.9995970000018133,,2.2997257000024547,2.2997257000024547,2.5997569000028307,2.2997257000024547,0.0,6.458248400002049,4.158522699999594,4.158522699999594,0.51728,0.14760567978689615,-0.008022047814505225,6.458248400002049,0.11224120001854081,-0.0961961692318766,space,3.855263000001287,,,,,,,,p5_base2_01,001,2023-05-02_17h16.50.645,expectation_shapes_perceived_time,2022.2.4,119.87389266060589,
,,,,,,,,,,,,,19,0,19,0,test,,,,,,green,1.5537337756064127,1.55,2.3003757999977097,0.9965830000001006,3.640000068116933e-05,4e-05,0.03321460000006482,1.551648299999215,1.5839147999977286,2.0002676999974938,2.033661099998426,2.3003757999977097,2.3003757999977097,2.600308599998243,2.9754632999975,0.6750874999997905,7.966810699999769,5.666434900002059,4.991347400002269,0.78415,0.09273405389199704,-0.11511813586592737,7.966810699999769,-0.14572226591059162,0.024835683489140094,space,5.364740300003177,,,,,,,,p5_base2_01,001,2023-05-02_17h16.50.645,expectation_shapes_perceived_time,2022.2.4,119.87389266060589,
,,,,,,,,,0,0,0,0,,,,,fam,0.6066858000012871,0.6066858000012871,270.0,2.6064280999999028,2.6064280999999028,,,,,,,,,,,,,,,,,,,,,,,,,,,,,,,,,,,,p5_base2_01,001,2023-05-02_17h16.50.645,expectation_shapes_perceived_time,2022.2.4,119.87389266060589,
,,,,,,,,,1,0,1,0,,,,,fam,0.4976083000001381,0.4976083000001381,270.0,2.630955399999948,2.630955399999948,,,,,,,,,,,,,,,,,,,,,,,,,,,,,,,,,,,,p5_base2_01,001,2023-05-02_17h16.50.645,expectation_shapes_perceived_time,2022.2.4,119.87389266060589,
,,,,,,,,,2,0,2,0,,,,,fam,0.49739239999689744,0.49739239999689744,270.0,2.4974619999993593,2.4974619999993593,,,,,,,,,,,,,,,,,,,,,,,,,,,,,,,,,,,,p5_base2_01,001,2023-05-02_17h16.50.645,expectation_shapes_perceived_time,2022.2.4,119.87389266060589,
,,,,,,,,,3,0,3,0,,,,,fam,0.49746439999944414,0.49746439999944414,270.0,2.497197699998651,2.497197699998651,,,,,,,,,,,,,,,,,,,,,,,,,,,,,,,,,,,,p5_base2_01,001,2023-05-02_17h16.50.645,expectation_shapes_perceived_time,2022.2.4,119.87389266060589,
,,,,,,,,,4,0,4,0,,,,,fam,0.4980461999984982,0.4980461999984982,270.0,2.498275599999033,2.498275599999033,,,,,,,,,,,,,,,,,,,,,,,,,,,,,,,,,,,,p5_base2_01,001,2023-05-02_17h16.50.645,expectation_shapes_perceived_time,2022.2.4,119.87389266060589,
,,,,,,,,,,,,,0,0,0,0,testSingleStim,,,,,,red,1.767962047765049,1.7666666666666666,0.05638570000155596,0.9972338000006857,3.469999865046702e-05,3e-05,,1.766344499999832,1.7996784999995725,1.9996279000006325,,2.2999775999996928,2.2999775999996928,2.5999469999987923,3.1082220999996935,0.8082445000000007,4.09141180000006,1.7914342000003671,0.9831897000003664,1.83888,-0.0716700942577868,0.12928722885718405,,,,None,,,,,,,,,p5_base2_01,001,2023-05-02_17h16.50.645,expectation_shapes_perceived_time,2022.2.4,119.87389266060589,
,,,,,,,,,,,,,1,0,1,0,testSingleStim,,,,,,red,0.8242975734310815,0.825,0.003623399999924004,0.9980582999996841,0.0001187999987450894,0.00012,0.03360179999799584,0.8250814999992144,0.8582282999996096,1.999491599999601,,2.300209499997436,2.300209499997436,2.6000983999983873,3.724718599998596,1.4245091000011598,4.899623399996926,2.5994138999994902,1.1749047999983304,1.74323,-0.10672683028700651,0.1022798790250479,,,,None,,,,,,,,,p5_base2_01,001,2023-05-02_17h16.50.645,expectation_shapes_perceived_time,2022.2.4,119.87389266060589,
,,,,,,,,,,,,,2,0,2,0,testSingleStim,,,,,,red,1.6245007496030155,1.625,0.004869700002018362,0.9978374000020267,3.640000068116933e-05,4e-05,,1.625116800001706,1.6584977000020444,2.0003376999993634,,2.3000682999991113,2.3000682999991113,2.6000671000001603,2.475169699999242,0.17510140000013052,3.5582193000009283,1.258151000001817,1.0830496000016865,1.3893,-0.13897421254582604,-0.05037815204786193,,,,None,,,,,,,,,p5_base2_01,001,2023-05-02_17h16.50.645,expectation_shapes_perceived_time,2022.2.4,119.87389266060589,
,,,,,,,,,,,,,3,0,3,0,testSingleStim,,,,,,red,1.6224058889086634,1.6166666666666667,0.005008699998143129,0.9976645999995526,3.80000019504223e-05,4e-05,,1.6166781000029005,1.6502720000025874,2.0003360000009707,,2.300408900002367,2.300408900002367,2.600630800003273,3.091671199999837,0.7912622999974701,4.741581300000689,2.4411723999983224,1.6499101000008523,1.86187,-0.06215402251138041,0.13412183805087352,,,,None,,,,,,,,,p5_base2_01,001,2023-05-02_17h16.50.645,expectation_shapes_perceived_time,2022.2.4,119.87389266060589,
,,,,,,,,,,,,,4,0,4,0,testSingleStim,,,,,,red,1.359265708588163,1.3583333333333334,0.004796299999725306,0.997762099999818,0.00016689999756636098,0.00017,,1.3587284999994154,1.3919405999986338,2.00050199999896,,2.3003845999992336,2.3003845999992336,2.650148299999273,2.4042808999984118,0.10389629999917815,4.224780599997757,1.9243959999985236,1.8204996999993455,1.37832,-0.13715295276450745,-0.055143970699131864,,,,None,,,,,,,,,p5_base2_01,001,2023-05-02_17h16.50.645,expectation_shapes_perceived_time,2022.2.4,119.87389266060589,
,,,,,,,,,,,,,5,0,5,0,testSingleStim,,,,,,green,0.9691319527462043,0.9666666666666667,0.00450779999664519,0.9977443999996467,0.0001508999994257465,0.00015,0.03327749999880325,0.9671462000005704,1.000502899998537,2.000079800000094,2.0334799000011117,2.3001423999994586,2.3001423999994586,2.5997558000017307,3.4900258999987273,1.1898834999992687,4.216518400000496,1.916376000001037,0.7264925000017683,0.8005,0.08669993877972913,-0.1197284868862926,,,,None,,,,,,,,,p5_base2_01,001,2023-05-02_17h16.50.645,expectation_shapes_perceived_time,2022.2.4,119.87389266060589,
,,,,,,,,,,,,,6,0,6,0,testSingleStim,,,,,,green,1.6645360332652508,1.6666666666666667,0.00478579999980866,0.9976055999977689,3.189999915775843e-05,3e-05,0.03321659999710391,1.6673111999989487,1.7006164999984321,2.001317799997196,2.0341274999991583,2.3004933999982313,2.3004933999982313,2.604419899998902,2.9085229999982403,0.6080296000000089,8.28341939999882,5.982926000000589,5.37489640000058,1.62541,-0.1364978020797021,0.05674627726908964,,,,None,,,,,,,,,p5_base2_01,001,2023-05-02_17h16.50.645,expectation_shapes_perceived_time,2022.2.4,119.87389266060589,
,,,,,,,,,,,,,7,0,7,0,testSingleStim,,,,,,green,1.3010021979366062,1.3,0.005054400000517489,0.9975854000003892,5.5199998314492404e-05,6e-05,0.033293500000581844,1.3001011999986076,1.3340341000002809,2.000301000000036,2.0337846000002173,2.3012063999995007,2.3012063999995007,2.61627800000133,2.5259317999989435,0.22472539999944274,3.4351449999994657,1.133938599999965,0.9092132000005222,1.61873,-0.13765957587875952,0.05386679056125373,,,,None,,,,,,,,,p5_base2_01,001,2023-05-02_17h16.50.645,expectation_shapes_perceived_time,2022.2.4,119.87389266060589,
,,,,,,,,,,,,,8,0,8,0,testSingleStim,,,,,,green,0.9110023845327744,0.9083333333333333,0.00488749999931315,0.9925374000013107,5.990000136080198e-05,6e-05,,0.9083757000007608,0.9417272000027879,2.0000556000013603,,2.299889100002474,2.299889100002474,2.5998227000018233,2.299889100002474,0.0,13.625077200002124,11.32518809999965,11.32518809999965,1.50987,-0.1477524959653611,0.004581472743111973,,,,None,,,,,,,,,p5_base2_01,001,2023-05-02_17h16.50.645,expectation_shapes_perceived_time,2022.2.4,119.87389266060589,
,,,,,,,,,,,,,9,0,9,0,testSingleStim,,,,,,green,1.0700494320058664,1.0666666666666667,0.004717200001323363,0.9975826000008965,6.070000017643906e-05,6e-05,0.03347049999865703,1.0667308999982197,1.100046100000327,1.9997082000008959,2.033052899998438,2.300288200000068,2.300288200000068,2.600148400000762,2.300288200000068,0.0,3.266651900001307,0.9663637000012386,0.9663637000012386,1.06991,-0.03220379982900619,-0.14427302323394772,,,,None,,,,,,,,,p5_base2_01,001,2023-05-02_17h16.50.645,expectation_shapes_perceived_time,2022.2.4,119.87389266060589,
,,,,,,,,,,,,,10,0,10,0,testSingleStim,,,,,,green,0.7860931075463755,0.7833333333333333,0.004805699998541968,0.9962133999979415,6.260000009206124e-05,6e-05,,0.7830972999981896,0.8163490000006277,1.999541599998338,,2.2995090000003984,2.2995090000003984,2.599482599998737,2.2995090000003984,0.0,3.2745614999985264,0.975052499998128,0.975052499998128,0.77926,0.09448900853719663,-0.11368208839631469,,,,None,,,,,,,,,p5_base2_01,001,2023-05-02_17h16.50.645,expectation_shapes_perceived_time,2022.2.4,119.87389266060589,
,,,,,,,,,,,,,11,0,11,0,testSingleStim,,,,,,green,1.526940231424508,1.525,0.0029520999996748287,0.9981915999997,9.050000153365545e-05,9e-05,0.03340840000237222,1.5250508999997692,1.5583484999988286,2.0004250000019965,2.03379330000098,2.300251600001502,2.300251600001502,2.6001566000013554,4.258433800001512,1.9581822000000102,7.4501277999988815,5.1498761999973794,3.1916939999973692,1.27921,-0.11366578003207066,-0.09450862609408123,,,,None,,,,,,,,,p5_base2_01,001,2023-05-02_17h16.50.645,expectation_shapes_perceived_time,2022.2.4,119.87389266060589,
,,,,,,,,,,,,,12,0,12,0,testSingleStim,,,,,,red,0.7803324625082523,0.7833333333333333,0.005316200000379467,0.9947938000004797,0.00012739999874611385,0.00013,0.03330189999905997,0.7840274000009231,0.8176968000007037,2.000802399998065,2.0341905999994196,2.300205100000312,2.300205100000312,2.6004819000008865,8.775348299997859,6.475143199997547,10.808698799999547,8.508493699999235,2.0333505000016885,1.60539,-0.13979471198227006,0.04805443224390533,,,,None,,,,,,,,,p5_base2_01,001,2023-05-02_17h16.50.645,expectation_shapes_perceived_time,2022.2.4,119.87389266060589,
,,,,,,,,,,,,,13,0,13,0,testSingleStim,,,,,,green,0.8260879252018622,0.825,0.0048986000001605134,0.997571699997934,0.00012179999976069666,0.00012,0.033191800001077354,0.8250298000020848,0.8582429000016418,1.9997293000014906,2.0330817000030947,2.2996335000025283,2.2996335000025283,2.5999902000003203,2.2996335000025283,0.0,3.0329388000027393,0.733305300000211,0.733305300000211,0.51892,0.14756232777380784,-0.008783471891298087,,,,None,,,,,,,,,p5_base2_01,001,2023-05-02_17h16.50.645,expectation_shapes_perceived_time,2022.2.4,119.87389266060589,
,,,,,,,,,,,,,14,0,14,0,testSingleStim,,,,,,green,0.7467267158883296,0.75,0.005175999998755287,0.9980977999985043,6.130000110715628e-05,6e-05,0.033201300000655465,0.7498245999995561,0.7832221999997273,1.999562799999694,2.0331941999975243,2.300056299998687,2.300056299998687,2.5998370999986946,2.300056299998687,0.0,3.43313549999948,1.1330792000007932,1.1330792000007932,0.66988,0.12726518080945864,-0.07520215229649828,,,,None,,,,,,,,,p5_base2_01,001,2023-05-02_17h16.50.645,expectation_shapes_perceived_time,2022.2.4,119.87389266060589,
,,,,,,,,,,,,,15,0,15,0,testSingleStim,,,,,,red,1.2289000287121583,1.225,0.004533499999524793,0.9977072000001499,3.1600000511389226e-05,3e-05,,1.2253774000018893,1.2586069999997562,2.0000122000019473,,2.3003572999987227,2.3003572999987227,2.6002671999995073,2.3003572999987227,0.0,3.4752102000020386,1.1748529000033159,1.1748529000033159,1.09221,-0.042226770217095436,-0.14166400330896534,,,,None,,,,,,,,,p5_base2_01,001,2023-05-02_17h16.50.645,expectation_shapes_perceived_time,2022.2.4,119.87389266060589,
,,,,,,,,,,,,,16,0,16,0,testSingleStim,,,,,,green,1.75759006069252,1.7583333333333333,0.004786500001500826,0.9945320000006177,3.1500003387918696e-05,3e-05,0.03325600000243867,1.7585892000024614,1.791848900000332,2.0003510000024107,2.0336132000011276,2.3002047000009043,2.3002047000009043,2.6003927000019758,4.774951700001111,2.4747470000002068,11.008422400002019,8.708217700001114,6.2334707000009075,1.44849,-0.14589188206249598,-0.02381908278571363,,,,None,,,,,,,,,p5_base2_01,001,2023-05-02_17h16.50.645,expectation_shapes_perceived_time,2022.2.4,119.87389266060589,
,,,,,,,,,,,,,17,0,17,0,testSingleStim,,,,,,red,1.4036307575284173,1.4,0.00484610000057728,0.9960881999977573,6.299999949987978e-05,6e-05,0.03305259999979171,1.3998380999983056,1.433302299999923,1.9997783999970125,2.033230299999559,2.299882499999512,2.299882499999512,2.5996807999981684,2.299882499999512,0.0,3.182823399998597,0.8829408999990846,0.8829408999990846,1.732,-0.11026712299864785,0.09845278839164986,,,,None,,,,,,,,,p5_base2_01,001,2023-05-02_17h16.50.645,expectation_shapes_perceived_time,2022.2.4,119.87389266060589,
,,,,,,,,,,,,,18,0,18,0,testSingleStim,,,,,,green,1.5040940369660518,1.5,0.005358800000976771,0.9984741000007489,0.000134599999000784,0.00013,,1.4999315999993996,1.5334183999984816,1.9999824000005901,,2.299897699998837,2.299897699998837,2.599260200000572,2.3415392999995674,0.04164160000073025,3.474350600001344,1.1744529000025068,1.1328113000017765,0.80147,0.08633542192935575,-0.11999160335944362,,,,None,,,,,,,,,p5_base2_01,001,2023-05-02_17h16.50.645,expectation_shapes_perceived_time,2022.2.4,119.87389266060589,
,,,,,,,,,,,,,19,0,19,0,testSingleStim,,,,,,red,1.631042344075469,1.6333333333333333,0.0044696000004478265,0.9982893000014883,0.00012090000018361025,0.00012,0.03314970000064932,1.6331549999995332,1.6663928000016313,1.999945800002024,2.03310269999929,2.300165200002084,2.300165200002084,2.661183300002449,2.300165200002084,0.0,2.9826219999995374,0.6824567999974533,0.6824567999974533,1.38055,-0.13753623388060918,-0.054180940619633924,,,,None,,,,,,,,,p5_base2_01,001,2023-05-02_17h16.50.645,expectation_shapes_perceived_time,2022.2.4,119.87389266060589,
,,,,,,,,,,,,,20,0,20,0,testSingleStim,,,,,,red,0.315855942385272,0.31666666666666665,0.005289299999276409,0.9962373999987904,3.7500001781154424e-05,4e-05,0.033242500001506414,0.3161595999990823,0.3495263000004343,1.9999658999986423,2.0335637999996834,2.3007768999996188,2.3007768999996188,2.5998904000007315,2.3333319000012125,0.032555000001593726,3.183222100000421,0.8824452000008023,0.8498901999992086,0.29517,0.11825880758807587,0.0886941056910569,,,,None,,,,,,,,,p5_base2_01,001,2023-05-02_17h16.50.645,expectation_shapes_perceived_time,2022.2.4,119.87389266060589,
,,,,,,,,,,,,,21,0,21,0,testSingleStim,,,,,,red,1.1504704989100618,1.15,0.004707000000053085,0.9973351000007824,7.159999950090423e-05,7e-05,,1.149786199999653,1.183149799999228,2.0007493999983126,,2.3004836999971303,2.3004836999971303,2.6611185999972804,2.4341843000001973,0.13370060000306694,3.1888943999983894,0.8884107000012591,0.7547100999981922,1.20908,-0.09026584499706622,-0.11706351773057026,,,,None,,,,,,,,,p5_base2_01,001,2023-05-02_17h16.50.645,expectation_shapes_perceived_time,2022.2.4,119.87389266060589,
,,,,,,,,,,,,,22,0,22,0,testSingleStim,,,,,,green,1.1160979647620375,1.1166666666666667,0.0046298999986902345,0.9923753000002762,9.11999995878432e-05,9e-05,0.033113900000898866,1.1165312999983144,1.1500109000007797,1.999583699998766,2.0329318000003695,2.299532900000486,2.299532900000486,2.6016964000009466,2.6016964000009466,0.30216350000046077,5.108140500000445,2.8086075999999593,2.5064440999994986,1.50366,-0.1478137453905312,0.001699008567707255,,,,None,,,,,,,,,p5_base2_01,001,2023-05-02_17h16.50.645,expectation_shapes_perceived_time,2022.2.4,119.87389266060589,
,,,,,,,,,,,,,23,0,23,0,testSingleStim,,,,,,red,0.40619547005525286,0.4083333333333333,0.004729500000394182,0.9980514999988372,9.520000094198622e-05,0.0001,0.03336769999805256,0.40845749999789405,0.44188429999849177,2.000267299998086,2.033446699999331,2.2999601000010443,2.2999601000010443,2.600182099999074,3.497785199997452,1.1978250999964075,6.499492200000532,4.199532099999487,3.00170700000308,1.58336,-0.14278325940788952,0.03827180149077451,,,,None,,,,,,,,,p5_base2_01,001,2023-05-02_17h16.50.645,expectation_shapes_perceived_time,2022.2.4,119.87389266060589,
,,,,,,,,,,,,,24,0,24,0,testSingleStim,,,,,,red,0.3970880303641725,0.4,0.0044161000005260576,0.9979217000000062,4.0899998566601425e-05,4e-05,,0.3999665000010282,0.43325280000135535,1.9997914000014134,,2.30006449999928,2.30006449999928,2.59989140000107,2.30006449999928,0.0,3.474558000001707,1.174493500002427,1.174493500002427,0.45626,0.14642981163034105,0.020250931395685463,,,,None,,,,,,,,,p5_base2_01,001,2023-05-02_17h16.50.645,expectation_shapes_perceived_time,2022.2.4,119.87389266060589,
,,,,,,,,,,,,,25,0,25,0,testSingleStim,,,,,,green,0.7148116568422072,0.7166666666666667,0.003368199999385979,0.9979310999988229,0.00012119999882997945,0.00012,0.033361300000251504,0.7166209999995772,0.7499920000009297,1.9999549999993178,2.0332262000010815,2.29990159999943,2.29990159999943,2.641149700000824,2.3204823000014585,0.020580700002028607,3.3493223000004946,1.0494207000010647,1.028839999999036,0.40551,0.14135832924839517,0.04323901835833264,,,,None,,,,,,,,,p5_base2_01,001,2023-05-02_17h16.50.645,expectation_shapes_perceived_time,2022.2.4,119.87389266060589,
,,,,,,,,,,,,,26,0,26,0,testSingleStim,,,,,,red,0.8389643188376885,0.8416666666666667,0.004862800000410061,0.9975981000025058,3.099999958067201e-05,3e-05,0.0333018000019365,0.8424623999999312,0.875920499998756,2.0018806000007316,2.0346845999993093,2.300906799999211,2.300906799999211,2.674417900001572,2.4261821000000054,0.12527530000079423,3.283572500000446,0.9826657000012347,0.8573904000004404,0.50398,0.1478119621266048,-0.00184764952658256,,,,None,,,,,,,,,p5_base2_01,001,2023-05-02_17h16.50.645,expectation_shapes_perceived_time,2022.2.4,119.87389266060589,
,,,,,,,,,,,,,27,0,27,0,testSingleStim,,,,,,red,0.7347875324699037,0.7333333333333333,0.0044300999979896005,0.9979576000005181,6.180000127642415e-05,6e-05,,0.7327473000004829,0.7660690999982762,2.00106550000055,,2.300011799998174,2.300011799998174,2.651433899998665,2.400637899998401,0.10062610000022687,3.154803500001435,0.8547917000032612,0.7541656000030343,0.32069,0.12498313687674119,0.07893671802741549,,,,None,,,,,,,,,p5_base2_01,001,2023-05-02_17h16.50.645,expectation_shapes_perceived_time,2022.2.4,119.87389266060589,
,,,,,,,,,,,,,28,0,28,0,testSingleStim,,,,,,green,1.1099565798869204,1.1083333333333334,0.00467439999920316,0.9928370999987237,3.7599998904624954e-05,4e-05,,1.1078515999979572,1.1411608999987948,1.9996327999979258,,2.2995266999969317,2.2995266999969317,2.5998041999991983,2.2995266999969317,0.0,3.291393599996809,0.9918668999998772,0.9918668999998772,0.6154,0.13821461570017707,-0.052426233541446474,,,,None,,,,,,,,,p5_base2_01,001,2023-05-02_17h16.50.645,expectation_shapes_perceived_time,2022.2.4,119.87389266060589,
,,,,,,,,,,,,,29,0,29,0,testSingleStim,,,,,,red,0.6043065491515272,0.6,0.004354299999249633,0.9974562999996124,0.00018090000230586156,0.00018,,0.6001179000013508,0.6333197000021755,1.999760900002002,,2.2996853000004194,2.2996853000004194,2.64088830000037,2.2996853000004194,0.0,3.4334181000012904,1.133732800000871,1.133732800000871,0.1885,0.08251163757098777,0.122652434227144,,,,None,,,,,,,,,p5_base2_01,001,2023-05-02_17h16.50.645,expectation_shapes_perceived_time,2022.2.4,119.87389266060589,
,,,,,,,,,,,,,30,0,30,0,testSingleStim,,,,,,red,1.1313954000176332,1.1333333333333333,0.004744499998196261,0.9975517999992007,5.750000127591193e-05,6e-05,0.033339300000079675,1.1333526000016718,1.1666551000016625,2.000157800001034,2.03337509999983,2.299935099999857,2.299935099999857,2.5997386000017286,2.358173700002226,0.05823860000236891,3.4766133000011905,1.1766782000013336,1.1184395999989647,0.8642,0.06116980346186625,-0.13457356761610573,,,,None,,,,,,,,,p5_base2_01,001,2023-05-02_17h16.50.645,expectation_shapes_perceived_time,2022.2.4,119.87389266060589,
,,,,,,,,,,,,,31,0,31,0,testSingleStim,,,,,,red,1.7243194660650685,1.7249999999999999,0.004874300000665244,0.9949937000019418,3.099999958067201e-05,3e-05,,1.7245565999983228,1.7579418999994232,1.9996283999971638,,2.2996657000003324,2.2996657000003324,2.599862299997767,2.683118099997955,0.3834523999976227,3.5580535999979475,1.258387899997615,0.8749354999999923,1.18881,-0.08263226757819528,-0.12257119690765632,,,,None,,,,,,,,,p5_base2_01,001,2023-05-02_17h16.50.645,expectation_shapes_perceived_time,2022.2.4,119.87389266060589,
,,,,,,,,,,,,,32,0,32,0,testSingleStim,,,,,,red,1.0406520404391586,1.0416666666666667,0.004724900001747301,0.9978369000018574,7.900000127847306e-05,8e-05,0.033179999998537824,1.041382399998838,1.0748586999980034,1.999933899998723,2.033037500001228,2.2997365000010177,2.2997365000010177,2.599676800000452,4.908086399998865,2.6083498999978474,9.24141370000143,6.941677200000413,4.333327300002566,1.58255,-0.14288052161650855,0.03790707716356349,,,,None,,,,,,,,,p5_base2_01,001,2023-05-02_17h16.50.645,expectation_shapes_perceived_time,2022.2.4,119.87389266060589,
,,,,,,,,,,,,,33,0,33,0,testSingleStim,,,,,,green,0.16741036920197377,0.16666666666666666,0.0048764000021037646,0.9975013000002946,4.459999763639644e-05,4e-05,,0.16648929999792017,0.19995139999809908,1.9997433999997156,,2.2998556999991706,2.2998556999991706,2.6001580999982252,2.2998556999991706,0.0,3.2412011999986134,0.9413454999994428,0.9413454999994428,0.13632,0.06138997257865235,0.13447327326752417,,,,None,,,,,,,,,p5_base2_01,001,2023-05-02_17h16.50.645,expectation_shapes_perceived_time,2022.2.4,119.87389266060589,
,,,,,,,,,,,,,34,0,34,0,testSingleStim,,,,,,green,1.5480605714127802,1.55,0.004732499997771811,0.9984027999998943,6.310000026132911e-05,6e-05,0.03330210000058287,1.5498432000022149,1.5831410999999207,1.9999814000002516,2.03342270000212,2.2999161000007007,2.2999161000007007,2.6005780000014056,2.5750989000007394,0.2751828000000387,3.699990600001911,1.4000745000012103,1.1248917000011716,1.14892,-0.06666362988771354,-0.13193843415276638,,,,None,,,,,,,,,p5_base2_01,001,2023-05-02_17h16.50.645,expectation_shapes_perceived_time,2022.2.4,119.87389266060589,
,,,,,,,,,,,,,35,0,35,0,testSingleStim,,,,,,red,0.2423752390780212,0.24166666666666667,0.004486699999688426,0.9982248999986041,0.00013409999883151613,0.00013,0.03322629999820492,0.24155809999865596,0.27471759999752976,1.9997302999981912,2.0331627999985358,2.2997479000005114,2.2997479000005114,2.599752300000546,13.874214499999653,11.574466599999141,14.49083889999747,12.191090999996959,0.6166243999978178,1.52005,-0.14753043999067084,0.009303721440853117,,,,None,,,,,,,,,p5_base2_01,001,2023-05-02_17h16.50.645,expectation_shapes_perceived_time,2022.2.4,119.87389266060589,
,,,,,,,,,,,,,36,0,36,0,testSingleStim,,,,,,green,0.45456212618369457,0.45,0.005442099998617778,0.9985363999985566,0.00014319999900180846,0.00014,0.03322139999727369,0.4499173999975028,0.4831434999978228,1.999884499997279,2.0334186000000045,2.2999776999968162,2.2999776999968162,2.657626699998218,2.2999776999968162,0.0,4.442595900000015,2.1426182000031986,2.1426182000031986,0.3872,0.138638028997297,0.05129607072899989,,,,None,,,,,,,,,p5_base2_01,001,2023-05-02_17h16.50.645,expectation_shapes_perceived_time,2022.2.4,119.87389266060589,
,,,,,,,,,,,,,37,0,37,0,testSingleStim,,,,,,green,0.4455102254212349,0.44166666666666665,0.005383100000472041,0.9946707000017341,5.1799997891066596e-05,5e-05,0.03355079999892041,0.4415806999968481,0.4748945999999705,2.000213299997995,2.0333566999979666,2.2999103000001924,2.2999103000001924,2.5999940000001516,2.5999940000001516,0.3000836999999592,3.174875400000019,0.8749650999998266,0.5748813999998674,0.75505,0.10285489068648794,-0.10617279038605205,,,,None,,,,,,,,,p5_base2_01,001,2023-05-02_17h16.50.645,expectation_shapes_perceived_time,2022.2.4,119.87389266060589,
,,,,,,,,,,,,,38,0,38,0,testSingleStim,,,,,,green,1.0949885406416429,1.0916666666666666,0.005513600000995211,0.9977068000007421,6.070000017643906e-05,6e-05,,1.0915143999991415,1.124677799998608,1.999982599998475,,2.299917499996809,2.299917499996809,2.599807899998268,2.7418743999987782,0.4419569000019692,3.5248246999981347,1.2249072000013257,0.7829502999993565,1.0,0.0,-0.14782350948509485,,,,None,,,,,,,,,p5_base2_01,001,2023-05-02_17h16.50.645,expectation_shapes_perceived_time,2022.2.4,119.87389266060589,
,,,,,,,,,,,,,39,0,39,0,testSingleStim,,,,,,red,0.868262793726197,0.8666666666666667,0.0037344999982451554,0.9975177999986045,2.390000008745119e-05,2e-05,0.03329850000227452,0.8669174999995448,0.9005461000015202,2.0002410000015516,2.033656499999779,2.3003242000013415,2.3003242000013415,2.600101899999572,2.3003242000013415,0.0,3.1418090000006487,0.8414847999993071,0.8414847999993071,0.78035,0.09409927771236941,-0.11400489415152448,,,,None,,,,,,,,,p5_base2_01,001,2023-05-02_17h16.50.645,expectation_shapes_perceived_time,2022.2.4,119.87389266060589,
,,,,,,,,,0,0,0,0,0,-1,-1,0,fam,0.5487833000006503,0.5487833000006503,270.0,2.5489854000006744,2.5489854000006744,,,,,,,,,,,,,,,,,,,,,,,,,,,,,,,,,,,,p5_base2_01,001,2023-05-02_17h16.50.645,expectation_shapes_perceived_time,2022.2.4,119.87389266060589,
,,,,,,,,,1,0,1,0,0,-1,-1,0,fam,0.4978421999985585,0.4978421999985585,270.0,2.497959600001195,2.497959600001195,,,,,,,,,,,,,,,,,,,,,,,,,,,,,,,,,,,,p5_base2_01,001,2023-05-02_17h16.50.645,expectation_shapes_perceived_time,2022.2.4,119.87389266060589,
,,,,,,,,,2,0,2,0,0,-1,-1,0,fam,0.4975388999991992,0.4975388999991992,270.0,2.497184899999411,2.497184899999411,,,,,,,,,,,,,,,,,,,,,,,,,,,,,,,,,,,,p5_base2_01,001,2023-05-02_17h16.50.645,expectation_shapes_perceived_time,2022.2.4,119.87389266060589,
,,,,,,,,,3,0,3,0,0,-1,-1,0,fam,0.49956160000147065,0.49956160000147065,270.0,2.5646035999998276,2.5646035999998276,,,,,,,,,,,,,,,,,,,,,,,,,,,,,,,,,,,,p5_base2_01,001,2023-05-02_17h16.50.645,expectation_shapes_perceived_time,2022.2.4,119.87389266060589,
1,-500,0.5,none,46,red,green,no_Expectation,,,,,,0,0,0,4,train_doubleStim,,,,,,red,1.0859947715259126,1.0833333333333333,2.2994858999991266,0.9967058000001998,0.00012,0.00012,0.03341,1.0829415999978664,1.1162096000007296,1.999605099998007,2.032910499998252,2.2994858999991266,2.2994858999991266,2.4992739999979676,2.957573700001376,0.6580878000022494,3.807961800001067,1.5084759000019403,0.8503880999996909,0.93377,0.03053418004598435,-0.1446355896915048,,,,None,,-0.5,-0.5,0.5526647715259126,0.55,training_double_stim.csv,0.550210800000059,0.5831499999985681,p5_base2_01,001,2023-05-02_17h16.50.645,expectation_shapes_perceived_time,2022.2.4,119.87389266060589,
1,500,0.5,none,88,red,green,no_Expectation,,,,,,0,1,1,9,train_doubleStim,,,,,,red,0.2496174057984745,0.25,2.300153299998783,0.9945057999975688,0.00016,0.00016,0.03331,0.24993320000066888,0.28324889999930747,1.9999734000011813,2.0333510999989812,2.300153299998783,2.300153299998783,2.49988360000134,4.66955439999947,2.3694011000006867,5.27260269999897,2.972449400000187,0.6030482999995002,0.55691,0.14546706305493676,-0.026289228262940372,,,,None,,0.5,0.5,0.7829474057984745,0.7833333333333333,training_double_stim.csv,0.7835503999995126,0.8167934000011883,p5_base2_01,001,2023-05-02_17h16.50.645,expectation_shapes_perceived_time,2022.2.4,119.87389266060589,
1,500,0.5,none,98,red,green,no_Expectation,,,,,,0,2,2,5,train_doubleStim,,,,,,red,0.8803556347755375,0.8833333333333333,2.300736599998345,0.9916526999986672,6e-05,6e-05,0.03332,0.8829851999980747,0.9164643999974942,1.9996549999996205,2.0329564999992726,2.300736599998345,2.300736599998345,2.500340700000379,4.778586799999175,2.4778502000008302,6.341584800000419,4.040848200002074,1.5629980000012438,1.45844,-0.14656528745516867,-0.0192459468375474,,,,None,,0.5,0.5,1.4136856347755375,1.4083333333333332,training_double_stim.csv,1.4081690999992134,1.4414255999981833,p5_base2_01,001,2023-05-02_17h16.50.645,expectation_shapes_perceived_time,2022.2.4,119.87389266060589,
1,-500,0.5,none,59,green,red,no_Expectation,,,,,,0,3,3,0,train_doubleStim,,,,,,green,0.8842808373439458,0.8833333333333333,2.300225099999807,0.9976134999997157,9e-05,9e-05,,0.8834389000003284,0.9167373000018415,2.000307900001644,,2.300225099999807,2.300225099999807,2.499827700001333,3.9422131000028457,1.641988000003039,4.633142600003339,2.332917500003532,0.6909295000004931,1.05943,-0.0274370448289482,-0.1452549432120787,,,,None,,-0.5,-0.5,0.35095083734394583,0.35,training_double_stim.csv,0.3500138000017614,0.3834506000021065,p5_base2_01,001,2023-05-02_17h16.50.645,expectation_shapes_perceived_time,2022.2.4,119.87389266060589,
1,500,0.5,none,33,green,red,no_Expectation,,,,,,0,4,4,7,train_doubleStim,,,,,,green,0.2647886774208608,0.26666666666666666,2.299571700001252,0.9992455999999947,0.00015,0.00015,0.03311,0.2664345000011963,0.2997417000005953,1.9993005000033008,2.032781800000521,2.299571700001252,2.299571700001252,2.4992361000004166,3.2411783000025025,0.9416066000012506,4.540892200002418,2.241320500001166,1.2997138999999152,0.45244,0.14617649310946662,0.022005063478844438,,,,None,,0.5,0.5,0.7981186774208608,0.8,training_double_stim.csv,0.7994147000026715,0.8326293000027363,p5_base2_01,001,2023-05-02_17h16.50.645,expectation_shapes_perceived_time,2022.2.4,119.87389266060589,
1,500,0.5,none,60,red,green,no_Expectation,,,,,,0,5,5,8,train_doubleStim,,,,,,red,0.9604505913649001,0.9583333333333334,2.299926100000448,0.9978353999977116,4e-05,4e-05,0.03317,0.95818810000128,0.9914662000010139,2.00007430000187,2.0334924000017054,2.299926100000448,2.299926100000448,2.4997831000000588,3.0498762000024726,0.7499501000020246,5.158148599999549,2.8582224999991013,2.1082723999970767,1.39219,-0.1394253659616055,-0.04911575391829284,,,,None,,0.5,0.5,1.4937805913648998,1.4916666666666667,training_double_stim.csv,1.4916601000004448,1.5251134000027378,p5_base2_01,001,2023-05-02_17h16.50.645,expectation_shapes_perceived_time,2022.2.4,119.87389266060589,
1,500,0.5,none,25,green,red,no_Expectation,,,,,,0,6,6,6,train_doubleStim,,,,,,green,0.3174249779662293,0.31666666666666665,2.2996571000003314,0.9978358000007574,5e-05,5e-05,0.03327,0.31660349999947357,0.3499283999990439,1.9996890999973402,2.0331600999998045,2.2996571000003314,2.2996571000003314,2.4996404999983497,3.02488269999958,0.7252255999992485,5.19990179999877,2.9002446999984386,2.17501909999919,1.18628,-0.08165480403643974,-0.12322452245499087,,,,None,,0.5,0.5,0.8507549779662293,0.85,training_double_stim.csv,0.8497313000007125,0.8832036999992852,p5_base2_01,001,2023-05-02_17h16.50.645,expectation_shapes_perceived_time,2022.2.4,119.87389266060589,
1,-500,0.5,none,77,green,red,no_Expectation,,,,,,0,7,7,1,train_doubleStim,,,,,,green,1.3821507291078046,1.3833333333333333,2.2998885000015434,0.9961766000014904,4e-05,4e-05,0.03319,1.3829818000012892,1.4166688000004797,1.9996920000012324,2.0330128999994486,2.2998885000015434,2.2998885000015434,2.4996543999986898,3.516891700000997,1.2170031999994535,4.783151700001326,2.483263199999783,1.2662600000003295,1.32344,-0.12566006047090839,-0.0778546026830628,,,,None,,-0.5,-0.5,0.8488207291078046,0.85,training_double_stim.csv,0.8500705000005837,0.8831667000013113,p5_base2_01,001,2023-05-02_17h16.50.645,expectation_shapes_perceived_time,2022.2.4,119.87389266060589,
1,-500,0.5,none,23,green,red,no_Expectation,,,,,,0,8,8,2,train_doubleStim,,,,,,green,1.6686259749009316,1.6666666666666667,2.3000649999994494,0.9978278999988106,0.0001,0.0001,0.03313,1.6664658000008785,1.6997558000002755,1.999807600001077,2.0333543000015197,2.3000649999994494,2.3000649999994494,2.499868400002015,3.599728799999866,1.2996638000004168,4.1997470000023895,1.8996820000029402,0.6000182000025234,1.25994,-0.10774087989837859,-0.10121112960150716,,,,None,,-0.5,-0.5,1.1352959749009317,1.1333333333333333,training_double_stim.csv,1.1330817000016395,1.1664898000017274,p5_base2_01,001,2023-05-02_17h16.50.645,expectation_shapes_perceived_time,2022.2.4,119.87389266060589,
1,-500,0.5,none,68,red,green,no_Expectation,,,,,,0,9,9,3,train_doubleStim,,,,,,red,0.6583583563697303,0.6583333333333333,2.300115999998525,0.997557800001232,4e-05,4e-05,0.03323,0.6585795999999391,0.6918221000014455,1.9999998999992386,2.0335634000002756,2.300115999998525,2.300115999998525,2.500145400001202,3.8167571000012686,1.5166411000027438,4.641831400000228,2.3417154000017035,0.8250742999989598,0.49694,0.14781667640170268,0.001421314196170218,,,,None,,-0.5,-0.5,0.12502835636973025,0.125,training_double_stim.csv,0.12489070000083302,0.1582288999998127,p5_base2_01,001,2023-05-02_17h16.50.645,expectation_shapes_perceived_time,2022.2.4,119.87389266060589,
1,500,0.5,none,60,red,green,no_Expectation,,,,,,1,0,10,8,train_doubleStim,,,,,,red,0.6673984198307593,0.6666666666666666,2.299825399997644,0.9976498999967589,8e-05,8e-05,,0.6666019000003871,0.6999868999992032,1.9999661000001652,,2.299825399997644,2.299825399997644,2.4998338999976113,3.1832353999998304,0.8834100000021863,5.616658799997822,3.316833400000178,2.4334233999979915,0.95855,0.019193965980102253,-0.14657210384805358,,,,None,,0.5,0.5,1.2007284198307593,1.2,training_double_stim.csv,1.199873599998682,1.2332107999973232,p5_base2_01,001,2023-05-02_17h16.50.645,expectation_shapes_perceived_time,2022.2.4,119.87389266060589,
1,-500,0.5,none,77,green,red,no_Expectation,,,,,,1,1,11,1,train_doubleStim,,,,,,green,1.5800695031160787,1.575,2.3000186999997823,0.9977064000013343,5e-05,5e-05,0.03325,1.5750318999998854,1.6084133999975165,1.9998986999999033,2.0332488999993075,2.3000186999997823,2.3000186999997823,2.499995799997123,3.2999340999995184,0.9999153999997361,4.183258499997464,1.883239799997682,0.8833243999979459,1.41588,-0.14269197072223172,-0.03861076854836858,,,,None,,-0.5,-0.5,1.0467395031160789,1.0416666666666667,training_double_stim.csv,1.0416149999982736,1.0750574999983655,p5_base2_01,001,2023-05-02_17h16.50.645,expectation_shapes_perceived_time,2022.2.4,119.87389266060589,
1,500,0.5,none,25,green,red,no_Expectation,,,,,,1,2,12,6,train_doubleStim,,,,,,green,0.578332833448962,0.575,2.2998849999967206,0.9978179999998247,4e-05,4e-05,,0.5749040999980934,0.6081028999979026,1.9998144999990473,,2.2998849999967206,2.2998849999967206,2.4998729999970237,2.8662513999988732,0.5663664000021527,4.024881099998311,1.72499610000159,1.1586296999994374,1.63963,-0.1338282686305042,0.06278363219702668,,,,None,,0.5,0.5,1.111662833448962,1.1083333333333334,training_double_stim.csv,1.1081039999990026,1.1414869999971415,p5_base2_01,001,2023-05-02_17h16.50.645,expectation_shapes_perceived_time,2022.2.4,119.87389266060589,
1,-500,0.5,none,59,green,red,no_Expectation,,,,,,1,3,13,0,train_doubleStim,,,,,,green,1.7392286204275502,1.7333333333333334,2.299658099997032,0.9979385000006005,3e-05,3e-05,0.03309,1.732930199999828,1.7662605000004987,1.999617199999193,2.032934499999101,2.299658099997032,2.299658099997032,2.499427700000524,3.108256199997413,0.8085981000003812,3.8162583999983326,1.5166003000013006,0.7080022000009194,1.76515,-0.09943685314367914,0.10938053845804704,,,,None,,-0.5,-0.5,1.2058986204275501,1.2083333333333333,training_double_stim.csv,1.2083127000005334,1.241375399997196,p5_base2_01,001,2023-05-02_17h16.50.645,expectation_shapes_perceived_time,2022.2.4,119.87389266060589,
1,-500,0.5,none,23,green,red,no_Expectation,,,,,,1,4,14,2,train_doubleStim,,,,,,green,1.701693911046307,1.7,2.3003198000005796,0.9979153999993287,0.0001,0.0001,,1.6999720000021625,1.7332920000008016,1.9998996000031184,,2.3003198000005796,2.3003198000005796,2.5002731000022322,3.0332082000022638,0.7328884000016842,3.6167872000005445,1.316467399999965,0.5835789999982808,1.73903,-0.10806715537922829,0.1008626783539464,,,,None,,-0.5,-0.5,1.168363911046307,1.1666666666666667,training_double_stim.csv,1.1666934000022593,1.2000114000002213,p5_base2_01,001,2023-05-02_17h16.50.645,expectation_shapes_perceived_time,2022.2.4,119.87389266060589,
1,500,0.5,none,88,red,green,no_Expectation,,,,,,1,5,15,9,train_doubleStim,,,,,,red,0.15043569464361747,0.15,2.3001688000003924,0.9955499000025156,3e-05,3e-05,0.03345,0.14992260000144597,0.1834251000000222,2.0000966000006883,2.033506200001284,2.3001688000003924,2.3001688000003924,2.50027240000054,2.8420063000012306,0.5418375000008382,3.6165848999989976,1.3164160999986052,0.774578599997767,0.40596,0.14141889043771785,0.04304053187234891,,,,None,,0.5,0.5,0.6837656946436175,0.6833333333333333,training_double_stim.csv,0.6833781000023009,0.7167741000012029,p5_base2_01,001,2023-05-02_17h16.50.645,expectation_shapes_perceived_time,2022.2.4,119.87389266060589,
1,500,0.5,none,33,green,red,no_Expectation,,,,,,1,6,16,7,train_doubleStim,,,,,,green,0.5193309716144934,0.5166666666666666,2.2995848999999,0.9989042000015615,5e-05,5e-05,0.03303,0.5165823999996064,0.5499688000018068,1.9999712999997428,2.0330828000005567,2.2995848999999,2.2995848999999,2.499929500001599,2.9081208999996306,0.6085359999997308,3.9495358999993186,1.6499509999994189,1.041414999999688,0.63667,0.1344066974806099,-0.061535596436905746,,,,None,,0.5,0.5,1.0526609716144932,1.05,training_double_stim.csv,1.0497968999989098,1.0831130000005942,p5_base2_01,001,2023-05-02_17h16.50.645,expectation_shapes_perceived_time,2022.2.4,119.87389266060589,
1,-500,0.5,none,46,red,green,no_Expectation,,,,,,1,7,17,4,train_doubleStim,,,,,,red,0.7651068995766444,0.7666666666666666,2.2999841999990167,0.9976549000020896,7e-05,7e-05,0.03331,0.7668053999987023,0.8002524000003177,2.000116799998068,2.033486399999674,2.2999841999990167,2.2999841999990167,2.499823300000571,2.8499016999994637,0.549917500000447,4.521997799998644,2.2220135999996273,1.6720960999991803,1.23383,-0.0990840670125752,-0.10970021704963684,,,,None,,-0.5,-0.5,0.23177689957664432,0.23333333333333334,training_double_stim.csv,0.2333531000003859,0.2666045000005397,p5_base2_01,001,2023-05-02_17h16.50.645,expectation_shapes_perceived_time,2022.2.4,119.87389266060589,
1,500,0.5,none,98,red,green,no_Expectation,,,,,,1,8,18,5,train_doubleStim,,,,,,red,0.5355548784590322,0.5333333333333333,2.2998714999994263,0.9919638999999734,7e-05,7e-05,,0.5333233999990625,0.5667294000013499,2.000059099998907,,2.2998714999994263,2.2998714999994263,2.4999792000016896,6.074673200000689,3.7748017000012624,7.191444399999455,4.891572900000028,1.116771199998766,0.92391,0.03499990987228956,-0.14362031982077444,,,,None,,0.5,0.5,1.0688848784590321,1.0666666666666667,training_double_stim.csv,1.0665588000010757,1.09987639999963,p5_base2_01,001,2023-05-02_17h16.50.645,expectation_shapes_perceived_time,2022.2.4,119.87389266060589,
1,-500,0.5,none,68,red,green,no_Expectation,,,,,,1,9,19,3,train_doubleStim,,,,,,red,1.4604694593679426,1.4583333333333333,2.300233699999808,0.9968967999993765,3e-05,3e-05,,1.4590312999971502,1.4923286999983247,2.0007411999977194,2.034000699997705,2.300233699999808,2.300233699999808,2.500158899998496,4.275239099999453,1.9750053999996453,5.175033600000461,2.874799900000653,0.8997945000010077,1.27192,-0.11147098794203478,-0.09708763465919158,,,,None,,-0.5,-0.5,0.9271394593679425,0.9249999999999999,training_double_stim.csv,0.9258176000003004,0.9591054999982589,p5_base2_01,001,2023-05-02_17h16.50.645,expectation_shapes_perceived_time,2022.2.4,119.87389266060589,
,,,,,,,,,,,,,0,0,0,0,test,,,,,,green,1.754379652874529,1.75,2.2860752000015054,11.56200280000121,3.730000025825575e-05,4e-05,0.027437700002337806,1.7358304000008502,1.7692449999995006,2.0027953999997408,2.0358216000022367,2.2860752000015054,2.2860752000015054,2.5858136999995622,3.018891800002166,0.7328166000006604,5.885735300002125,3.5996601000006194,2.866843499999959,1.5086,-0.14776954945063225,0.003993771606773845,5.885735300002125,-0.10307896138782671,0.10595526261444901,space,3.2996470000034606,,,,,,,,p5_base2_01,001,2023-05-02_17h16.50.645,expectation_shapes_perceived_time,2022.2.4,119.87389266060589,
,,,,,,,,,,,,,1,0,1,0,test,,,,,,green,0.9315630982899786,0.9333333333333333,2.3003721999994013,0.9981489999991027,4.0499999158782884e-05,4e-05,0.033486500000435626,0.9332188000007591,0.966714400001365,2.000564199999644,2.033815399998275,2.3003721999994013,2.3003721999994013,2.599991399998544,2.8333152000013797,0.5329430000019784,5.9167339999985415,3.61636179999914,3.083418799997162,0.79021,0.09052678340995383,-0.11686184767466767,5.9167339999985415,0.03153789089662739,-0.14442005191206087,space,3.311648300001252,,,,,,,,p5_base2_01,001,2023-05-02_17h16.50.645,expectation_shapes_perceived_time,2022.2.4,119.87389266060589,
,,,,,,,,,,,,,2,0,2,0,test,,,,,,red,1.8366309459366787,1.8333333333333333,2.299762099999498,0.9982149999996182,0.0001688999982434325,0.00017,0.03342530000008992,1.8331738999986555,1.866505900001357,1.999809599998116,2.0331660999981978,2.299762099999498,2.299762099999498,2.607872699998552,2.4007230999995954,0.10096100000009756,5.041830999998638,2.74206889999914,2.6411078999990423,1.73939,-0.10795128322300407,0.1009866843053909,5.041830999998638,-0.07258156757143305,0.1287777387802854,space,2.426309999998921,,,,,,,,p5_base2_01,001,2023-05-02_17h16.50.645,expectation_shapes_perceived_time,2022.2.4,119.87389266060589,
,,,,,,,,,,,,,3,0,3,0,test,,,,,,green,1.6655851356519167,1.6666666666666667,2.2998446000019612,0.9961738000019977,8.309999975608662e-05,8e-05,0.03306430000156979,1.6666285999999673,1.6998266000009608,1.9998607000015909,2.033159800001158,2.2998446000019612,2.2998446000019612,2.5997615000014775,2.4167415000010806,0.11689689999911934,5.766754899999796,3.466910299997835,3.3500133999987156,1.62489,-0.1365914109919047,0.056520583858719185,5.766754899999796,-0.12826930722496618,0.0734763552479106,space,3.162021599997388,,,,,,,,p5_base2_01,001,2023-05-02_17h16.50.645,expectation_shapes_perceived_time,2022.2.4,119.87389266060589,
,,,,,,,,,,,,,4,0,4,0,test,,,,,,red,0.7236942343408077,0.725,2.300743899999361,0.9967078999980004,4.099999932805076e-05,4e-05,,0.7252300000000105,0.7586532999994233,1.999972900001012,,2.300743899999361,2.300743899999361,2.6008485999991535,3.0333749999990687,0.7326310999997077,5.825448200001119,3.5247043000017584,2.7920732000020507,1.23822,-0.100586669541462,-0.108324105660036,5.825448200001119,0.11279875636804648,-0.09554177368204979,space,3.218892600001709,,,,,,,,p5_base2_01,001,2023-05-02_17h16.50.645,expectation_shapes_perceived_time,2022.2.4,119.87389266060589,
,,,,,,,,,0,0,0,0,0,-1,-1,0,fam,0.5562691999984963,0.5562691999984963,270.0,2.5572209999991173,2.5572209999991173,,,,,,,,,,,,,,,,,,,,,,,,,,,,,,,,,,,,p5_base2_01,001,2023-05-02_17h16.50.645,expectation_shapes_perceived_time,2022.2.4,119.87389266060589,
,,,,,,,,,1,0,1,0,0,-1,-1,0,fam,0.4976329999990412,0.4976329999990412,270.0,2.4976523999976052,2.4976523999976052,,,,,,,,,,,,,,,,,,,,,,,,,,,,,,,,,,,,p5_base2_01,001,2023-05-02_17h16.50.645,expectation_shapes_perceived_time,2022.2.4,119.87389266060589,
,,,,,,,,,2,0,2,0,0,-1,-1,0,fam,0.4971267999972042,0.4971267999972042,270.0,2.4971224000000802,2.4971224000000802,,,,,,,,,,,,,,,,,,,,,,,,,,,,,,,,,,,,p5_base2_01,001,2023-05-02_17h16.50.645,expectation_shapes_perceived_time,2022.2.4,119.87389266060589,
,,,,,,,,,3,0,3,0,0,-1,-1,0,fam,0.498431600000913,0.498431600000913,270.0,2.498241000001144,2.498241000001144,,,,,,,,,,,,,,,,,,,,,,,,,,,,,,,,,,,,p5_base2_01,001,2023-05-02_17h16.50.645,expectation_shapes_perceived_time,2022.2.4,119.87389266060589,
,100,0.5,none,,red,green,,1047.783298566238,,,,,0,0,0,98,trial,,,,,,red,1.047783298566238,1.05,2.2996096999995643,0.9910142000007909,0.00015,0.00015,0.0333,1.0501087999982701,1.083236800001032,1.9994436000015412,2.032816599999933,2.2996096999995643,2.2996096999995643,2.499739999999292,2.2996096999995643,0.0,3.7246340999990935,1.4250243999995291,1.4250243999995291,1.13607,-0.06128239586893802,-0.13452233239522982,,,,None,,0.1,0.1,1.181113298566238,1.1833333333333333,trial_list_0.5_red.csv,1.183500200000708,1.216572900000756,p5_base2_01,001,2023-05-02_17h16.50.645,expectation_shapes_perceived_time,2022.2.4,119.87389266060589,
,167,0.5,none,,green,red,,524.4984848841514,,,,,0,1,1,23,trial,,,,,,green,0.5244984848841514,0.525,2.299917299998924,0.9952564000013808,6e-05,6e-05,,0.5244883000013942,0.5578958000005514,2.0002657000004547,,2.299917299998924,2.299917299998924,2.5265084999991814,2.4006245999989915,0.10070730000006733,3.4573965999989014,1.1574792999999772,1.05677199999991,1.00707,-0.0032841560747987704,-0.14778702336594468,,,,None,,0.167,0.16666666666666666,0.7248284848841514,0.725,trial_list_0.5_red.csv,0.7245464000006905,0.7579545000007784,p5_base2_01,001,2023-05-02_17h16.50.645,expectation_shapes_perceived_time,2022.2.4,119.87389266060589,
,-233,0.5,none,,red,green,,1748.9878176727302,,,,,0,2,2,138,trial,,,,,,red,1.7489878176727303,1.75,2.300283799999306,0.9975874000010663,2e-05,2e-05,,1.7503066999997827,1.783568999999261,2.0003180999992765,,2.300283799999306,2.300283799999306,2.500456000001577,2.3585663000012573,0.05828250000195112,3.658794000002672,1.3585102000033658,1.3002277000014146,1.69359,-0.12131777929961866,0.08446174508201298,,,,None,,-0.233,-0.23333333333333334,1.4826578176727303,1.4833333333333334,trial_list_0.5_red.csv,1.4836247000021103,1.5169912000019394,p5_base2_01,001,2023-05-02_17h16.50.645,expectation_shapes_perceived_time,2022.2.4,119.87389266060589,
,167,0.5,none,,green,red,,1115.7417025087102,,,,,0,3,3,467,trial,,,,,,green,1.1157417025087102,1.1166666666666667,2.30012490000081,0.9973433000013756,2e-05,2e-05,0.0334,1.1168496999998752,1.1503081000009843,2.0000476999994135,2.033486399999674,2.30012490000081,2.30012490000081,2.5001588000013726,2.691986199999519,0.391861299998709,3.8418902000012167,1.5417653000004066,1.1499040000016976,1.52366,-0.14741532905677315,0.010977737270185235,,,,None,,0.167,0.16666666666666666,1.31607170250871,1.3166666666666667,trial_list_0.5_red.csv,1.316930199998751,1.3503345999997691,p5_base2_01,001,2023-05-02_17h16.50.645,expectation_shapes_perceived_time,2022.2.4,119.87389266060589,
,-167,0.5,none,,green,red,,1167.7389293529657,,,,,0,4,4,89,trial,,,,,,green,1.1677389293529656,1.1666666666666667,2.3005360000024666,0.9977224000031129,5e-05,5e-05,,1.1672021000013046,1.2004350000024715,2.0005539000012504,,2.3005360000024666,2.3005360000024666,2.5139692000011564,2.3920121000010113,0.09147609999854467,4.124873900000239,1.8243378999977722,1.7328617999992275,1.29776,-0.11897596589331964,-0.08772975262840743,,,,None,,-0.167,-0.16666666666666666,0.9674089293529656,0.9666666666666667,trial_list_0.5_red.csv,0.9669852000006358,1.0004036000027554,p5_base2_01,001,2023-05-02_17h16.50.645,expectation_shapes_perceived_time,2022.2.4,119.87389266060589,
,33,0.5,none,,green,red,,1177.8492617369525,,,,,0,5,5,499,trial,,,,,,green,1.1778492617369525,1.175,2.3004369999980554,0.9977659000032872,6e-05,6e-05,0.03298,1.1756592999990971,1.2089383999991696,2.0003548999993654,2.0338520999976026,2.3004369999980554,2.3004369999980554,2.500602299998718,3.0038241000002017,0.7033871000021463,6.125151399999595,3.8247144000015396,3.1213272999993933,1.30409,-0.12069944259493874,-0.08534304021864356,,,,None,,0.033,0.03333333333333333,1.2441792617369525,1.2416666666666667,trial_list_0.5_red.csv,1.2421792999994068,1.2756147000000055,p5_base2_01,001,2023-05-02_17h16.50.645,expectation_shapes_perceived_time,2022.2.4,119.87389266060589,
,167,0.5,none,,red,green,,1509.1582187633553,,,,,0,6,6,322,trial,,,,,,red,1.5091582187633552,1.5083333333333333,2.299735900000087,0.9977098000017577,5e-05,5e-05,,1.5082586999997147,1.5414805000000342,1.999775199998112,,2.299735900000087,2.299735900000087,2.5000174999986484,2.357811900001252,0.058076000001165085,3.8246818000006897,1.5249459000006027,1.4668698999994376,1.71673,-0.11486119804585167,0.09305210980929754,,,,None,,0.167,0.16666666666666666,1.7094882187633553,1.7083333333333333,trial_list_0.5_red.csv,1.70824409999841,1.7415798000001814,p5_base2_01,001,2023-05-02_17h16.50.645,expectation_shapes_perceived_time,2022.2.4,119.87389266060589,
,167,0.5,none,,red,green,,1535.783994652552,,,,,0,7,7,118,trial,,,,,,red,1.5357839946525522,1.5333333333333332,2.2999916999979177,0.9976274000000558,4e-05,4e-05,0.03332,1.5333031999980449,1.5664752999982738,1.9998104999976931,2.033229199998459,2.2999916999979177,2.2999916999979177,2.4998837999992247,2.733300699997926,0.4333090000000084,3.308065199998964,1.0080735000010463,0.574764500001038,1.59134,-0.14177970902337816,0.04183663544952142,,,,None,,0.167,0.16666666666666666,1.7361139946525521,1.7333333333333334,trial_list_0.5_red.csv,1.7332074999976612,1.7664465999987442,p5_base2_01,001,2023-05-02_17h16.50.645,expectation_shapes_perceived_time,2022.2.4,119.87389266060589,
,233,0.5,none,,red,green,,1376.7956006301313,,,,,0,8,8,386,trial,,,,,,red,1.3767956006301312,1.375,2.300024799998937,0.9979908999994223,8e-05,8e-05,0.03317,1.3748931999980414,1.408263799999986,1.9999150000003283,2.033125199999631,2.300024799998937,2.300024799998937,2.499918199999229,2.999931199999992,0.6999064000010549,3.641601899998932,1.341577099999995,0.6416706999989401,1.5227,-0.14744784557541904,0.010531988969672789,,,,None,,0.233,0.23333333333333334,1.6431256006301311,1.6416666666666666,trial_list_0.5_red.csv,1.641658099997585,1.6750266999988526,p5_base2_01,001,2023-05-02_17h16.50.645,expectation_shapes_perceived_time,2022.2.4,119.87389266060589,
,-33,0.5,none,,red,green,,1137.284571732448,,,,,0,9,9,398,trial,,,,,,red,1.137284571732448,1.1333333333333333,2.300102599998354,0.9975075999973342,3e-05,3e-05,0.03328,1.1333248999981151,1.1666193999990355,2.0002262000016344,2.0335739000001922,2.300102599998354,2.300102599998354,2.5001993000005314,3.3082819000010204,1.0081793000026664,5.0083457000000635,2.7082431000017095,1.7000637999990431,1.22066,-0.09446213387632597,-0.11370442040668867,,,,None,,-0.033,-0.03333333333333333,1.0709545717324482,1.0666666666666667,trial_list_0.5_red.csv,1.0666301999990537,1.099914099999296,p5_base2_01,001,2023-05-02_17h16.50.645,expectation_shapes_perceived_time,2022.2.4,119.87389266060589,
,-300,0.5,none,,red,green,,1842.3979385674904,,,,,0,10,10,208,trial,,,,,,red,1.8423979385674905,1.8416666666666666,2.299929000000702,0.9985145000027842,4e-05,4e-05,,1.8414970000012545,1.874811600002431,1.9998871000025247,2.0332957999999053,2.299929000000702,2.299929000000702,2.4999225000028673,3.03315140000268,0.7332224000019778,4.908164100001159,2.6082351000004564,1.8750126999984786,0.892,0.049198637830850475,-0.139396140520743,,,,None,,-0.3,-0.3,1.5090679385674906,1.5083333333333333,trial_list_0.5_red.csv,1.5082016000014846,1.5415137000018149,p5_base2_01,001,2023-05-02_17h16.50.645,expectation_shapes_perceived_time,2022.2.4,119.87389266060589,
,-33,0.5,none,,green,red,,309.406431751549,,,,,0,11,11,357,trial,,,,,,green,0.309406431751549,0.30833333333333335,2.30002279999826,0.9984817000004114,3e-05,3e-05,,0.3082710999988194,0.3416306999970402,1.9999671000005037,,2.30002279999826,2.30002279999826,2.5000308999988192,2.7500268000003416,0.45000400000208174,3.6167943000000378,1.316771500001778,0.8667674999996962,0.37372,0.13634319720096993,0.0571167447733793,,,,None,,-0.033,-0.03333333333333333,0.24307643175154903,0.24166666666666667,trial_list_0.5_red.csv,0.24165279999942868,0.2749947999982396,p5_base2_01,001,2023-05-02_17h16.50.645,expectation_shapes_perceived_time,2022.2.4,119.87389266060589,
,-100,0.5,none,,green,red,,1338.894047433705,,,,,0,12,12,247,trial,,,,,,green,1.338894047433705,1.3333333333333333,2.300333299997874,0.9971132000027865,2e-05,2e-05,0.03331,1.3336104999980307,1.366922400000476,2.0002820000008796,2.0337614999989455,2.300333299997874,2.300333299997874,2.500178099999175,2.675014500000543,0.37468120000266936,3.6501386999989336,1.3498054000010598,0.9751241999983904,0.78728,0.09159799337014571,-0.1160241249355179,,,,None,,-0.1,-0.1,1.205564047433705,1.2083333333333333,trial_list_0.5_red.csv,1.208288800000446,1.2416711000005307,p5_base2_01,001,2023-05-02_17h16.50.645,expectation_shapes_perceived_time,2022.2.4,119.87389266060589,
,300,0.5,none,,green,red,,932.0154241996752,,,,,0,13,13,251,trial,,,,,,green,0.9320154241996752,0.9333333333333333,2.3000050999980886,0.9972959000006085,3e-05,3e-05,0.03331,0.9334127000001899,0.9668241999970633,2.000025800000003,2.0333575000004203,2.3000050999980886,2.3000050999980886,2.499826799998118,2.6832862999981444,0.38328120000005583,6.691585999997187,4.391580899999099,4.008299699999043,1.13174,-0.059449446077189216,-0.13534235596296268,,,,None,,0.3,0.3,1.265345424199675,1.2666666666666666,trial_list_0.5_red.csv,1.266514200000529,1.2999235999996017,p5_base2_01,001,2023-05-02_17h16.50.645,expectation_shapes_perceived_time,2022.2.4,119.87389266060589,
,300,0.5,none,,green,red,,1206.077056171759,,,,,0,14,14,303,trial,,,,,,green,1.206077056171759,1.2083333333333333,2.3002784000018437,0.9983644999992975,7e-05,7e-05,,1.2086326999997254,1.2419575999992958,2.0000125000005937,,2.3002784000018437,2.3002784000018437,2.500067400000262,2.9997890000013285,0.6995105999994848,6.316870900001959,4.016592500000115,3.3170819000006304,1.28237,-0.11459795623479238,-0.0933761124876086,,,,None,,0.3,0.3,1.539407056171759,1.5416666666666667,trial_list_0.5_red.csv,1.541939499998989,1.5752991000008478,p5_base2_01,001,2023-05-02_17h16.50.645,expectation_shapes_perceived_time,2022.2.4,119.87389266060589,
,-233,0.5,none,,red,green,,1115.7719926080026,,,,,0,15,15,342,trial,,,,,,red,1.1157719926080025,1.1166666666666667,2.3003017000010004,0.9970686000015121,3e-05,3e-05,0.03362,1.116954799999803,1.1503002999997989,2.000423599998612,2.0336222000005364,2.3003017000010004,2.3003017000010004,2.5003617000002123,10.950448799998412,8.650147099997412,14.72542650000105,12.425124800000049,3.774977700002637,1.12188,-0.055228466040136946,-0.13711895016861586,,,,None,,-0.233,-0.23333333333333334,0.8494419926080026,0.85,trial_list_0.5_red.csv,0.8504501999996137,0.883807499998511,p5_base2_01,001,2023-05-02_17h16.50.645,expectation_shapes_perceived_time,2022.2.4,119.87389266060589,
,300,0.5,none,,red,green,,1233.1297794118784,,,,,0,16,16,114,trial,,,,,,red,1.2331297794118785,1.2333333333333334,2.299762799997552,0.997851999996783,7e-05,7e-05,,1.2331706999975722,1.2663302999972075,1.9997168999980204,,2.299762799997552,2.299762799997552,2.4995850999985123,2.6246027999986836,0.32484000000113156,3.54143479999766,1.2416720000001078,0.9168319999989762,1.1939,-0.08458189158706247,-0.1212340446081229,,,,None,,0.3,0.3,1.5664597794118784,1.5666666666666667,trial_list_0.5_red.csv,1.5664698999971733,1.5996492999984184,p5_base2_01,001,2023-05-02_17h16.50.645,expectation_shapes_perceived_time,2022.2.4,119.87389266060589,
,-33,0.5,none,,red,green,,811.5615277908524,,,,,0,17,17,392,trial,,,,,,red,0.8115615277908524,0.8083333333333333,2.300116899998102,0.997783700000582,6e-05,6e-05,0.03336,0.8085541000000376,0.8417688999979873,2.0002638999976625,2.0334158999976353,2.300116899998102,2.300116899998102,2.5000011000011,2.300116899998102,0.0,3.0664714999984426,0.7663546000003407,0.7663546000003407,0.41006,0.1419617495594894,0.04121470148501304,,,,None,,-0.033,-0.03333333333333333,0.7452315277908524,0.7416666666666667,trial_list_0.5_red.csv,0.741664099998161,0.7750563000008697,p5_base2_01,001,2023-05-02_17h16.50.645,expectation_shapes_perceived_time,2022.2.4,119.87389266060589,
,300,0.5,none,,red,green,,1184.92096282579,,,,,0,18,18,104,trial,,,,,,red,1.18492096282579,1.1833333333333333,2.3000812999998743,0.9990806999994675,0.00012,0.00012,,1.183283999998821,1.2164926000004925,1.9999234999995679,,2.3000812999998743,2.3000812999998743,2.4997867999991286,3.7263940000011644,1.42631270000129,4.6412608999999065,2.3411796000000322,0.9148668999987422,0.68166,0.12439582815356325,-0.07985905017265789,,,,None,,0.3,0.3,1.5182509628257899,1.5166666666666666,trial_list_0.5_red.csv,1.5164640000002692,1.5501184999993711,p5_base2_01,001,2023-05-02_17h16.50.645,expectation_shapes_perceived_time,2022.2.4,119.87389266060589,
,100,0.5,none,,red,green,,1154.5677771274004,,,,,0,19,19,230,trial,,,,,,red,1.1545677771274003,1.15,2.3000800000008894,0.9975391999978456,6e-05,6e-05,,1.1497315000015078,1.1834286999983306,1.9997320000002219,,2.3000800000008894,2.3000800000008894,2.4998324000007415,4.18563549999817,1.885555499997281,4.848400099999708,2.5483200999988185,0.6627646000015375,0.8382,0.07194602110135086,-0.12913388402806564,,,,None,,0.1,0.1,1.2878977771274003,1.2833333333333332,trial_list_0.5_red.csv,1.2833866000000853,1.3164974999999686,p5_base2_01,001,2023-05-02_17h16.50.645,expectation_shapes_perceived_time,2022.2.4,119.87389266060589,
,-233,0.5,none,,red,green,,992.9771899136462,,,,,0,20,20,154,trial,,,,,,red,0.9929771899136461,0.9916666666666667,2.2998625000000175,0.9988726999981736,6e-05,6e-05,,0.9916200999978173,1.0249468999973033,1.9999831999994058,,2.2998625000000175,2.2998625000000175,2.4996893999996246,7.89971759999753,5.599855099997512,8.599915699996927,6.30005319999691,0.7001980999993975,1.05583,-0.025794658929913228,-0.14555557539022465,,,,None,,-0.233,-0.23333333333333334,0.7266471899136461,0.725,trial_list_0.5_red.csv,0.7248122999990301,0.7581790999975055,p5_base2_01,001,2023-05-02_17h16.50.645,expectation_shapes_perceived_time,2022.2.4,119.87389266060589,
,167,0.5,none,,green,red,,323.8018497496661,,,,,0,21,21,473,trial,,,,,,green,0.3238018497496661,0.325,2.3001743000022543,0.9986431999968772,0.0001,0.0001,,0.32497390000207815,0.35834260000046925,1.999913600000582,,2.3001743000022543,2.3001743000022543,2.5001527999993414,3.6748891999995976,1.3747148999973433,5.808174699999654,3.5080003999973997,2.1332855000000563,0.36725,0.1351532853599624,0.059878037817704864,,,,None,,0.167,0.16666666666666666,0.5241318497496661,0.525,trial_list_0.5_red.csv,0.5251332000007096,0.5582696000019496,p5_base2_01,001,2023-05-02_17h16.50.645,expectation_shapes_perceived_time,2022.2.4,119.87389266060589,
,233,0.5,none,,red,green,,1172.827184632412,,,,,0,22,22,340,trial,,,,,,red,1.1728271846324119,1.175,2.30067599999893,0.9976882000009937,0.0001,0.0001,,1.1747408000010182,1.2081060000018624,2.000362700000551,,2.30067599999893,2.30067599999893,2.500359000001481,2.586549300001934,0.28587330000300426,4.74176240000088,2.44108640000195,2.155213099998946,1.0972,-0.044440948331447544,-0.14098507746528188,,,,None,,0.233,0.23333333333333334,1.4391571846324118,1.4416666666666667,trial_list_0.5_red.csv,1.4414028999999573,1.4746866999994381,p5_base2_01,001,2023-05-02_17h16.50.645,expectation_shapes_perceived_time,2022.2.4,119.87389266060589,
,-167,0.5,none,,red,green,,903.8539143483322,,,,,0,23,23,48,trial,,,,,,red,0.9038539143483322,0.9,2.3001193000018247,0.9975746000018262,2e-05,2e-05,,0.9006995999989158,0.933907899998303,2.000016300000425,,2.3001193000018247,2.3001193000018247,2.5000254000005953,9.983401500001492,7.683282199999667,12.558565100000123,10.258445799998299,2.575163599998632,1.00554,-0.0025704549459620234,-0.14780115939281635,,,,None,,-0.167,-0.16666666666666666,0.7035239143483322,0.7,trial_list_0.5_red.csv,0.6997845000005327,0.7331588999986707,p5_base2_01,001,2023-05-02_17h16.50.645,expectation_shapes_perceived_time,2022.2.4,119.87389266060589,
,33,0.5,none,,green,red,,342.2995598128512,,,,,0,24,24,437,trial,,,,,,green,0.3422995598128512,0.3416666666666667,2.3001471999996284,0.9976621999994677,3e-05,3e-05,,0.3414059000024281,0.37481079999997746,1.9996705000012298,,2.3001471999996284,2.3001471999996284,2.499940900001093,2.3001471999996284,0.0,5.324849399999948,3.02470220000032,3.02470220000032,0.44519,0.1456374591834131,0.025328253771028365,,,,None,,0.033,0.03333333333333333,0.4086295598128512,0.4083333333333333,trial_list_0.5_red.csv,0.40825580000091577,0.44183999999950174,p5_base2_01,001,2023-05-02_17h16.50.645,expectation_shapes_perceived_time,2022.2.4,119.87389266060589,
,100,0.5,none,,red,green,,406.5014862874806,0,0,0,0,0,25,25,30,fam,0.5822541999987152,0.5822541999987152,270.0,2.598737100001017,2.598737100001017,,,,,,,,,,,,,,,,,,,,,,,,,,,,,,,,,,,,p5_base2_01,001,2023-05-02_17h16.50.645,expectation_shapes_perceived_time,2022.2.4,119.87389266060589,
,100,0.5,none,,red,green,,406.5014862874806,1,0,1,0,0,25,25,30,fam,0.4991853000028641,0.4991853000028641,270.0,2.4989485000005516,2.4989485000005516,,,,,,,,,,,,,,,,,,,,,,,,,,,,,,,,,,,,p5_base2_01,001,2023-05-02_17h16.50.645,expectation_shapes_perceived_time,2022.2.4,119.87389266060589,
,100,0.5,none,,red,green,,406.5014862874806,2,0,2,0,0,25,25,30,fam,0.49803569999858155,0.49803569999858155,270.0,2.498285000001488,2.498285000001488,,,,,,,,,,,,,,,,,,,,,,,,,,,,,,,,,,,,p5_base2_01,001,2023-05-02_17h16.50.645,expectation_shapes_perceived_time,2022.2.4,119.87389266060589,
,100,0.5,none,,red,green,,406.5014862874806,3,0,3,0,0,25,25,30,fam,0.49867790000280365,0.49867790000280365,270.0,2.4985882000000856,2.4985882000000856,,,,,,,,,,,,,,,,,,,,,,,,,,,,,,,,,,,,p5_base2_01,001,2023-05-02_17h16.50.645,expectation_shapes_perceived_time,2022.2.4,119.87389266060589,
,100,0.5,none,,red,green,,406.5014862874806,,,,,0,25,25,30,trial,,,,,,red,0.40650148628748056,0.4083333333333333,2.2998010000010254,0.9980785000007018,0.00012,0.00012,0.03328,0.4079597999989346,0.4411785999982385,1.9995606999982556,2.032733299998654,2.2998010000010254,2.2998010000010254,2.499368599997979,2.3661960999997973,0.06639509999877191,3.45797649999804,1.1581754999970144,1.0917803999982425,0.20158,0.08748282878357486,0.11915764610176575,,,,None,,0.1,0.1,0.5398314862874807,0.5416666666666666,trial_list_0.5_red.csv,0.5413297000013699,0.5745506999992358,p5_base2_01,001,2023-05-02_17h16.50.645,expectation_shapes_perceived_time,2022.2.4,119.87389266060589,
,300,0.5,none,,red,green,,512.0122423119099,,,,,0,26,26,348,trial,,,,,,red,0.5120122423119099,0.5083333333333333,2.311033599999064,0.9945731000007072,2e-05,2e-05,,0.5090719999971043,0.5423746999986179,2.00153009999849,2.0348511999982293,2.311033599999064,2.311033599999064,2.5335236999999324,2.335261999996874,0.024228399997809902,3.46678929999689,1.155755699997826,1.1315273000000161,0.45221,0.1461609039478815,0.02210837202572998,,,,None,,0.3,0.3,0.8453422423119099,0.8416666666666667,trial_list_0.5_red.csv,0.8423511000000872,0.8755567999978666,p5_base2_01,001,2023-05-02_17h16.50.645,expectation_shapes_perceived_time,2022.2.4,119.87389266060589,
,167,0.5,none,,green,red,,1147.5530665533825,,,,,0,27,27,37,trial,,,,,,green,1.1475530665533824,1.15,2.3000260000007984,0.9978346999996575,6e-05,6e-05,0.03303,1.150093600001128,1.1834253999986686,1.9998411999986274,2.0331559000005655,2.3000260000007984,2.3000260000007984,2.5001062999981514,2.7168027000006987,0.4167766999999003,3.7915174000008847,1.4914914000000863,1.074714700000186,0.54353,0.1464433556287857,-0.0201527553617595,,,,None,,0.167,0.16666666666666666,1.3478830665533823,1.35,trial_list_0.5_red.csv,1.3499148000009882,1.3833913999988,p5_base2_01,001,2023-05-02_17h16.50.645,expectation_shapes_perceived_time,2022.2.4,119.87389266060589,
,-233,0.5,none,,green,red,,397.4531912454672,,,,,0,28,28,87,trial,,,,,,green,0.39745319124546724,0.4,2.300040499998431,0.9977812999968592,5e-05,5e-05,,0.3997719999970286,0.4331257999983791,1.9999793999995745,,2.300040499998431,2.300040499998431,2.5001005999984045,2.300040499998431,0.0,3.3915164999998524,1.0914760000014212,1.0914760000014212,0.31283,0.1229965945771262,0.08199772971808414,,,,None,,-0.233,-0.23333333333333334,0.13112319124546723,0.13333333333333333,trial_list_0.5_red.csv,0.13329659999726573,0.16660219999903347,p5_base2_01,001,2023-05-02_17h16.50.645,expectation_shapes_perceived_time,2022.2.4,119.87389266060589,
,-100,0.5,none,,green,red,,499.03047230488687,,,,,0,29,29,391,trial,,,,,,green,0.4990304723048869,0.5,2.3000388000000385,0.9978181000005861,0.00021,0.00021,,0.499869100000069,0.5332569000020158,2.000091500001872,,2.3000388000000385,2.3000388000000385,2.499710899999627,2.3000388000000385,0.0,3.6500087000022177,1.3499699000021792,1.3499699000021792,0.6094,0.13917841785490237,-0.04981122323228085,,,,None,,-0.1,-0.1,0.3657004723048869,0.36666666666666664,trial_list_0.5_red.csv,0.3666463000008662,0.39996660000178963,p5_base2_01,001,2023-05-02_17h16.50.645,expectation_shapes_perceived_time,2022.2.4,119.87389266060589,
,167,0.5,none,,green,red,,1223.1918897811056,,,,,0,30,30,301,trial,,,,,,green,1.2231918897811056,1.225,2.300158599999122,0.9975666999998793,4e-05,4e-05,,1.224865599997429,1.258436399999482,2.0000631000002613,,2.300158599999122,2.300158599999122,2.500081499998487,2.300158599999122,0.0,3.3999989999974787,1.0998403999983566,1.0998403999983566,1.10399,-0.04743956287501551,-0.14000456360675312,,,,None,,0.167,0.16666666666666666,1.4235218897811055,1.425,trial_list_0.5_red.csv,1.4249114999984158,1.4581483000001754,p5_base2_01,001,2023-05-02_17h16.50.645,expectation_shapes_perceived_time,2022.2.4,119.87389266060589,
,-300,0.5,none,,red,green,,1716.958708009745,,,,,0,31,31,144,trial,,,,,,red,1.7169587080097448,1.7166666666666666,2.2999128000010387,0.9983524000017496,6e-05,6e-05,,1.7170587000000523,1.7501238000004378,1.9999519000011787,,2.2999128000010387,2.2999128000010387,2.5003973999992013,2.8884092999978748,0.5884964999968361,5.216739600000437,2.9168267999993986,2.3283303000025626,1.0171,-0.007936039195531352,-0.14761032903688315,,,,None,,-0.3,-0.3,1.383628708009745,1.3833333333333333,trial_list_0.5_red.csv,1.383423799998127,1.4168525999994017,p5_base2_01,001,2023-05-02_17h16.50.645,expectation_shapes_perceived_time,2022.2.4,119.87389266060589,
,233,0.5,none,,green,red,,1595.139781181498,,,,,0,32,32,3,trial,,,,,,green,1.595139781181498,1.5916666666666666,2.3005004999977245,0.9977593000003253,4e-05,4e-05,0.0334,1.592177200000151,1.6256622000000789,2.000511899997946,,2.3005004999977245,2.3005004999977245,2.5003789000002143,2.6800485999992816,0.37954810000155703,3.9083185999988928,1.6078181000011682,1.2282699999996112,0.98974,0.004766021231040589,-0.14774665816225824,,,,None,,0.233,0.23333333333333334,1.861469781181498,1.8583333333333334,trial_list_0.5_red.csv,1.8587956999981543,1.892169599999761,p5_base2_01,001,2023-05-02_17h16.50.645,expectation_shapes_perceived_time,2022.2.4,119.87389266060589,
,167,0.5,none,,green,red,,1476.9038168940533,,,,,0,33,33,411,trial,,,,,,green,1.4769038168940534,1.475,2.3005974000006972,0.995812000001024,7e-05,7e-05,0.0333,1.4752346999994188,1.5086265999998432,2.000352399998519,2.0337070999994467,2.3005974000006972,2.3005974000006972,2.505565600000409,2.5362214999986463,0.2356240999979491,3.69123910000053,1.3906416999998328,1.1550176000018837,0.85242,0.06610868317625139,-0.13221736635250278,,,,None,,0.167,0.16666666666666666,1.6772338168940533,1.675,trial_list_0.5_red.csv,1.6751306999976805,1.7085458999972616,p5_base2_01,001,2023-05-02_17h16.50.645,expectation_shapes_perceived_time,2022.2.4,119.87389266060589,
,-33,0.5,none,,red,green,,305.5171581661774,,,,,0,34,34,466,trial,,,,,,red,0.3055171581661774,0.30833333333333335,2.300372599998809,0.9986619999981485,3e-05,3e-05,0.03342,0.30810289999863016,0.3414021999997203,2.0001238000004378,2.0335784000017156,2.300372599998809,2.300372599998809,2.5004525000003923,4.033009899998433,1.7326372999996238,4.908069900000555,2.607697300001746,0.8750600000021223,0.24539,0.10300130520676669,0.10603075535990689,,,,None,,-0.033,-0.03333333333333333,0.23918715816617742,0.24166666666666667,trial_list_0.5_red.csv,0.24129180000090855,0.27463920000082,p5_base2_01,001,2023-05-02_17h16.50.645,expectation_shapes_perceived_time,2022.2.4,119.87389266060589,
,233,0.5,none,,red,green,,658.9440855042844,,,,,0,35,35,414,trial,,,,,,red,0.6589440855042844,0.6583333333333333,2.3000457999987702,0.9978644000002532,3e-05,3e-05,0.03323,0.6578891999997722,0.6912582000004477,2.0003981000008935,2.033885000000737,2.3000457999987702,2.3000457999987702,2.499779800000397,2.3000457999987702,0.0,3.791418699998758,1.4913728999999876,1.4913728999999876,0.37765,0.13703727737202154,0.055430808824637925,,,,None,,0.233,0.23333333333333334,0.9252740855042845,0.9249999999999999,trial_list_0.5_red.csv,0.92544640000051,0.9586168999994698,p5_base2_01,001,2023-05-02_17h16.50.645,expectation_shapes_perceived_time,2022.2.4,119.87389266060589,
,233,0.5,none,,green,red,,212.74941221148248,,,,,0,36,36,209,trial,,,,,,green,0.21274941221148247,0.21666666666666667,2.300577999998495,0.9959295000007842,6e-05,6e-05,0.03335,0.2164383999988786,0.24984849999964354,2.0004641999985324,,2.300577999998495,2.300577999998495,2.5575905999976385,2.3142449999977543,0.013666999999259133,3.4186821000002965,1.1181041000018013,1.1044371000025421,0.18617,0.08161296686018876,0.1232522356664075,,,,None,,0.233,0.23333333333333334,0.4790794122114825,0.475,trial_list_0.5_red.csv,0.47472689999995055,0.5081040000004577,p5_base2_01,001,2023-05-02_17h16.50.645,expectation_shapes_perceived_time,2022.2.4,119.87389266060589,
,-33,0.5,none,,red,green,,926.4146456783752,,,,,0,37,37,192,trial,,,,,,red,0.9264146456783752,0.9249999999999999,2.2999166999979934,0.9949869000010949,0.00011,0.00011,0.03306,0.9247116999977152,0.9575583000005281,1.9997626999975182,2.0330561000009766,2.2999166999979934,2.2999166999979934,2.4997796999996353,2.82899130000078,0.5290746000027866,5.074191799998516,2.774275100000523,2.245200499997736,0.45984,0.14664874370305014,0.018599352859899047,,,,None,,-0.033,-0.03333333333333333,0.8600846456783752,0.8583333333333333,trial_list_0.5_red.csv,0.8580074999990757,0.8913971000001766,p5_base2_01,001,2023-05-02_17h16.50.645,expectation_shapes_perceived_time,2022.2.4,119.87389266060589,
,233,0.5,none,,green,red,,1403.7706712498325,,,,,0,38,38,493,trial,,,,,,green,1.4037706712498326,1.4,2.3172301999984484,0.9975659999981872,3e-05,3e-05,,1.4009079999996175,1.4343091000009736,2.0048983999986376,2.0387469999986934,2.3172301999984484,2.3172301999984484,2.5171055999999226,2.883611099998234,0.5663808999997855,5.930278499999986,3.6130483000015374,3.046667400001752,0.5,0.14782350948509485,0.0,,,,None,,0.233,0.23333333333333334,1.6701006712498325,1.6666666666666667,trial_list_0.5_red.csv,1.6675122999986343,1.7007440999987011,p5_base2_01,001,2023-05-02_17h16.50.645,expectation_shapes_perceived_time,2022.2.4,119.87389266060589,
,233,0.5,none,,red,green,,1056.3364249451413,,,,,0,39,39,388,trial,,,,,,red,1.0563364249451412,1.0583333333333333,2.299677099999826,0.9927319000016723,6e-05,6e-05,0.03332,1.0583084999998391,1.0914721000008285,1.9997241999990365,2.033202999999048,2.299677099999826,2.299677099999826,2.4999353000021074,2.508080899999186,0.20840379999935976,3.7970291999990877,1.4973520999992616,1.2889482999999018,0.6235,0.13683654530325098,-0.055924501123937355,,,,None,,0.233,0.23333333333333334,1.3226664249451412,1.325,trial_list_0.5_red.csv,1.3247837999988405,1.3583987999991223,p5_base2_01,001,2023-05-02_17h16.50.645,expectation_shapes_perceived_time,2022.2.4,119.87389266060589,
,-33,0.5,none,,red,green,,822.9756608455026,,,,,0,40,40,460,trial,,,,,,red,0.8229756608455026,0.825,2.3001889000006486,0.991959200000565,8e-05,8e-05,0.03332,0.8249964999995427,0.8584021999995457,1.9998857999999018,2.0333299999983865,2.3001889000006486,2.3001889000006486,2.499920199999906,5.49808689999918,3.1978979999985313,7.9081526000009035,5.607963700000255,2.4100657000017236,0.68415,0.12376826437277388,-0.08082825428426049,,,,None,,-0.033,-0.03333333333333333,0.7566456608455026,0.7583333333333333,trial_list_0.5_red.csv,0.758311199999298,0.7916946000004828,p5_base2_01,001,2023-05-02_17h16.50.645,expectation_shapes_perceived_time,2022.2.4,119.87389266060589,
,-233,0.5,none,,green,red,,1341.617946120852,,,,,0,41,41,257,trial,,,,,,green,1.341617946120852,1.3416666666666666,2.2999696000006224,0.9978124000008393,9e-05,9e-05,0.03335,1.3415783000018564,1.3749781000005896,2.0000021000014385,2.033476900000096,2.2999696000006224,2.2999696000006224,2.4998386000006576,9.524290000001201,7.224320400000579,10.057880000000296,7.757910399999673,0.5335899999990943,0.79189,0.08990849099076277,-0.11733820010658871,,,,None,,-0.233,-0.23333333333333334,1.075287946120852,1.075,trial_list_0.5_red.csv,1.0749457999991137,1.1083904000006441,p5_base2_01,001,2023-05-02_17h16.50.645,expectation_shapes_perceived_time,2022.2.4,119.87389266060589,
,100,0.5,none,,red,green,,1297.864833308925,,,,,0,42,42,166,trial,,,,,,red,1.2978648333089249,1.3,2.299918600001547,0.9980641000001924,4e-05,4e-05,0.03302,1.299688099999912,1.3329612999987148,1.9998541999993904,2.033264000001509,2.299918600001547,2.299918600001547,2.499633499999618,2.7747922999988077,0.4748736999972607,3.6077509999995527,1.3078323999980057,0.832958700000745,0.3931,0.13956545922916225,0.04871624520263211,,,,None,,0.1,0.1,1.4311948333089248,1.4333333333333333,trial_list_0.5_red.csv,1.4331665999998222,1.4663790999984485,p5_base2_01,001,2023-05-02_17h16.50.645,expectation_shapes_perceived_time,2022.2.4,119.87389266060589,
,33,0.5,none,,red,green,,887.1955779216944,,,,,0,43,43,290,trial,,,,,,red,0.8871955779216943,0.8833333333333333,2.2995650000011665,0.9987162999968859,0.00014,0.00014,0.03352,0.8832561999988684,0.916637800000899,1.9994905999992625,,2.2995650000011665,2.2995650000011665,2.4995033999985026,2.399659899998369,0.10009489999720245,3.457974599998124,1.1584095999969577,1.0583146999997552,0.37834,0.13715775029375885,0.05513203688278543,,,,None,,0.033,0.03333333333333333,0.9535255779216945,0.95,trial_list_0.5_red.csv,0.9499185999993642,0.9832996000004641,p5_base2_01,001,2023-05-02_17h16.50.645,expectation_shapes_perceived_time,2022.2.4,119.87389266060589,
,-100,0.5,none,,green,red,,1549.1811293795936,,,,,0,44,44,145,trial,,,,,,green,1.5491811293795936,1.55,2.300113600002078,0.9962702000011632,0.00014,0.00014,,1.54970460000186,1.5826890000025742,2.0000435000001744,,2.300113600002078,2.300113600002078,2.500084600000264,3.054056799999671,0.7539431999975932,4.482521600002656,2.182408000000578,1.4284648000029847,0.48567,0.14767376622912703,0.006651971451762479,,,,None,,-0.1,-0.1,1.4158511293795937,1.4166666666666667,trial_list_0.5_red.csv,1.4162675000006857,1.4496613000010257,p5_base2_01,001,2023-05-02_17h16.50.645,expectation_shapes_perceived_time,2022.2.4,119.87389266060589,
,-33,0.5,none,,green,red,,265.0857836322069,,,,,0,45,45,213,trial,,,,,,green,0.2650857836322069,0.26666666666666666,2.299945700000535,0.9983533000013267,0.00012,0.00012,0.03324,0.2666610000014771,0.30011600000216276,1.9998909999994794,2.0332057000014174,2.299945700000535,2.299945700000535,2.5001077000015357,2.999797899999976,0.6998521999994409,3.957617100000789,1.657671400000254,0.957819200000813,0.27854,0.11346522661981354,0.09474931295056593,,,,None,,-0.033,-0.03333333333333333,0.19875578363220694,0.2,trial_list_0.5_red.csv,0.20016860000032466,0.23327300000164541,p5_base2_01,001,2023-05-02_17h16.50.645,expectation_shapes_perceived_time,2022.2.4,119.87389266060589,
,33,0.5,none,,green,red,,185.3703266199552,,,,,0,46,46,297,trial,,,,,,green,0.1853703266199552,0.18333333333333332,2.300474600000598,0.9984464000008302,3e-05,3e-05,,0.18346170000222628,0.21686200000112876,2.0001945000003616,,2.300474600000598,2.300474600000598,2.5001666999996814,5.134170100001938,2.8336955000013404,6.208526800000982,3.908052200000384,1.0743566999990435,0.32951,0.1271209216643316,0.07544575025606672,,,,None,,0.033,0.03333333333333333,0.25170032661995523,0.25,trial_list_0.5_red.csv,0.2502371000009589,0.28346160000000964,p5_base2_01,001,2023-05-02_17h16.50.645,expectation_shapes_perceived_time,2022.2.4,119.87389266060589,
,-167,0.5,none,,red,green,,1728.1161904078056,,,,,0,47,47,112,trial,,,,,,red,1.7281161904078055,1.7249999999999999,2.3002490999970178,0.9958839000028092,4e-05,4e-05,,1.7246508999996877,1.7579765999980737,1.9995837999995274,,2.3002490999970178,2.3002490999970178,2.500478899997688,9.92488239999875,7.624633300001733,10.624952299996949,8.32470319999993,0.7000698999981978,0.60987,0.1391051929111255,-0.05001535026017996,,,,None,,-0.167,-0.16666666666666666,1.5277861904078056,1.525,trial_list_0.5_red.csv,1.524742099998548,1.5580632999990485,p5_base2_01,001,2023-05-02_17h16.50.645,expectation_shapes_perceived_time,2022.2.4,119.87389266060589,
,-100,0.5,none,,green,red,,297.0069267058937,,,,,0,48,48,445,trial,,,,,,green,0.2970069267058937,0.3,2.3001681999994616,0.9957446000007621,5e-05,5e-05,0.03318,0.2998224000002665,0.33316239999840036,2.0000827000003483,2.0334383999979764,2.3001681999994616,2.3001681999994616,2.5000853999990795,2.4168600999983028,0.11669189999884111,3.6751430000003893,1.3749748000009276,1.2582829000020865,0.503,0.14781693180429042,-0.0013944993566442493,,,,None,,-0.1,-0.1,0.16367692670589373,0.16666666666666666,trial_list_0.5_red.csv,0.16647419999935664,0.1998104999984207,p5_base2_01,001,2023-05-02_17h16.50.645,expectation_shapes_perceived_time,2022.2.4,119.87389266060589,
,33,0.5,none,,red,green,,1665.8854794608092,,,,,0,49,49,446,trial,,,,,,red,1.6658854794608091,1.6666666666666667,2.3003192999967723,0.9978909999990719,4e-05,4e-05,,1.6669093999989855,1.7001923999996507,2.000129099997139,,2.3003192999967723,2.3003192999967723,2.500610899998719,2.6382696999971813,0.337950400000409,4.166407199998503,1.8660879000017303,1.5281375000013213,1.54985,-0.14601458807434703,0.023054934959107428,,,,None,,0.033,0.03333333333333333,1.7322154794608091,1.7333333333333334,trial_list_0.5_red.csv,1.7337139999981446,1.7668541999992158,p5_base2_01,001,2023-05-02_17h16.50.645,expectation_shapes_perceived_time,2022.2.4,119.87389266060589,
,167,0.5,none,,red,green,,540.0388762046589,0,0,0,0,0,50,50,332,fam,0.5656082000023162,0.5656082000023162,270.0,2.5660802999991574,2.5660802999991574,,,,,,,,,,,,,,,,,,,,,,,,,,,,,,,,,,,,p5_base2_01,001,2023-05-02_17h16.50.645,expectation_shapes_perceived_time,2022.2.4,119.87389266060589,
,167,0.5,none,,red,green,,540.0388762046589,1,0,1,0,0,50,50,332,fam,0.4972153000016988,0.4972153000016988,270.0,2.5143390000012005,2.5143390000012005,,,,,,,,,,,,,,,,,,,,,,,,,,,,,,,,,,,,p5_base2_01,001,2023-05-02_17h16.50.645,expectation_shapes_perceived_time,2022.2.4,119.87389266060589,
,167,0.5,none,,red,green,,540.0388762046589,2,0,2,0,0,50,50,332,fam,0.5007655000008526,0.5007655000008526,270.0,2.500230300000112,2.500230300000112,,,,,,,,,,,,,,,,,,,,,,,,,,,,,,,,,,,,p5_base2_01,001,2023-05-02_17h16.50.645,expectation_shapes_perceived_time,2022.2.4,119.87389266060589,
,167,0.5,none,,red,green,,540.0388762046589,3,0,3,0,0,50,50,332,fam,0.522270399997069,0.522270399997069,270.0,2.5562575999974797,2.5562575999974797,,,,,,,,,,,,,,,,,,,,,,,,,,,,,,,,,,,,p5_base2_01,001,2023-05-02_17h16.50.645,expectation_shapes_perceived_time,2022.2.4,119.87389266060589,
,167,0.5,none,,red,green,,540.0388762046589,,,,,0,50,50,332,trial,,,,,,red,0.5400388762046588,0.5416666666666666,2.3005763000001025,0.9979289000002609,1e-05,1e-05,,0.5424358000018401,0.5757679999987886,2.000764899999922,,2.3005763000001025,2.3005763000001025,2.5347992999995768,2.321027400001185,0.020451100001082523,3.1481084000006376,0.8475321000005351,0.8270809999994526,0.48377,0.14763148593168557,0.007532218669983956,,,,None,,0.167,0.16666666666666666,0.740368876204659,0.7416666666666667,trial_list_0.5_red.csv,0.7423835000008694,0.7756345000016154,p5_base2_01,001,2023-05-02_17h16.50.645,expectation_shapes_perceived_time,2022.2.4,119.87389266060589,
,-167,0.5,none,,red,green,,849.6419460954805,,,,,0,51,51,432,trial,,,,,,red,0.8496419460954805,0.85,2.3006222999974852,0.9989062999993621,5e-05,5e-05,,0.8497812999994494,0.8830994999989343,2.0013174999985495,,2.3006222999974852,2.3006222999974852,2.500670400000672,2.7270932999999786,0.4264710000024934,3.5916434999999183,1.291021200002433,0.8645501999999397,0.52051,0.1475168213757151,-0.009517214282304199,,,,None,,-0.167,-0.16666666666666666,0.6493119460954805,0.65,trial_list_0.5_red.csv,0.6497873999978765,0.68312049999804,p5_base2_01,001,2023-05-02_17h16.50.645,expectation_shapes_perceived_time,2022.2.4,119.87389266060589,
,167,0.5,none,,red,green,,160.411117317507,,,,,0,52,52,62,trial,,,,,,red,0.160411117317507,0.15833333333333333,2.3001373000006424,0.9977978999995685,6e-05,6e-05,,0.15828379999948083,0.19162520000099903,2.0001200000006065,,2.3001373000006424,2.3001373000006424,2.5005961999995634,2.324961999998777,0.024824699998134747,3.291712700000062,0.9915753999994195,0.9667507000012847,0.17317,0.07651333268604153,0.12648122341978293,,,,None,,0.167,0.16666666666666666,0.36074111731750697,0.35833333333333334,trial_list_0.5_red.csv,0.3580699999984063,0.391598400001385,p5_base2_01,001,2023-05-02_17h16.50.645,expectation_shapes_perceived_time,2022.2.4,119.87389266060589,
,-33,0.5,none,,green,red,,833.4936220919619,,,,,0,53,53,147,trial,,,,,,green,0.8334936220919619,0.8333333333333334,2.299931199999264,0.9977362000026915,6e-05,6e-05,0.0332,0.8334754999996221,0.866763499998342,1.9996816999992006,2.0330079999985173,2.299931199999264,2.299931199999264,2.5001305999976466,2.525155799998174,0.22522459999890998,7.291765099998884,4.9918338999996195,4.7666093000007095,0.6972,0.12035194301650882,-0.08583239346913808,,,,None,,-0.033,-0.03333333333333333,0.7671636220919619,0.7666666666666666,trial_list_0.5_red.csv,0.7667123999999603,0.8001863999998022,p5_base2_01,001,2023-05-02_17h16.50.645,expectation_shapes_perceived_time,2022.2.4,119.87389266060589,
,-167,0.5,none,,red,green,,333.1879832955798,,,,,0,54,54,184,trial,,,,,,red,0.3331879832955798,0.3333333333333333,2.300054600000294,0.9955899000015052,6e-05,6e-05,0.03354,0.33334060000197496,0.36678269999902113,1.9999989999996615,2.0334010000005946,2.300054600000294,2.300054600000294,2.5001594999994268,2.616604599999846,0.3165499999995518,3.424724700002116,1.124670100001822,0.8081201000022702,0.33727,0.12892324511041717,0.0723227960375511,,,,None,,-0.167,-0.16666666666666666,0.1328579832955798,0.13333333333333333,trial_list_0.5_red.csv,0.13328270000056364,0.16682330000185175,p5_base2_01,001,2023-05-02_17h16.50.645,expectation_shapes_perceived_time,2022.2.4,119.87389266060589,
,300,0.5,none,,green,red,,298.0683694612284,,,,,0,55,55,17,trial,,,,,,green,0.2980683694612284,0.3,2.299786999999924,0.9984779000005801,0.00011,0.00011,,0.2999758000005386,0.3332525000005262,1.999794400002429,,2.299786999999924,2.299786999999924,2.4998350999994727,2.7027902000008908,0.4030032000009669,3.9329060000018217,1.6331190000018978,1.230115800000931,0.30653,0.12134908788250065,0.08441675678782654,,,,None,,0.3,0.3,0.6313983694612284,0.6333333333333333,trial_list_0.5_red.csv,0.6332452000024205,0.6665629000017361,p5_base2_01,001,2023-05-02_17h16.50.645,expectation_shapes_perceived_time,2022.2.4,119.87389266060589,
,-233,0.5,none,,red,green,,1778.2963737977557,,,,,0,56,56,326,trial,,,,,,red,1.7782963737977557,1.775,2.299996600002487,0.998467299999902,0.0001,0.0001,0.03352,1.7749159000013606,1.8083531000011135,1.9998955000010028,2.0331977999994706,2.299996600002487,2.299996600002487,2.4999765000029583,3.156157400000666,0.8561607999981788,4.491211399999884,2.1912147999973968,1.335053999999218,0.67895,0.12507221754208558,-0.07879549705151392,,,,None,,-0.233,-0.23333333333333334,1.5119663737977558,1.5083333333333333,trial_list_0.5_red.csv,1.5084199000011722,1.5417358000013337,p5_base2_01,001,2023-05-02_17h16.50.645,expectation_shapes_perceived_time,2022.2.4,119.87389266060589,
,-100,0.5,none,,green,red,,334.97301809814473,,,,,0,57,57,163,trial,,,,,,green,0.3349730180981447,0.3333333333333333,2.308343499997136,0.9976771000001463,0.00011,0.00011,0.03342,0.3332738999997673,0.36684629999945173,1.999839099997189,2.0340541999976267,2.308343499997136,2.308343499997136,2.549098599996796,2.325996199997462,0.01765270000032615,3.7492853999974614,1.4409419000003254,1.4232891999999993,0.29712,0.11880070752532586,0.08796693610653898,,,,None,,-0.1,-0.1,0.20164301809814475,0.2,trial_list_0.5_red.csv,0.19988329999978305,0.23320029999740655,p5_base2_01,001,2023-05-02_17h16.50.645,expectation_shapes_perceived_time,2022.2.4,119.87389266060589,
