id,delay,expectation,congruency,trial_num,stim_color,distractor_color,block,targetTimeMs,famLoop.thisRepN,famLoop.thisTrialN,famLoop.thisN,famLoop.thisIndex,trialss.thisRepN,trialss.thisTrialN,trialss.thisN,trialss.thisIndex,isTrial,handMove.started,audioCue2Start.started,handOri,handMove.ended,audioCue2End.started,target_color,expected_target_onset,expected_target_onset_in_frames,fixationPoint.started,fixationPoint.stopped,audCueStart.started,placeholder.started,audCueStart.stopped,target.started,target.stopped,audCueEnd.started,audCueEnd.stopped,responsePointer.started,cueForRep.started,responseStarted,rtUntillMotionTreshold,space2pass.started,responsePointer.stopped,rTAfterMotionTreshold,rtDurationBtwRespMotion,perceivedTime,resp_x_coord,resp_y_coord,feedbackPointer.stopped,actualTime_x_coord,actualTime_y_coord,space2pass.keys,space2pass.rt,expected_delay,expected_delays_frame,expected_distractor,expected_distractor_frame,expBlockFiles,distractor.started,distractor.stopped,participant,session,date,expName,psychopyVersion,frameRate,
,,,,,,,,,0,0,0,0,,,,,fam,1.156828499999392,1.156828499999392,270.0000000000009,3.148470999996789,3.148470999996789,,,,,,,,,,,,,,,,,,,,,,,,,,,,,,,,,,,,p5_high2_01,001,2023-05-02_18h39.22.185,expectation_shapes_perceived_time,2022.2.4,119.74441751203051,
,,,,,,,,,1,0,1,0,,,,,fam,0.49867580000136513,0.49867580000136513,270.0000000000009,2.4907219000015175,2.4907219000015175,,,,,,,,,,,,,,,,,,,,,,,,,,,,,,,,,,,,p5_high2_01,001,2023-05-02_18h39.22.185,expectation_shapes_perceived_time,2022.2.4,119.74441751203051,
,,,,,,,,,2,0,2,0,,,,,fam,0.4987750000000233,0.4987750000000233,270.0000000000009,2.4908837000002677,2.4908837000002677,,,,,,,,,,,,,,,,,,,,,,,,,,,,,,,,,,,,p5_high2_01,001,2023-05-02_18h39.22.185,expectation_shapes_perceived_time,2022.2.4,119.74441751203051,
,,,,,,,,,3,0,3,0,,,,,fam,0.49881879999884404,0.49881879999884404,270.0000000000009,2.490432700000383,2.490432700000383,,,,,,,,,,,,,,,,,,,,,,,,,,,,,,,,,,,,p5_high2_01,001,2023-05-02_18h39.22.185,expectation_shapes_perceived_time,2022.2.4,119.74441751203051,
,,,,,,,,,4,0,4,0,,,,,fam,0.49651339999763877,0.49651339999763877,270.0000000000009,2.488336499998695,2.488336499998695,,,,,,,,,,,,,,,,,,,,,,,,,,,,,,,,,,,,p5_high2_01,001,2023-05-02_18h39.22.185,expectation_shapes_perceived_time,2022.2.4,119.74441751203051,
,,,,,,,,,,,,,0,0,0,0,test,,,,,,green,1.064656804321943,1.0672268907563025,2.291884799997206,0.9987923000007868,1.5300000086426735e-05,2e-05,0.033305299999483395,1.0585317999975814,1.0919718999975885,2.0001106999989133,2.0334606999967946,2.291884799997206,2.291884799997206,2.533342199996696,0.24145739999949,2.5917752999994264,6.016888899997866,3.7250041000006604,3.4835467000011704,0.48665,0.14769356107305076,0.006196932632435696,6.016888899997866,-0.02982064326174775,-0.14478438863339343,space,3.42211149999639,,,,,,,,p5_high2_01,001,2023-05-02_18h39.22.185,expectation_shapes_perceived_time,2022.2.4,119.74441751203051,
,,,,,,,,,,,,,1,0,1,0,test,,,,,,green,1.260335491232864,1.26890756302521,2.291505600001983,0.9986380999980611,1.4400000509340316e-05,1e-05,0.03326750000269385,1.2579629000028945,1.2918051000015112,2.000128000003315,2.0332289000034507,2.291505600001983,2.291505600001983,2.291505600001983,0.0,2.5914516000011645,5.041580000000977,2.7500743999989936,2.7500743999989936,1.05725,-0.02644347327050056,-0.1454391029877531,5.041580000000977,-0.10786529512102103,-0.10107852425191496,space,2.4439572999981465,,,,,,,,p5_high2_01,001,2023-05-02_18h39.22.185,expectation_shapes_perceived_time,2022.2.4,119.74441751203051,
,,,,,,,,,,,,,2,0,2,0,test,,,,,,green,1.0660428569599818,1.0756302521008403,2.2915334999997867,0.9983692000023439,1.5300000086426735e-05,2e-05,0.033104800000728574,1.0664729999989504,1.1004223999989335,1.999759999998787,2.0331134000007296,2.2915334999997867,2.2915334999997867,2.299770300000091,0.008236800000304356,2.591468200000236,5.708701200001087,3.4171677000013005,3.408930900000996,1.20793,-0.08983986253297901,-0.11739075370975924,5.708701200001087,-0.030450809549553988,-0.14465316503369954,space,3.1156894999985525,,,,,,,,p5_high2_01,001,2023-05-02_18h39.22.185,expectation_shapes_perceived_time,2022.2.4,119.74441751203051,
,,,,,,,,,,,,,3,0,3,0,test,,,,,,green,0.4057733718212979,0.4117647058823529,2.2920148000011977,0.9982761999999639,1.3699998817173764e-05,1e-05,0.03355749999900581,0.408086600000388,0.44163539999863133,2.000563900000998,2.033591299998079,2.2920148000011977,2.2920148000011977,2.2920148000011977,0.0,2.5918817999991006,5.258012300000701,2.965997499999503,2.965997499999503,0.42448,0.14368269751744056,0.03474294735052866,5.258012300000701,0.14139386667453774,0.04312266716372001,space,2.661588099996152,,,,,,,,p5_high2_01,001,2023-05-02_18h39.22.185,expectation_shapes_perceived_time,2022.2.4,119.74441751203051,
,,,,,,,,,,,,,4,0,4,0,test,,,,,,green,0.7877561433358016,0.7899159663865546,2.291586700001062,0.9989179999975022,1.97000008483883e-05,2e-05,0.03328250000049593,0.7833854999989853,0.8166713999999047,2.0002925000007963,2.0334814000016195,2.291586700001062,2.291586700001062,2.3003312000000733,0.008744499999011168,2.5914419000000635,4.624770800000988,2.333184099999926,2.3244396000009147,0.87517,0.056495757151139595,-0.13660168146991963,4.624770800000988,0.09142319463852097,-0.11616191044648425,space,2.0282477000000654,,,,,,,,p5_high2_01,001,2023-05-02_18h39.22.185,expectation_shapes_perceived_time,2022.2.4,119.74441751203051,
,,,,,,,,,0,0,0,0,0,-1,-1,0,fam,0.5323714999976801,0.5323714999976801,270.0000000000009,2.524048399998719,2.524048399998719,,,,,,,,,,,,,,,,,,,,,,,,,,,,,,,,,,,,p5_high2_01,001,2023-05-02_18h39.22.185,expectation_shapes_perceived_time,2022.2.4,119.74441751203051,
,,,,,,,,,1,0,1,0,0,-1,-1,0,fam,0.4988883000005444,0.4988883000005444,270.0000000000009,2.4906454000010854,2.4906454000010854,,,,,,,,,,,,,,,,,,,,,,,,,,,,,,,,,,,,p5_high2_01,001,2023-05-02_18h39.22.185,expectation_shapes_perceived_time,2022.2.4,119.74441751203051,
,,,,,,,,,2,0,2,0,0,-1,-1,0,fam,0.49877399999968475,0.49877399999968475,270.0000000000009,2.4899699999987206,2.4899699999987206,,,,,,,,,,,,,,,,,,,,,,,,,,,,,,,,,,,,p5_high2_01,001,2023-05-02_18h39.22.185,expectation_shapes_perceived_time,2022.2.4,119.74441751203051,
,,,,,,,,,3,0,3,0,0,-1,-1,0,fam,0.498424100002012,0.498424100002012,270.0000000000009,2.490363000000798,2.490363000000798,,,,,,,,,,,,,,,,,,,,,,,,,,,,,,,,,,,,p5_high2_01,001,2023-05-02_18h39.22.185,expectation_shapes_perceived_time,2022.2.4,119.74441751203051,
1,-500,0.5,none,59,green,red,no_Expectation,,,,,,0,0,0,0,train_doubleStim,,,,,,green,0.706522237755083,0.7142857142857143,2.2913571000026423,0.9909028000001854,1e-05,1e-05,0.03319,0.7083103000004485,0.7412629999998899,2.000358799999958,2.0332508999999845,2.2913571000026423,2.2913571000026423,2.4246743000003335,0.1333171999976912,2.4913903000015125,4.666559100001905,2.3752019999992626,2.2418848000015714,0.7003,0.11950884911127743,-0.08700244215300997,,,,None,,-0.5,-0.5042016806722689,0.1731922377550831,0.1764705882352941,training_double_stim.csv,0.1752671000031114,0.2083907000014733,p5_high2_01,001,2023-05-02_18h39.22.185,expectation_shapes_perceived_time,2022.2.4,119.74441751203051,
1,500,0.5,none,25,green,red,no_Expectation,,,,,,0,1,1,6,train_doubleStim,,,,,,green,0.4065648917562152,0.4117647058823529,2.2915470999978425,0.9986645999997563,1e-05,1e-05,,0.40818469999794615,0.44150639999861596,1.9997076999970886,,2.2915470999978425,2.2915470999978425,2.6249738999977126,0.3334267999998701,2.4917073999968125,3.091401199999382,0.7998541000015393,0.4664273000016692,0.28924,0.1165858843213606,0.09088190982531259,,,,None,,0.5,0.5042016806722689,0.9398948917562152,0.9495798319327731,training_double_stim.csv,0.941535499998281,0.9752905999994255,p5_high2_01,001,2023-05-02_18h39.22.185,expectation_shapes_perceived_time,2022.2.4,119.74441751203051,
1,-500,0.5,none,46,red,green,no_Expectation,,,,,,0,2,2,4,train_doubleStim,,,,,,red,1.0858395936209686,1.0924369747899159,2.2921543000011297,0.9956538000005821,2e-05,2e-05,0.03337,1.0833888000015577,1.1167206000027363,2.000114200000098,2.0333832000033,2.2921543000011297,2.2921543000011297,2.2921543000011297,0.0,2.4918244000000414,2.9833675000008952,0.6912131999997655,0.6912131999997655,0.53859,0.14673857928052844,-0.017876781232145596,,,,None,,-0.5,-0.5042016806722689,0.5525095936209685,0.5546218487394958,training_double_stim.csv,0.5500906000015675,0.5838041000024532,p5_high2_01,001,2023-05-02_18h39.22.185,expectation_shapes_perceived_time,2022.2.4,119.74441751203051,
1,500,0.5,none,60,red,green,no_Expectation,,,,,,0,3,3,8,train_doubleStim,,,,,,red,0.9569544165700564,0.9663865546218487,2.292352699998446,0.9960387999999512,2e-05,2e-05,0.03337,0.9588516999974672,0.991787299997668,2.000057499997638,2.0336166999986744,2.292352699998446,2.292352699998446,2.292352699998446,0.0,2.492237999998906,2.958884899999248,0.6665322000008018,0.6665322000008018,0.72605,0.11208795339388791,-0.09637468889941765,,,,None,,0.5,0.5042016806722689,1.4902844165700562,1.495798319327731,training_double_stim.csv,1.483707499999582,1.5168259999991278,p5_high2_01,001,2023-05-02_18h39.22.185,expectation_shapes_perceived_time,2022.2.4,119.74441751203051,
1,500,0.5,none,88,red,green,no_Expectation,,,,,,0,4,4,9,train_doubleStim,,,,,,red,0.29335326080821866,0.29411764705882354,2.2921936999991885,0.9971540000005916,5e-05,5e-05,0.03337,0.29175779999786755,0.3252375000010943,2.0002808999997796,2.0332424999978684,2.2921936999991885,2.2921936999991885,2.516849399999046,0.22465569999985746,2.4921093999982986,2.9840154999983497,0.6918217999991612,0.4671660999993037,0.34951,0.13160908022390458,0.06731151431298936,,,,None,,0.5,0.5042016806722689,0.8266832608082187,0.8319327731092436,training_double_stim.csv,0.8250469999984489,0.8584530999978597,p5_high2_01,001,2023-05-02_18h39.22.185,expectation_shapes_perceived_time,2022.2.4,119.74441751203051,
1,-500,0.5,none,77,green,red,no_Expectation,,,,,,0,5,5,1,train_doubleStim,,,,,,green,0.7127720349973335,0.7142857142857143,2.291356599998835,0.9969177000020863,1e-05,1e-05,0.03324,0.7081179999986489,0.7417946999994456,1.9998722999989695,2.0333277999998245,2.291356599998835,2.291356599998835,2.291356599998835,0.0,2.491466199997376,3.0664039999974193,0.7750473999985843,0.7750473999985843,0.63622,0.13449264471507344,-0.061347522150735245,,,,None,,-0.5,-0.5042016806722689,0.17944203499733358,0.1764705882352941,training_double_stim.csv,0.17491700000027777,0.20831489999909536,p5_high2_01,001,2023-05-02_18h39.22.185,expectation_shapes_perceived_time,2022.2.4,119.74441751203051,
1,500,0.5,none,98,red,green,no_Expectation,,,,,,0,6,6,5,train_doubleStim,,,,,,red,1.2728360852111178,1.2773109243697478,2.2915911999989476,0.998147099999187,5e-05,5e-05,0.03339,1.266653499998938,1.299903600000107,1.9999103999980434,2.0332836999987194,2.2915911999989476,2.2915911999989476,3.2666146000010485,0.975023400002101,2.491612999998324,3.8332449000008637,1.5416537000019161,0.5666302999998152,0.36201,0.1341503545681549,0.06209244982868885,,,,None,,0.5,0.5042016806722689,1.8061660852111177,1.815126050420168,training_double_stim.csv,1.7999200000012934,1.833303600000363,p5_high2_01,001,2023-05-02_18h39.22.185,expectation_shapes_perceived_time,2022.2.4,119.74441751203051,
1,500,0.5,none,33,green,red,no_Expectation,,,,,,0,7,7,7,train_doubleStim,,,,,,green,1.1247773055671424,1.134453781512605,2.293489199997566,0.9976335999999719,1e-05,1e-05,0.0333,1.1249905999975454,1.158392900000763,2.0003369999976712,2.0334234999972978,2.293489199997566,2.293489199997566,2.293489199997566,0.0,2.4927863999982947,2.8416780999978073,0.5481889000002411,0.5481889000002411,1.09116,-0.04175791352802814,-0.14180291468892892,,,,None,,0.5,0.5042016806722689,1.6581073055671423,1.672268907563025,training_double_stim.csv,1.658489899997221,1.6920657999980904,p5_high2_01,001,2023-05-02_18h39.22.185,expectation_shapes_perceived_time,2022.2.4,119.74441751203051,
1,-500,0.5,none,68,red,green,no_Expectation,,,,,,0,8,8,3,train_doubleStim,,,,,,red,0.800340076304535,0.8067226890756303,2.2924118999981147,0.9973290000016277,1e-05,1e-05,,0.7999460999999428,0.833288599998923,2.000659400000586,,2.2924118999981147,2.2924118999981147,2.325035599998955,0.03262370000084047,2.491729599998507,3.150016700001288,0.8576048000031733,0.8249811000023328,0.5691,0.14435452025120404,-0.03183649540283352,,,,None,,-0.5,-0.5042016806722689,0.26701007630453494,0.2689075630252101,training_double_stim.csv,0.26659269999800017,0.30007499999919673,p5_high2_01,001,2023-05-02_18h39.22.185,expectation_shapes_perceived_time,2022.2.4,119.74441751203051,
1,-500,0.5,none,23,green,red,no_Expectation,,,,,,0,9,9,2,train_doubleStim,,,,,,green,1.5853309219990361,1.5966386554621848,2.2918038999996497,0.9972895999999309,2e-05,2e-05,,1.583974599998328,1.6171620999994047,2.0001948999997694,,2.2918038999996497,2.2918038999996497,2.2918038999996497,0.0,2.4923649999982445,2.8673598999994283,0.5755559999997786,0.5755559999997786,1.13076,-0.05903228709500201,-0.13552482811951166,,,,None,,-0.5,-0.5042016806722689,1.052000921999036,1.0588235294117647,training_double_stim.csv,1.0502512999992177,1.0839228999975603,p5_high2_01,001,2023-05-02_18h39.22.185,expectation_shapes_perceived_time,2022.2.4,119.74441751203051,
,,,,,,,,,0,0,0,0,0,-1,-1,0,fam,0.5321566999991774,0.5321566999991774,270.0000000000009,2.5236279999990074,2.5236279999990074,,,,,,,,,,,,,,,,,,,,,,,,,,,,,,,,,,,,p5_high2_01,001,2023-05-02_18h39.22.185,expectation_shapes_perceived_time,2022.2.4,119.74441751203051,
,,,,,,,,,1,0,1,0,0,-1,-1,0,fam,0.4991026999996393,0.4991026999996393,270.0000000000009,2.49080380000305,2.49080380000305,,,,,,,,,,,,,,,,,,,,,,,,,,,,,,,,,,,,p5_high2_01,001,2023-05-02_18h39.22.185,expectation_shapes_perceived_time,2022.2.4,119.74441751203051,
,,,,,,,,,2,0,2,0,0,-1,-1,0,fam,0.4989090999988548,0.4989090999988548,270.0000000000009,2.4904311999998754,2.4904311999998754,,,,,,,,,,,,,,,,,,,,,,,,,,,,,,,,,,,,p5_high2_01,001,2023-05-02_18h39.22.185,expectation_shapes_perceived_time,2022.2.4,119.74441751203051,
,,,,,,,,,3,0,3,0,0,-1,-1,0,fam,0.49902730000030715,0.49902730000030715,270.0000000000009,2.4907139999995707,2.4907139999995707,,,,,,,,,,,,,,,,,,,,,,,,,,,,,,,,,,,,p5_high2_01,001,2023-05-02_18h39.22.185,expectation_shapes_perceived_time,2022.2.4,119.74441751203051,
,233,0.1999999999999999,unmet,,green,red,,1001.04198034778,,,,,0,0,0,376,trial,,,,,,green,1.0010419803477801,1.0084033613445378,2.2918304999984684,0.9910089000004518,2e-05,2e-05,,1.0000977999989118,1.0337744999997085,2.0001175999968837,,2.2918304999984684,2.2918304999984684,2.641779499997938,0.3499489999994694,2.4916008000000147,3.158866499998112,0.8670359999996435,0.5170870000001742,0.50683,0.1477894432415777,-0.003173392953040011,,,,None,,0.233,0.23529411764705882,1.26737198034778,1.2773109243697478,trial_list_0.8_red.csv,1.2669186999992235,1.300062499998603,p5_high2_01,001,2023-05-02_18h39.22.185,expectation_shapes_perceived_time,2022.2.4,119.74441751203051,
,167,0.8,met,,red,green,,373.4357339987914,,,,,0,1,1,105,trial,,,,,,red,0.37343573399879143,0.37815126050420167,2.291636900001322,0.9959997000005387,3e-05,3e-05,,0.3748894000018481,0.40868050000062794,2.0000647000015306,,2.291636900001322,2.291636900001322,2.3167821999995795,0.025145299998257542,2.4921830000021146,2.9332500000018626,0.6416131000005407,0.6164678000022832,0.40689,0.14154489638984896,0.04262431539012498,,,,None,,0.167,0.1680672268907563,0.5737657339987915,0.5798319327731092,trial_list_0.8_red.csv,0.5754643000000215,0.6082671000003756,p5_high2_01,001,2023-05-02_18h39.22.185,expectation_shapes_perceived_time,2022.2.4,119.74441751203051,
,-233,0.8,met,,red,green,,1643.5424670182622,,,,,0,2,2,360,trial,,,,,,red,1.6435424670182621,1.6554621848739495,2.2917702999984613,0.9977428000020154,1e-05,1e-05,0.03354,1.641714099998353,1.6753496999990602,1.9997195999967516,2.033433699998568,2.2917702999984613,2.2917702999984613,2.2917702999984613,0.0,2.4918715999992855,2.8753827000000456,0.5836124000015843,0.5836124000015843,1.05324,-0.024608953801215465,-0.14576072636104545,,,,None,,-0.233,-0.23529411764705882,1.3772124670182622,1.3865546218487395,trial_list_0.8_red.csv,1.3748821999979555,1.4081981999988784,p5_high2_01,001,2023-05-02_18h39.22.185,expectation_shapes_perceived_time,2022.2.4,119.74441751203051,
,167,0.8,met,,red,green,,1209.1557447120645,,,,,0,3,3,1,trial,,,,,,red,1.2091557447120644,1.218487394957983,2.2916054999986954,0.996834099998523,2e-05,2e-05,0.03348,1.2087597999998252,1.2422205999973812,1.9999676999977964,2.0332299999972747,2.2916054999986954,2.2916054999986954,2.2916054999986954,0.0,2.491603499998746,2.9834701999971003,0.6918646999984048,0.6918646999984048,1.21156,-0.0911750739641042,-0.11635676105895203,,,,None,,0.167,0.1680672268907563,1.4094857447120643,1.4201680672268906,trial_list_0.8_red.csv,1.408407699997042,1.4417394999982207,p5_high2_01,001,2023-05-02_18h39.22.185,expectation_shapes_perceived_time,2022.2.4,119.74441751203051,
,300,0.1999999999999999,unmet,,green,red,,1143.621251193435,,,,,0,4,4,12,trial,,,,,,green,1.143621251193435,1.1512605042016806,2.2913924000022234,0.9974135999982536,1e-05,1e-05,,1.1413796000015282,1.1749135000027309,1.9996835000019928,,2.2913924000022234,2.2913924000022234,2.2996534000012616,0.008260999999038177,2.4912058000008983,2.9166253000003053,0.6252328999980818,0.6169718999990437,1.43557,-0.14480558133576743,-0.02971756333383287,,,,None,,0.3,0.3025210084033613,1.4769512511934348,1.4873949579831933,trial_list_0.8_red.csv,1.474677400001383,1.5079155000021274,p5_high2_01,001,2023-05-02_18h39.22.185,expectation_shapes_perceived_time,2022.2.4,119.74441751203051,
,100,0.1999999999999999,unmet,,green,red,,1629.1381102011717,,,,,0,5,5,499,trial,,,,,,green,1.6291381102011717,1.638655462184874,2.291726799998287,0.997322899998835,3e-05,3e-05,0.03324,1.624821299999894,1.6586930999983451,2.000327899997501,2.033634499999607,2.291726799998287,2.291726799998287,2.4085716999979923,0.11684489999970538,2.49139329999889,3.183224500000506,0.8914977000022191,0.7746528000025137,1.66513,-0.12837407488351288,0.07329315694041394,,,,None,,0.1,0.10084033613445378,1.7624681102011717,1.773109243697479,trial_list_0.8_red.csv,1.7586088999996718,1.7916554000003089,p5_high2_01,001,2023-05-02_18h39.22.185,expectation_shapes_perceived_time,2022.2.4,119.74441751203051,
,300,0.8,met,,red,green,,610.6174603432115,,,,,0,6,6,441,trial,,,,,,red,0.6106174603432115,0.6134453781512604,2.2917545000018436,0.9971382000003359,5e-05,5e-05,,0.6088746999994328,0.6424722000010661,2.0005674000021827,,2.2917545000018436,2.2917545000018436,2.575721600001998,0.28396710000015446,2.491868799999793,3.158565900001122,0.8668113999992784,0.5828442999991239,1.50629,-0.1477946502188209,0.0029208428897000175,,,,None,,0.3,0.3025210084033613,0.9439474603432115,0.9495798319327731,trial_list_0.8_red.csv,0.9419306000017968,0.9752293999990798,p5_high2_01,001,2023-05-02_18h39.22.185,expectation_shapes_perceived_time,2022.2.4,119.74441751203051,
,-167,0.8,met,,red,green,,1553.532136621578,,,,,0,7,7,167,trial,,,,,,red,1.553532136621578,1.5630252100840336,2.291779099999985,0.9985768000005919,1e-05,1e-05,,1.5501761000014085,1.5836350999998103,1.9999802000020281,,2.291779099999985,2.291779099999985,2.508655000001454,0.21687590000146884,2.491707500001212,3.516660500001308,1.2248814000013226,1.0080054999998538,1.04265,-0.019745493670853813,-0.14649882400956055,,,,None,,-0.167,-0.1680672268907563,1.353202136621578,1.361344537815126,trial_list_0.8_red.csv,1.349883899998531,1.383469200001855,p5_high2_01,001,2023-05-02_18h39.22.185,expectation_shapes_perceived_time,2022.2.4,119.74441751203051,
,300,0.8,met,,red,green,,206.18287031176516,,,,,0,8,8,461,trial,,,,,,red,0.20618287031176516,0.21008403361344538,2.2914754999983415,0.9975864999978512,2e-05,2e-05,0.03349,0.20827600000120583,0.2415819999987434,2.00016659999892,2.033553599998413,2.2914754999983415,2.2914754999983415,3.258207399998355,0.9667319000000134,2.4914308999977948,4.11696419999862,1.8254887000002782,0.8587568000002648,1.19472,-0.08489239673066344,-0.12101682087137129,,,,None,,0.3,0.3025210084033613,0.5395128703117651,0.5462184873949579,trial_list_0.8_red.csv,0.5417410999980348,0.5751598999995622,p5_high2_01,001,2023-05-02_18h39.22.185,expectation_shapes_perceived_time,2022.2.4,119.74441751203051,
,-100,0.8,met,,red,green,,851.9672841803958,,,,,0,9,9,457,trial,,,,,,red,0.8519672841803958,0.8571428571428571,2.2912427999981446,0.9959122000000207,1e-05,1e-05,0.03304,0.8498402000004717,0.882966099998157,1.999458099999174,2.0331640999975207,2.2912427999981446,2.2912427999981446,2.3329869999979564,0.041744199999811826,2.491192099998443,3.225119700000505,0.9338769000023603,0.8921327000025485,0.83518,0.07316583308902089,-0.12844668475628113,,,,None,,-0.1,-0.10084033613445378,0.7186372841803957,0.7226890756302521,trial_list_0.8_red.csv,0.7165590999975393,0.7498658999975305,p5_high2_01,001,2023-05-02_18h39.22.185,expectation_shapes_perceived_time,2022.2.4,119.74441751203051,
,-33,0.8,met,,red,green,,1407.445702228858,,,,,0,10,10,264,trial,,,,,,red,1.407445702228858,1.4201680672268906,2.2914135999999417,0.9970083000007435,1e-05,1e-05,0.03333,1.4079691000006278,1.4412741999985883,1.999672099998861,2.0329519000006258,2.2914135999999417,2.2914135999999417,2.6339645000007295,0.3425509000007878,2.49127690000023,3.616569099998742,1.3251554999988002,0.9826045999980124,0.51193,0.14771968057421872,-0.005539488021533202,,,,None,,-0.033,-0.03361344537815126,1.341115702228858,1.352941176470588,trial_list_0.8_red.csv,1.3414091000013286,1.3748047000008228,p5_high2_01,001,2023-05-02_18h39.22.185,expectation_shapes_perceived_time,2022.2.4,119.74441751203051,
,167,0.8,met,,red,green,,729.9189926205455,,,,,0,11,11,193,trial,,,,,,red,0.7299189926205455,0.7310924369747899,2.291293800000858,0.9975450999991153,1e-05,1e-05,0.03358,0.7247490000008838,0.758246199999121,2.00024349999876,2.032972699998936,2.291293800000858,2.291293800000858,2.2997525999999198,0.008458799999061739,2.491600900000776,2.791366699999344,0.5000728999984858,0.49161409999942407,0.66996,0.12724668614604623,-0.07523344217393974,,,,None,,0.167,0.1680672268907563,0.9302489926205455,0.9327731092436974,trial_list_0.8_red.csv,0.9249946999989334,0.9583926000013889,p5_high2_01,001,2023-05-02_18h39.22.185,expectation_shapes_perceived_time,2022.2.4,119.74441751203051,
,233,0.8,met,,red,green,,206.8073759942997,,,,,0,12,12,305,trial,,,,,,red,0.20680737599429969,0.21008403361344538,2.2922509999989416,0.9979655999995884,1e-05,1e-05,0.03352,0.20835199999783072,0.24221459999898798,2.000014799999917,2.033719999999448,2.2922509999989416,2.2922509999989416,2.2922509999989416,0.0,2.4924519999985932,3.034115099999326,0.7418641000003845,0.7418641000003845,0.88204,0.05353572344200552,-0.1377886652523749,,,,None,,0.233,0.23529411764705882,0.4731373759942997,0.4789915966386554,trial_list_0.8_red.csv,0.4753592999986722,0.5085474999978032,p5_high2_01,001,2023-05-02_18h39.22.185,expectation_shapes_perceived_time,2022.2.4,119.74441751203051,
,33,0.8,met,,red,green,,914.2897211901824,,,,,0,13,13,338,trial,,,,,,red,0.9142897211901824,0.9159663865546218,2.292229300001054,0.9977541999978712,3e-05,3e-05,,0.9083185999988928,0.9421935999998823,2.000978899999609,,2.292229300001054,2.292229300001054,2.6916361000003235,0.3994067999992694,2.491997500001162,3.241836400000466,0.9496070999994117,0.5502003000001423,1.0,0.0,-0.14782350948509485,,,,None,,0.033,0.03361344537815126,0.9806197211901824,0.9831932773109243,trial_list_0.8_red.csv,0.9750692999987223,1.0093889999989187,p5_high2_01,001,2023-05-02_18h39.22.185,expectation_shapes_perceived_time,2022.2.4,119.74441751203051,
,-233,0.8,met,,red,green,,1699.6243903903364,,,,,0,14,14,180,trial,,,,,,red,1.6996243903903365,1.7142857142857142,2.2913026999995054,0.9976583999996365,1e-05,1e-05,,1.699876899998344,1.7332747999971616,1.9999031999977888,,2.2913026999995054,2.2913026999995054,2.4914002000004984,0.20009750000099302,2.4914002000004984,2.941724799999065,0.6504220999995596,0.45032459999856655,1.07324,-0.03371283672050708,-0.14392787984524177,,,,None,,-0.233,-0.23529411764705882,1.4332943903903366,1.4453781512605042,trial_list_0.8_red.csv,1.4331410999984655,1.466625599998224,p5_high2_01,001,2023-05-02_18h39.22.185,expectation_shapes_perceived_time,2022.2.4,119.74441751203051,
,233,0.8,met,,red,green,,688.1245813368839,,,,,0,15,15,233,trial,,,,,,red,0.6881245813368839,0.6890756302521008,2.3003266000014264,0.9985419000004185,1e-05,1e-05,0.03339,0.6831319999982952,0.7164271000001463,2.000290700001642,2.0335025999993377,2.3003266000014264,2.3003266000014264,2.3104104999983974,0.010083899996971013,2.5003928000005544,3.192022100000031,0.8916954999986046,0.8816116000016336,0.45552,0.14638239600288158,0.0205908741180524,,,,None,,0.233,0.23529411764705882,0.954454581336884,0.9579831932773109,trial_list_0.8_red.csv,0.9498572000011336,0.9835076999988814,p5_high2_01,001,2023-05-02_18h39.22.185,expectation_shapes_perceived_time,2022.2.4,119.74441751203051,
,233,0.1999999999999999,unmet,,green,red,,170.3594978926634,,,,,0,16,16,471,trial,,,,,,green,0.1703594978926634,0.1680672268907563,2.291388599998754,0.9971267000000807,2e-05,2e-05,0.0334,0.1668954999986454,0.19993729999987409,1.9999682999987272,2.0332460999998148,2.291388599998754,2.291388599998754,4.966496099998039,2.675107499999285,2.491520199997467,5.683757999999216,3.3923694000004616,0.7172619000011764,0.72488,0.11244098759520241,-0.09596256699935377,,,,None,,0.233,0.23529411764705882,0.43668949789266337,0.4369747899159664,trial_list_0.8_red.csv,0.43332229999941774,0.4663492999970913,p5_high2_01,001,2023-05-02_18h39.22.185,expectation_shapes_perceived_time,2022.2.4,119.74441751203051,
,33,0.1999999999999999,unmet,,green,red,,1484.7430136026403,,,,,0,17,17,347,trial,,,,,,green,1.4847430136026403,1.495798319327731,2.290981099999044,0.9974665000008827,1e-05,1e-05,0.03312,1.4834325000010722,1.5165517999994336,1.9997733000018343,2.033214600000065,2.290981099999044,2.290981099999044,3.849592599999596,1.558611500000552,2.491565200001787,8.332830700001068,6.041849600002024,4.483238100001472,0.80911,0.08342891304501572,-0.12203035042405283,,,,None,,0.033,0.03361344537815126,1.5510730136026403,1.5630252100840336,trial_list_0.8_red.csv,1.5500619000013103,1.5829785999994783,p5_high2_01,001,2023-05-02_18h39.22.185,expectation_shapes_perceived_time,2022.2.4,119.74441751203051,
,-233,0.1999999999999999,unmet,,green,red,,1095.724460199106,,,,,0,18,18,449,trial,,,,,,green,1.095724460199106,1.1008403361344536,2.2912951999969664,0.9976805000005697,1e-05,1e-05,,1.0911285999973188,1.12452619999749,1.9996369999971648,,2.2912951999969664,2.2912951999969664,2.9498806999981753,0.6585855000012089,2.4912119999971765,3.649777399998129,1.3584822000011627,0.6998966999999539,0.94477,0.025518276576070455,-0.14560428399287262,,,,None,,-0.233,-0.23529411764705882,0.829394460199106,0.8319327731092436,trial_list_0.8_red.csv,0.824788299996726,0.8583813999975973,p5_high2_01,001,2023-05-02_18h39.22.185,expectation_shapes_perceived_time,2022.2.4,119.74441751203051,
,100,0.8,met,,red,green,,1486.0005479438278,,,,,0,19,19,35,trial,,,,,,red,1.4860005479438279,1.495798319327731,2.2910544000005757,0.9971396999972058,1e-05,1e-05,,1.4827770000010787,1.5165008000003581,1.9994353000001865,,2.2910544000005757,2.2910544000005757,2.8246605999993335,0.5336061999987578,2.491328500000236,3.34157580000101,1.0505214000004344,0.5169152000016766,1.03173,-0.014708988952502843,-0.14708988952502844,,,,None,,0.1,0.10084033613445378,1.6193305479438278,1.6302521008403361,trial_list_0.8_red.csv,1.6161800000008952,1.6496264999987034,p5_high2_01,001,2023-05-02_18h39.22.185,expectation_shapes_perceived_time,2022.2.4,119.74441751203051,
,-300,0.8,met,,red,green,,585.1683120163416,,,,,0,20,20,454,trial,,,,,,red,0.5851683120163416,0.5882352941176471,2.2911545999995724,0.9971366999998281,1e-05,1e-05,0.03312,0.5828556999986176,0.61705019999863,2.0000913000003493,2.0333347999985563,2.2911545999995724,2.2911545999995724,2.4078816000001098,0.11672700000053737,2.4912132999997993,3.4745073999984015,1.1833527999988291,1.0666257999982918,0.32502,0.12604497948872384,0.07722987182546084,,,,None,,-0.3,-0.3025210084033613,0.2518383120163416,0.25210084033613445,trial_list_0.8_red.csv,0.24967370000013034,0.28334220000033383,p5_high2_01,001,2023-05-02_18h39.22.185,expectation_shapes_perceived_time,2022.2.4,119.74441751203051,
,-100,0.8,met,,red,green,,1269.61600602283,,,,,0,21,21,58,trial,,,,,,red,1.26961600602283,1.2773109243697478,2.291939899998397,0.9966081000020495,1e-05,1e-05,0.03345,1.2672640999990108,1.3003115999999864,1.9999777999983053,2.033776199998101,2.291939899998397,2.291939899998397,2.291939899998397,0.0,2.4921950999996625,2.9419276000007812,0.6499877000023844,0.6499877000023844,0.86192,0.06213421940714947,-0.13413101332337027,,,,None,,-0.1,-0.10084033613445378,1.1362860060228301,1.1428571428571428,trial_list_0.8_red.csv,1.1334968999981356,1.1667526999990514,p5_high2_01,001,2023-05-02_18h39.22.185,expectation_shapes_perceived_time,2022.2.4,119.74441751203051,
,33,0.8,met,,red,green,,1266.8998116126525,,,,,0,22,22,463,trial,,,,,,red,1.2668998116126524,1.2773109243697478,2.292017499999929,0.9975109000006341,2e-05,2e-05,,1.2669399000005797,1.3003198000005796,2.000210199999856,,2.292017499999929,2.292017499999929,2.292017499999929,0.0,2.492037199997867,3.0833042999984173,0.7912867999984883,0.7912867999984883,1.22164,-0.09481125984496278,-0.11341346905505041,,,,None,,0.033,0.03361344537815126,1.3332298116126524,1.3445378151260503,trial_list_0.8_red.csv,1.3335477000000537,1.3668317000010575,p5_high2_01,001,2023-05-02_18h39.22.185,expectation_shapes_perceived_time,2022.2.4,119.74441751203051,
,100,0.8,met,,red,green,,1022.9212464111644,,,,,0,23,23,43,trial,,,,,,red,1.0229212464111643,1.0252100840336134,2.2920591999973112,0.9984862999990582,2e-05,2e-05,0.03317,1.0165812999985064,1.0500002999979188,1.9998261999971874,2.033387399998901,2.2920591999973112,2.2920591999973112,2.5085933999980625,0.2165342000007513,2.4916826999979094,3.291551799997251,0.9994925999999396,0.7829583999991883,1.11818,-0.053628819511524685,-0.13775245796097516,,,,None,,0.1,0.10084033613445378,1.1562512464111643,1.1596638655462184,trial_list_0.8_red.csv,1.1501534999988507,1.1833873999967182,p5_high2_01,001,2023-05-02_18h39.22.185,expectation_shapes_perceived_time,2022.2.4,119.74441751203051,
,-300,0.1999999999999999,unmet,,green,red,,1698.3810241052213,,,,,0,24,24,178,trial,,,,,,green,1.6983810241052213,1.7058823529411764,2.291328800001793,0.9979237000006833,1e-05,1e-05,0.03327,1.69105860000127,1.7244261000014376,1.9994239000006928,2.0329053999994358,2.291328800001793,2.291328800001793,2.6244700999995985,0.3331412999978056,2.4914363999996567,3.316281200000958,1.0249523999991652,0.6918111000013596,1.28319,-0.11483874184910418,-0.09307982234085285,,,,None,,-0.3,-0.3025210084033613,1.3650510241052214,1.3697478991596639,trial_list_0.8_red.csv,1.3582150000002002,1.3912755999990623,p5_high2_01,001,2023-05-02_18h39.22.185,expectation_shapes_perceived_time,2022.2.4,119.74441751203051,
,-33,0.8,met,,red,green,,897.528897952997,0,0,0,0,0,25,25,269,fam,0.5324232999992091,0.5324232999992091,270.0000000000009,2.5241495999980543,2.5241495999980543,,,,,,,,,,,,,,,,,,,,,,,,,,,,,,,,,,,,p5_high2_01,001,2023-05-02_18h39.22.185,expectation_shapes_perceived_time,2022.2.4,119.74441751203051,
,-33,0.8,met,,red,green,,897.528897952997,1,0,1,0,0,25,25,269,fam,0.4987005000002682,0.4987005000002682,270.0000000000009,2.4903415000007953,2.4903415000007953,,,,,,,,,,,,,,,,,,,,,,,,,,,,,,,,,,,,p5_high2_01,001,2023-05-02_18h39.22.185,expectation_shapes_perceived_time,2022.2.4,119.74441751203051,
,-33,0.8,met,,red,green,,897.528897952997,2,0,2,0,0,25,25,269,fam,0.4989730999986932,0.4989730999986932,270.0000000000009,2.490515999998024,2.490515999998024,,,,,,,,,,,,,,,,,,,,,,,,,,,,,,,,,,,,p5_high2_01,001,2023-05-02_18h39.22.185,expectation_shapes_perceived_time,2022.2.4,119.74441751203051,
,-33,0.8,met,,red,green,,897.528897952997,3,0,3,0,0,25,25,269,fam,0.4984863999998197,0.4984863999998197,270.0000000000009,2.4902366000023903,2.4902366000023903,,,,,,,,,,,,,,,,,,,,,,,,,,,,,,,,,,,,p5_high2_01,001,2023-05-02_18h39.22.185,expectation_shapes_perceived_time,2022.2.4,119.74441751203051,
,-33,0.8,met,,red,green,,897.528897952997,,,,,0,25,25,269,trial,,,,,,red,0.897528897952997,0.8991596638655461,2.291209000002709,0.9908159999977215,3e-05,3e-05,0.03295,0.8910887000020011,0.9244596999997157,1.9999289000006684,2.0333093000008375,2.291209000002709,2.291209000002709,2.291209000002709,0.0,2.4913204000004043,2.7249422000022605,0.4337331999995513,0.4337331999995513,0.51183,0.14772138789227435,-0.005493770624092848,,,,None,,-0.033,-0.03361344537815126,0.831198897952997,0.8403361344537815,trial_list_0.8_red.csv,0.8327476000013121,0.8662112000019988,p5_high2_01,001,2023-05-02_18h39.22.185,expectation_shapes_perceived_time,2022.2.4,119.74441751203051,
,-167,0.1999999999999999,unmet,,green,red,,1668.9439936122224,,,,,0,26,26,62,trial,,,,,,green,1.6689439936122223,1.680672268907563,2.2910986000024423,0.9969473000019207,3e-05,3e-05,0.03312,1.6664850000015576,1.699816300002567,1.9996597999997903,2.032934800001385,2.2910986000024423,2.2910986000024423,2.2910986000024423,0.0,2.506607300001633,2.859369100002368,0.568270499999926,0.568270499999926,1.2417,-0.1017655931707057,-0.10721732137627923,,,,None,,-0.167,-0.1680672268907563,1.4686139936122224,1.4789915966386553,trial_list_0.8_red.csv,1.4665268000026117,1.4996989000028407,p5_high2_01,001,2023-05-02_18h39.22.185,expectation_shapes_perceived_time,2022.2.4,119.74441751203051,
,-100,0.8,met,,red,green,,1110.9990306622667,,,,,0,27,27,294,trial,,,,,,red,1.1109990306622668,1.1176470588235294,2.291189599996869,0.9972641000022122,1e-05,1e-05,0.03323,1.108274899997923,1.141541099997994,2.000008600000001,2.0332785999999032,2.291189599996869,2.291189599996869,2.291189599996869,0.0,2.4912093999992067,3.2745110999967437,0.9833214999998745,0.9833214999998745,0.99002,0.0046316906043918655,-0.1477509302801005,,,,None,,-0.1,-0.10084033613445378,0.9776690306622666,0.9831932773109243,trial_list_0.8_red.csv,0.9745480999990832,1.0083341999998083,p5_high2_01,001,2023-05-02_18h39.22.185,expectation_shapes_perceived_time,2022.2.4,119.74441751203051,
,33,0.8,met,,red,green,,293.9979040528383,,,,,0,28,28,158,trial,,,,,,red,0.2939979040528383,0.29411764705882354,2.291565100000298,0.9976138000020001,1e-05,1e-05,,0.2917388999994728,0.32504770000014105,1.9998773999977857,,2.291565100000298,2.291565100000298,2.291565100000298,0.0,2.4921611999998277,2.8754410999972606,0.5838759999969625,0.5838759999969625,0.4643,0.1468950119894792,0.016542231079896306,,,,None,,0.033,0.03361344537815126,0.36032790405283827,0.36134453781512604,trial_list_0.8_red.csv,0.3586814999980561,0.391493499999342,p5_high2_01,001,2023-05-02_18h39.22.185,expectation_shapes_perceived_time,2022.2.4,119.74441751203051,
,300,0.1999999999999999,unmet,,green,red,,429.88123451693366,,,,,0,29,29,417,trial,,,,,,green,0.42988123451693366,0.42857142857142855,2.2921435000025667,0.9970809000005829,2e-05,2e-05,0.03349,0.42555520000314573,0.4589276000006066,2.000158700000611,2.033785400002671,2.2921435000025667,2.2921435000025667,2.2921435000025667,0.0,2.4919824999997218,3.058298100000684,0.7661545999981172,0.7661545999981172,0.66375,0.12868965404691685,-0.07273763054825735,,,,None,,0.3,0.3025210084033613,0.7632112345169337,0.7647058823529411,trial_list_0.8_red.csv,0.7585190999998304,0.7917152000009082,p5_high2_01,001,2023-05-02_18h39.22.185,expectation_shapes_perceived_time,2022.2.4,119.74441751203051,
,-167,0.8,met,,red,green,,769.3853665803738,,,,,0,30,30,90,trial,,,,,,red,0.7693853665803738,0.7731092436974789,2.291259900001023,0.997440800001641,1e-05,1e-05,0.03264,0.7658929999997781,0.7993599000001268,1.9992980000024545,2.032771900001535,2.291259900001023,2.291259900001023,2.3162437999999383,0.02498389999891515,2.4915787000027194,3.4827025000013236,1.1914426000003004,1.1664587000013853,0.70646,0.11780449496029974,-0.08929664564606352,,,,None,,-0.167,-0.1680672268907563,0.5690553665803737,0.5714285714285714,trial_list_0.8_red.csv,0.5661583000000974,0.5994573000025412,p5_high2_01,001,2023-05-02_18h39.22.185,expectation_shapes_perceived_time,2022.2.4,119.74441751203051,
,-300,0.8,met,,red,green,,1837.3921352617367,,,,,0,31,31,266,trial,,,,,,red,1.8373921352617366,1.8487394957983192,2.2917902000008326,0.9975322999998752,1e-05,1e-05,0.03358,1.8330649999988964,1.866446799998812,2.0003791999988607,2.03336820000186,2.2917902000008326,2.2917902000008326,2.366474800001015,0.0746846000001824,2.4918070000021544,3.033425800000259,0.7416355999994266,0.6669509999992442,1.29034,-0.11690005494521587,-0.09047743978636572,,,,None,,-0.3,-0.3025210084033613,1.5040621352617367,1.5126050420168067,trial_list_0.8_red.csv,1.5000480999988213,1.5334227999992436,p5_high2_01,001,2023-05-02_18h39.22.185,expectation_shapes_perceived_time,2022.2.4,119.74441751203051,
,-233,0.8,met,,red,green,,1220.7071344256733,,,,,0,32,32,37,trial,,,,,,red,1.2207071344256732,1.2268907563025209,2.291428000000451,0.9975090000007185,1e-05,1e-05,,1.2168903999991016,1.249954399998387,1.9999637000000803,,2.291428000000451,2.291428000000451,2.2999468999987585,0.008518899998307461,2.491488699997717,3.33312400000068,1.041696000000229,1.0331771000019216,1.33278,-0.12789075728853244,-0.07413328642826794,,,,None,,-0.233,-0.23529411764705882,0.9543771344256733,0.9579831932773109,trial_list_0.8_red.csv,0.9501955999985512,0.9836054999977932,p5_high2_01,001,2023-05-02_18h39.22.185,expectation_shapes_perceived_time,2022.2.4,119.74441751203051,
,-100,0.8,met,,red,green,,1594.3983242945253,,,,,0,33,33,411,trial,,,,,,red,1.5943983242945252,1.6050420168067225,2.2915375999982643,0.9982383999995363,1e-05,1e-05,0.03319,1.5914544999977807,1.6246941999997944,2.0002171999985876,2.033463399999164,2.2915375999982643,2.2915375999982643,2.2997238999996625,0.008186300001398195,2.4913648999972793,2.916388999998162,0.6248513999998977,0.6166650999984995,1.55991,-0.14521273439112717,0.027659568455452792,,,,None,,-0.1,-0.10084033613445378,1.4610683242945255,1.4705882352941175,trial_list_0.8_red.csv,1.4584494999980961,1.4913304999972752,p5_high2_01,001,2023-05-02_18h39.22.185,expectation_shapes_perceived_time,2022.2.4,119.74441751203051,
,33,0.8,met,,red,green,,976.7211348814752,,,,,0,34,34,188,trial,,,,,,red,0.9767211348814753,0.9831932773109243,2.2913173000015377,0.9970659999999043,4e-05,4e-05,,0.9748524999995425,1.0085184000017762,1.999858300001506,,2.2913173000015377,2.2913173000015377,2.2913173000015377,0.0,2.4916569999986677,3.2830360000007204,0.9917186999991827,0.9917186999991827,1.22156,-0.09478398969260518,-0.11343626075661184,,,,None,,0.033,0.03361344537815126,1.0430511348814753,1.050420168067227,trial_list_0.8_red.csv,1.0415614000012283,1.0747846000012942,p5_high2_01,001,2023-05-02_18h39.22.185,expectation_shapes_perceived_time,2022.2.4,119.74441751203051,
,300,0.8,met,,red,green,,1045.0027665376963,,,,,0,35,35,74,trial,,,,,,red,1.0450027665376962,1.050420168067227,2.292127900000196,0.9974906999996165,2e-05,2e-05,0.03321,1.041549000001396,1.074960199999623,1.99980190000133,2.033221500001673,2.292127900000196,2.292127900000196,3.9831303999999363,1.6910024999997404,2.4920472000012523,4.62502189999941,2.3328939999992144,0.641891499999474,1.27855,-0.11347081404489526,-0.0947426214355436,,,,None,,0.3,0.3025210084033613,1.3783327665376963,1.3865546218487395,trial_list_0.8_red.csv,1.3750287000002572,1.4081906999999774,p5_high2_01,001,2023-05-02_18h39.22.185,expectation_shapes_perceived_time,2022.2.4,119.74441751203051,
,-300,0.8,met,,red,green,,1056.669603647616,,,,,0,36,36,150,trial,,,,,,red,1.056669603647616,1.0672268907563025,2.2917814000029466,0.9976361000008183,4e-05,4e-05,,1.0580217000024277,1.0918893000016396,2.0001043000011123,,2.2917814000029466,2.2917814000029466,2.8669454000009864,0.5751639999980398,2.4912169000017457,4.249568900002487,1.9577874999995402,1.3826235000015004,1.23895,-0.1008368282668104,-0.10809127634355935,,,,None,,-0.3,-0.3025210084033613,0.723339603647616,0.7310924369747899,trial_list_0.8_red.csv,0.724660900003073,0.7581158000029973,p5_high2_01,001,2023-05-02_18h39.22.185,expectation_shapes_perceived_time,2022.2.4,119.74441751203051,
,167,0.1999999999999999,unmet,,green,red,,209.47668803540213,,,,,0,37,37,42,trial,,,,,,green,0.20947668803540215,0.21008403361344538,2.292030699998577,0.9987153000001854,2e-05,2e-05,,0.20834929999909946,0.24177190000045812,2.0001553000001877,,2.292030699998577,2.292030699998577,2.300007000001642,0.007976300003065262,2.491531399999076,3.0587268999988737,0.7666962000002968,0.7587198999972316,0.43974,0.14518263127583336,0.027817144575159675,,,,None,,0.167,0.1680672268907563,0.40980668803540216,0.4117647058823529,trial_list_0.8_red.csv,0.40827139999964857,0.4421718999983568,p5_high2_01,001,2023-05-02_18h39.22.185,expectation_shapes_perceived_time,2022.2.4,119.74441751203051,
,-100,0.8,met,,red,green,,1739.8894699510347,,,,,0,38,38,429,trial,,,,,,red,1.7398894699510348,1.7478991596638656,2.2920106000019587,0.9967796000019007,2e-05,2e-05,0.03357,1.7335946999992302,1.7672086999991734,2.000389600001654,2.033517399999255,2.2920106000019587,2.2920106000019587,2.891661000001477,0.5996503999995184,2.4920239000020956,3.9750454999993963,1.6830348999974376,1.0833844999979192,0.78612,0.0920174003874504,-0.11569178009878474,,,,None,,-0.1,-0.10084033613445378,1.6065594699510348,1.6134453781512605,trial_list_0.8_red.csv,1.5999642999995558,1.633612699999503,p5_high2_01,001,2023-05-02_18h39.22.185,expectation_shapes_perceived_time,2022.2.4,119.74441751203051,
,-167,0.8,met,,red,green,,1569.952244604919,,,,,0,39,39,431,trial,,,,,,red,1.569952244604919,1.5798319327731092,2.292011100002128,0.9972365999965405,1e-05,1e-05,0.03334,1.567247099999804,1.6005690999991202,2.000296800000797,2.033830799999123,2.292011100002128,2.292011100002128,8.200263999999152,5.908252899997024,2.4919221000018297,8.90887709999879,6.616865999996662,0.7086130999996385,1.02033,-0.009434554888616355,-0.14752213098563755,,,,None,,-0.167,-0.1680672268907563,1.369622244604919,1.3781512605042017,trial_list_0.8_red.csv,1.3673656999999366,1.4006585999995878,p5_high2_01,001,2023-05-02_18h39.22.185,expectation_shapes_perceived_time,2022.2.4,119.74441751203051,
,167,0.8,met,,red,green,,755.3239744411585,,,,,0,40,40,68,trial,,,,,,red,0.7553239744411585,0.7563025210084033,2.2917980999991414,0.9969625999983691,1e-05,1e-05,,0.7505476000005729,0.7835353999980725,2.0001981999994314,,2.2917980999991414,2.2917980999991414,2.2917980999991414,0.0,2.491958300000988,4.258494099998643,1.9666959999995015,1.9666959999995015,1.07737,-0.035577933459591024,-0.14347822345999003,,,,None,,0.167,0.1680672268907563,0.9556539744411585,0.9579831932773109,trial_list_0.8_red.csv,0.950365900000179,0.9834516000009899,p5_high2_01,001,2023-05-02_18h39.22.185,expectation_shapes_perceived_time,2022.2.4,119.74441751203051,
,300,0.8,met,,red,green,,189.8030963670359,,,,,0,41,41,258,trial,,,,,,red,0.18980309636703588,0.19327731092436973,2.291619699997682,0.9969665999997233,3e-05,3e-05,0.03332,0.1915244999981951,0.22490489999836427,2.0004991999994672,2.033265099998971,2.291619699997682,2.291619699997682,3.492034799997782,1.2004151000001002,2.4920321999998123,4.317161999999371,2.025542300001689,0.8251272000015888,0.79342,0.08934253076208684,-0.11776969964093265,,,,None,,0.3,0.3025210084033613,0.523133096367036,0.5294117647058824,trial_list_0.8_red.csv,0.5253966999989643,0.5588371999983792,p5_high2_01,001,2023-05-02_18h39.22.185,expectation_shapes_perceived_time,2022.2.4,119.74441751203051,
,233,0.8,met,,red,green,,307.0507969843586,,,,,0,42,42,314,trial,,,,,,red,0.3070507969843586,0.31092436974789917,2.2918688999998267,0.9970825000018522,3e-05,3e-05,0.0331,0.30871010000191745,0.3417140000019572,2.0003250000008848,2.0331440000009025,2.2918688999998267,2.2918688999998267,2.2918688999998267,0.0,2.49196049999955,3.0083506000009947,0.7164817000011681,0.7164817000011681,0.3858,0.1384114650615487,0.05190429939808076,,,,None,,0.233,0.23529411764705882,0.5733807969843586,0.5798319327731092,trial_list_0.8_red.csv,0.5748690000000352,0.608106300001964,p5_high2_01,001,2023-05-02_18h39.22.185,expectation_shapes_perceived_time,2022.2.4,119.74441751203051,
,300,0.8,met,,red,green,,894.8366275501699,,,,,0,43,43,54,trial,,,,,,red,0.8948366275501699,0.8991596638655461,2.2915892000019085,0.9974674000004597,1e-05,1e-05,0.03355,0.8913073000003351,0.9245968000032008,2.000253400001384,2.0332950000010896,2.2915892000019085,2.2915892000019085,2.5414828000029956,0.24989360000108718,2.491593600003398,3.091533900002105,0.7999447000001965,0.5500510999991093,0.67299,0.12652443923326365,-0.07644184870343011,,,,None,,0.3,0.3025210084033613,1.2281666275501697,1.2352941176470589,trial_list_0.8_red.csv,1.2246963000034157,1.258171500001481,p5_high2_01,001,2023-05-02_18h39.22.185,expectation_shapes_perceived_time,2022.2.4,119.74441751203051,
,100,0.8,met,,red,green,,1276.554182611059,,,,,0,44,44,427,trial,,,,,,red,1.2765541826110591,1.2857142857142856,2.2915248999997857,0.9975515999976778,3e-05,3e-05,0.0335,1.2749911999999313,1.3082756999974663,2.0005653999978676,2.033684300000459,2.2915248999997857,2.2915248999997857,2.2915248999997857,0.0,2.491848800000298,3.0169658999984676,0.725440999998682,0.725440999998682,0.97129,0.013316606029327877,-0.1472224777686804,,,,None,,0.1,0.10084033613445378,1.409884182611059,1.4201680672268906,trial_list_0.8_red.csv,1.407995800000208,1.4414182000000437,p5_high2_01,001,2023-05-02_18h39.22.185,expectation_shapes_perceived_time,2022.2.4,119.74441751203051,
,-233,0.8,met,,red,green,,999.6587733284578,,,,,0,45,45,245,trial,,,,,,red,0.9996587733284578,1.0084033613445378,2.2916426999981923,0.998588499998732,1e-05,1e-05,0.0329,0.9999583999997412,1.0332261999974435,1.9994830999967235,2.0326392999995733,2.2916426999981923,2.2916426999981923,2.815963799999736,0.5243211000015435,2.491170699999202,3.52629159999924,1.2346489000010479,0.7103277999995044,0.76097,0.10086267835394643,-0.10806715537922831,,,,None,,-0.233,-0.23529411764705882,0.7333287733284577,0.7394957983193277,trial_list_0.8_red.csv,0.7332035999970685,0.7664771999989171,p5_high2_01,001,2023-05-02_18h39.22.185,expectation_shapes_perceived_time,2022.2.4,119.74441751203051,
,233,0.8,met,,red,green,,885.0614629109144,,,,,0,46,46,252,trial,,,,,,red,0.8850614629109145,0.8907563025210083,2.291851099998894,0.9983027999987826,1e-05,1e-05,0.03369,0.8833216000020911,0.9168036000010034,2.0000978999996732,2.0336162999992666,2.291851099998894,2.291851099998894,2.291851099998894,0.0,2.4923230999993393,3.191567900001246,0.8997168000023521,0.8997168000023521,0.65878,0.1298106085539184,-0.0707177195853436,,,,None,,0.233,0.23529411764705882,1.1513914629109145,1.1596638655462184,trial_list_0.8_red.csv,1.1505909000006795,1.1837779000015871,p5_high2_01,001,2023-05-02_18h39.22.185,expectation_shapes_perceived_time,2022.2.4,119.74441751203051,
,33,0.8,met,,red,green,,1260.2558650799892,,,,,0,47,47,425,trial,,,,,,red,1.2602558650799893,1.26890756302521,2.2919379999984812,0.997702600001503,2e-05,2e-05,0.03341,1.2582751999980246,1.2916635000001406,1.9999817999996594,2.0336380999979156,2.2919379999984812,2.2919379999984812,2.8248965999991924,0.5329586000007112,2.4917377999991004,3.758336300001247,1.4663983000027656,0.9334397000020545,0.9453,0.025277454375308445,-0.14564628473392008,,,,None,,0.033,0.03361344537815126,1.326585865079989,1.3361344537815125,trial_list_0.8_red.csv,1.3250407000014093,1.358513999999559,p5_high2_01,001,2023-05-02_18h39.22.185,expectation_shapes_perceived_time,2022.2.4,119.74441751203051,
,-100,0.1999999999999999,unmet,,green,red,,1533.5639972836366,,,,,0,48,48,51,trial,,,,,,green,1.5335639972836366,1.5462184873949578,2.292282800000976,0.9979378000025463,1e-05,1e-05,0.03336,1.5333005000029516,1.5670850000024075,2.000039000002289,2.033493900002213,2.292282800000976,2.292282800000976,2.292282800000976,0.0,2.4919317000021692,3.217059100003098,0.9247763000021223,0.9247763000021223,1.20686,-0.08944553213751907,-0.11769148965463036,,,,None,,-0.1,-0.10084033613445378,1.4002339972836366,1.4117647058823528,trial_list_0.8_red.csv,1.4004867000003287,1.4335159000002022,p5_high2_01,001,2023-05-02_18h39.22.185,expectation_shapes_perceived_time,2022.2.4,119.74441751203051,
,-167,0.8,met,,red,green,,327.03807839916107,,,,,0,49,49,388,trial,,,,,,red,0.32703807839916105,0.3277310924369748,2.2918547000008402,0.9965981999994256,3e-05,3e-05,0.03326,0.3249740999999631,0.35851220000040485,2.0000403999983973,,2.2918547000008402,2.2918547000008402,2.2918547000008402,0.0,2.492224999998143,2.9923817999988387,0.7005270999979984,0.7005270999979984,0.28168,0.11439604761929134,0.09362336378049421,,,,None,,-0.167,-0.1680672268907563,0.12670807839916107,0.12605042016806722,trial_list_0.8_red.csv,0.12488179999854765,0.1582492999987153,p5_high2_01,001,2023-05-02_18h39.22.185,expectation_shapes_perceived_time,2022.2.4,119.74441751203051,
,233,0.8,met,,red,green,,862.5331050045104,0,0,0,0,0,50,50,50,fam,0.5317512000001443,0.5317512000001443,270.0000000000009,2.5239790999985416,2.5239790999985416,,,,,,,,,,,,,,,,,,,,,,,,,,,,,,,,,,,,p5_high2_01,001,2023-05-02_18h39.22.185,expectation_shapes_perceived_time,2022.2.4,119.74441751203051,
,233,0.8,met,,red,green,,862.5331050045104,1,0,1,0,0,50,50,50,fam,0.4984476999998151,0.4984476999998151,270.0000000000009,2.490612699999474,2.490612699999474,,,,,,,,,,,,,,,,,,,,,,,,,,,,,,,,,,,,p5_high2_01,001,2023-05-02_18h39.22.185,expectation_shapes_perceived_time,2022.2.4,119.74441751203051,
,233,0.8,met,,red,green,,862.5331050045104,2,0,2,0,0,50,50,50,fam,0.4992774999991525,0.4992774999991525,270.0000000000009,2.490975000000617,2.490975000000617,,,,,,,,,,,,,,,,,,,,,,,,,,,,,,,,,,,,p5_high2_01,001,2023-05-02_18h39.22.185,expectation_shapes_perceived_time,2022.2.4,119.74441751203051,
,233,0.8,met,,red,green,,862.5331050045104,3,0,3,0,0,50,50,50,fam,0.49874040000213427,0.49874040000213427,270.0000000000009,2.4906688000010035,2.4906688000010035,,,,,,,,,,,,,,,,,,,,,,,,,,,,,,,,,,,,p5_high2_01,001,2023-05-02_18h39.22.185,expectation_shapes_perceived_time,2022.2.4,119.74441751203051,
,233,0.8,met,,red,green,,862.5331050045104,,,,,0,50,50,50,trial,,,,,,red,0.8625331050045104,0.8655462184873949,2.2916299999997136,0.9910163999993529,2e-05,2e-05,,0.8578376000004937,0.8912215999989712,1.9998429000006581,,2.2916299999997136,2.2916299999997136,2.4746300999977393,0.1830000999980257,2.4912794000010763,3.2915566000010585,0.9999266000013449,0.8169265000033192,0.41067,0.14204087002784932,0.040941191949203634,,,,None,,0.233,0.23529411764705882,1.1288631050045104,1.134453781512605,trial_list_0.8_red.csv,1.1244149999984074,1.1577719999986584,p5_high2_01,001,2023-05-02_18h39.22.185,expectation_shapes_perceived_time,2022.2.4,119.74441751203051,
,-300,0.8,met,,red,green,,1470.7470073332547,,,,,0,51,51,13,trial,,,,,,red,1.4707470073332547,1.4789915966386553,2.2911772999977984,0.9970481999989715,1e-05,1e-05,0.03323,1.466202899999189,1.4995849000006274,2.000081499998487,2.033461899998656,2.2911772999977984,2.2911772999977984,2.432844599999953,0.14166730000215466,2.4913761999996495,2.9163435000009486,0.6251662000031502,0.4834989000009955,0.57798,0.1434098690721271,-0.035852467268031776,,,,None,,-0.3,-0.3025210084033613,1.1374170073332548,1.1428571428571428,trial_list_0.8_red.csv,1.1331276999990223,1.1665952000003017,p5_high2_01,001,2023-05-02_18h39.22.185,expectation_shapes_perceived_time,2022.2.4,119.74441751203051,
,-33,0.8,met,,red,green,,691.230492500431,,,,,0,52,52,487,trial,,,,,,red,0.691230492500431,0.6974789915966386,2.291877600000589,0.9964817000000039,1e-05,1e-05,,0.6919989999987592,0.7255393999985245,2.0005243999985396,,2.291877600000589,2.291877600000589,2.291877600000589,0.0,2.491762199999357,3.1000930999980483,0.8082154999974591,0.8082154999974591,0.38868,0.13887579696304414,0.050648820068874924,,,,None,,-0.033,-0.03361344537815126,0.6249004925004309,0.6302521008403361,trial_list_0.8_red.csv,0.6251163999986602,0.6585530000011204,p5_high2_01,001,2023-05-02_18h39.22.185,expectation_shapes_perceived_time,2022.2.4,119.74441751203051,
,100,0.8,met,,red,green,,782.0672623984409,,,,,0,53,53,370,trial,,,,,,red,0.7820672623984409,0.7899159663865546,2.2912393000005977,0.9978576999965298,1e-05,1e-05,,0.7828255000022182,0.8161341000013635,1.9996237000013934,,2.2912393000005977,2.2912393000005977,2.2912393000005977,0.0,2.4911902000021655,2.866201800003182,0.5749625000025844,0.5749625000025844,0.56665,0.14459487417658534,-0.030726410762524387,,,,None,,0.1,0.10084033613445378,0.915397262398441,0.9243697478991596,trial_list_0.8_red.csv,0.9161723000033817,0.9494995000022755,p5_high2_01,001,2023-05-02_18h39.22.185,expectation_shapes_perceived_time,2022.2.4,119.74441751203051,
,300,0.8,met,,red,green,,1384.2986968813625,,,,,0,54,54,412,trial,,,,,,red,1.3842986968813624,1.3949579831932772,2.291713400001754,0.9966210999991745,4e-05,4e-05,0.03331,1.3833785000024363,1.4166776000020036,1.9999908000027062,2.0333595000010973,2.291713400001754,2.291713400001754,2.3334028999997827,0.04168949999802862,2.4916700000030687,2.825075700002344,0.53336230000059,0.4916728000025614,1.21789,-0.0934697988931235,-0.11452155540058376,,,,None,,0.3,0.3025210084033613,1.7176286968813623,1.7310924369747898,trial_list_0.8_red.csv,1.7166727000003448,1.7499972000005073,p5_high2_01,001,2023-05-02_18h39.22.185,expectation_shapes_perceived_time,2022.2.4,119.74441751203051,
,300,0.8,met,,red,green,,264.82100906529973,,,,,0,55,55,104,trial,,,,,,red,0.2648210090652997,0.2689075630252101,2.291650999999547,0.996784300001309,1e-05,1e-05,,0.2666868999986036,0.30000359999758075,2.000030199997127,,2.291650999999547,2.291650999999547,2.291650999999547,0.0,2.4916084999968007,3.400072000000364,1.108421000000817,1.108421000000817,0.3654,0.13480343726991434,0.06066154677146145,,,,None,,0.3,0.3025210084033613,0.5981510090652997,0.6050420168067226,trial_list_0.8_red.csv,0.6000711999986379,0.6334385999980441,p5_high2_01,001,2023-05-02_18h39.22.185,expectation_shapes_perceived_time,2022.2.4,119.74441751203051,
,33,0.1999999999999999,unmet,,green,red,,607.4854579705813,,,,,0,56,56,106,trial,,,,,,green,0.6074854579705813,0.6134453781512604,2.291690900001413,0.9972476000002644,4e-05,4e-05,,0.6084440000013274,0.641699100000551,1.9998849000003247,,2.291690900001413,2.291690900001413,2.5083957000024384,0.21670480000102543,2.491711700000451,3.3750362000027962,1.0833453000013833,0.8666405000003579,0.74122,0.10736966326531247,-0.10160484913026213,,,,None,,0.033,0.03361344537815126,0.6738154579705813,0.680672268907563,trial_list_0.8_red.csv,0.6750585000008869,0.7084023000024899,p5_high2_01,001,2023-05-02_18h39.22.185,expectation_shapes_perceived_time,2022.2.4,119.74441751203051,
,-33,0.8,met,,red,green,,851.3577048635509,,,,,0,57,57,182,trial,,,,,,red,0.8513577048635509,0.8571428571428571,2.2915805999982695,0.9973876000003656,1e-05,1e-05,0.03334,0.8499806999971042,0.8833688999984588,1.9999852999972063,2.0334136999990733,2.2915805999982695,2.2915805999982695,2.2915805999982695,0.0,2.4915225000004284,3.016629499998089,0.7250488999998197,0.7250488999998197,0.60717,0.13952445469485802,-0.0488335591432003,,,,None,,-0.033,-0.03361344537815126,0.7850277048635509,0.7899159663865546,trial_list_0.8_red.csv,0.7833560999970359,0.8166526999993948,p5_high2_01,001,2023-05-02_18h39.22.185,expectation_shapes_perceived_time,2022.2.4,119.74441751203051,
,33,0.8,met,,red,green,,886.4747297849287,,,,,0,58,58,8,trial,,,,,,red,0.8864747297849287,0.8907563025210083,2.2917398999998113,0.9974287000004551,1e-05,1e-05,,0.8834022000010009,0.9166150000019115,2.0000037000027078,,2.2917398999998113,2.2917398999998113,2.30017510000107,0.008435200001258636,2.4916446000024735,3.041504900000291,0.7497650000004796,0.741329799999221,1.04254,-0.01969817729803023,-0.1465051936540998,,,,None,,0.033,0.03361344537815126,0.9528047297849288,0.9579831932773109,trial_list_0.8_red.csv,0.9499462000021595,0.9832937999999558,p5_high2_01,001,2023-05-02_18h39.22.185,expectation_shapes_perceived_time,2022.2.4,119.74441751203051,
,-167,0.8,met,,red,green,,1576.6987514955476,,,,,0,59,59,380,trial,,,,,,red,1.5766987514955477,1.588235294117647,2.291695299998537,0.9982528000000457,1e-05,1e-05,0.03358,1.5751066999982868,1.6084732999988773,1.9999485999978788,2.033223499998712,2.291695299998537,2.291695299998537,2.291695299998537,0.0,2.491752899997664,3.1834284999968077,0.8917331999982707,0.8917331999982707,1.32118,-0.125105396072514,-0.07874280811622938,,,,None,,-0.167,-0.1680672268907563,1.3763687514955476,1.3865546218487395,trial_list_0.8_red.csv,1.3749986999973771,1.4082356999970216,p5_high2_01,001,2023-05-02_18h39.22.185,expectation_shapes_perceived_time,2022.2.4,119.74441751203051,
,-100,0.8,met,,red,green,,686.9933704648456,,,,,0,60,60,363,trial,,,,,,red,0.6869933704648457,0.6890756302521008,2.291687600001751,0.997634499999549,3e-05,3e-05,0.03332,0.6833802000001015,0.7168559000019741,2.000019000002794,2.0334311000005982,2.291687600001751,2.291687600001751,2.291687600001751,0.0,2.4917118000012124,2.8585104000012507,0.5668227999994997,0.5668227999994997,0.35731,0.13321865842780609,0.0640669884042121,,,,None,,-0.1,-0.10084033613445378,0.5536633704648456,0.5546218487394958,trial_list_0.8_red.csv,0.5500100999997812,0.5833378000024823,p5_high2_01,001,2023-05-02_18h39.22.185,expectation_shapes_perceived_time,2022.2.4,119.74441751203051,
,-33,0.8,met,,red,green,,745.3344797857886,,,,,0,61,61,220,trial,,,,,,red,0.7453344797857886,0.7478991596638656,2.2916359000009834,0.9971410000034666,3e-05,3e-05,0.03337,0.7417296000021452,0.7750503000024764,2.00006150000263,2.0336029999998573,2.2916359000009834,2.2916359000009834,2.2916359000009834,0.0,2.4917228000012983,2.925044000003254,0.6334081000022707,0.6334081000022707,0.64758,0.13221736635250278,-0.06610868317625139,,,,None,,-0.033,-0.03361344537815126,0.6790044797857886,0.680672268907563,trial_list_0.8_red.csv,0.6750291999996989,0.7083466000003682,p5_high2_01,001,2023-05-02_18h39.22.185,expectation_shapes_perceived_time,2022.2.4,119.74441751203051,
,300,0.8,met,,red,green,,217.6438276741646,,,,,0,62,62,307,trial,,,,,,red,0.21764382767416462,0.2184873949579832,2.2915640999999596,0.997535099999368,1e-05,1e-05,,0.216771700001118,0.2500279000014416,1.9998911000002408,,2.2915640999999596,2.2915640999999596,2.29990380000163,0.00833970000167028,2.4915225000004284,3.0832904999988386,0.7917263999988791,0.7833866999972088,0.87172,0.057973194809248195,-0.13598124370698658,,,,None,,0.3,0.3025210084033613,0.5509738276741647,0.5546218487394958,trial_list_0.8_red.csv,0.550008499998512,0.5835536000013235,p5_high2_01,001,2023-05-02_18h39.22.185,expectation_shapes_perceived_time,2022.2.4,119.74441751203051,
,33,0.8,met,,red,green,,1493.9785398107404,,,,,0,63,63,27,trial,,,,,,red,1.4939785398107404,1.504201680672269,2.291638899998361,0.9979352000009385,1e-05,1e-05,0.03329,1.4916647999998531,1.524942899999587,1.9999687999988964,2.033321099999739,2.291638899998361,2.291638899998361,2.5082762999991246,0.2166374000007636,2.491639899999427,3.1999255000009725,0.9082866000026115,0.6916492000018479,1.17734,-0.07816133028685808,-0.12546950388153533,,,,None,,0.033,0.03361344537815126,1.5603085398107404,1.5714285714285714,trial_list_0.8_red.csv,1.558260199999495,1.5917407999986608,p5_high2_01,001,2023-05-02_18h39.22.185,expectation_shapes_perceived_time,2022.2.4,119.74441751203051,
,33,0.1999999999999999,unmet,,green,red,,1623.4859191416683,,,,,0,64,64,459,trial,,,,,,green,1.6234859191416684,1.6302521008403361,2.2916778000035265,0.9977832999975362,1e-05,1e-05,0.03328,1.6165922000000137,1.6500023000007786,1.9999660000030417,2.0333146000011766,2.2916778000035265,2.2916778000035265,2.6416243000021495,0.34994649999862304,2.491620500000863,3.7250345000029483,1.4333566999994218,1.0834102000007988,1.28737,-0.11605137299530939,-0.09156346860180373,,,,None,,0.033,0.03361344537815126,1.6898159191416682,1.6974789915966386,trial_list_0.8_red.csv,1.683254700001271,1.716645200001949,p5_high2_01,001,2023-05-02_18h39.22.185,expectation_shapes_perceived_time,2022.2.4,119.74441751203051,
,233,0.8,met,,red,green,,591.7247252627536,,,,,0,65,65,432,trial,,,,,,red,0.5917247252627537,0.5966386554621849,2.291590400000132,0.9975395999972534,1e-05,1e-05,,0.5915237000008347,0.6248788999982935,1.9999253999994835,,2.291590400000132,2.291590400000132,2.291590400000132,0.0,2.4916997000000265,3.3250797000000603,1.0334892999999283,1.0334892999999283,1.49523,-0.14780688214608861,-0.0022171032321913293,,,,None,,0.233,0.23529411764705882,0.8580547252627536,0.8655462184873949,trial_list_0.8_red.csv,0.8581255999997666,0.8916260000005423,p5_high2_01,001,2023-05-02_18h39.22.185,expectation_shapes_perceived_time,2022.2.4,119.74441751203051,
,233,0.8,met,,red,green,,1022.5067123997412,,,,,0,66,66,315,trial,,,,,,red,1.0225067123997411,1.0252100840336134,2.2918888999993214,0.9971693999978015,3e-05,3e-05,0.0333,1.0170553999996628,1.0501269999986107,2.0005922999989707,2.0333057999996527,2.2918888999993214,2.2918888999993214,35.991947999998956,33.700059099999635,2.4918485000016517,36.63374879999901,34.34185989999969,0.6418008000000555,0.75138,0.10407353293541173,-0.10497852017832836,,,,None,,0.233,0.23529411764705882,1.288836712399741,1.2941176470588234,trial_list_0.8_red.csv,1.283355700001266,1.316811200002121,p5_high2_01,001,2023-05-02_18h39.22.185,expectation_shapes_perceived_time,2022.2.4,119.74441751203051,
,167,0.1999999999999999,unmet,,green,red,,1355.429396117252,,,,,0,67,67,223,trial,,,,,,green,1.355429396117252,1.361344537815126,2.291518799996993,0.9964497999972082,2e-05,2e-05,0.03347,1.3501122999987274,1.383258099998784,2.000159099996381,2.0331684999982826,2.291518799996993,2.291518799996993,2.291518799996993,0.0,2.4913587999981246,2.9164176999984193,0.6248989000014262,0.6248989000014262,1.246,-0.10320403663866703,-0.10583343884602162,,,,None,,0.167,0.1680672268907563,1.555759396117252,1.5630252100840336,trial_list_0.8_red.csv,1.5499384999966423,1.5837047999993956,p5_high2_01,001,2023-05-02_18h39.22.185,expectation_shapes_perceived_time,2022.2.4,119.74441751203051,
,100,0.8,met,,red,green,,330.24601485924273,,,,,0,68,68,250,trial,,,,,,red,0.3302460148592427,0.3361344537815126,2.2916867999992974,0.9974176000032458,1e-05,1e-05,0.03347,0.3332436999990023,0.36648609999974724,1.9998401999982889,2.033539899999596,2.2916867999992974,2.2916867999992974,2.349664599998505,0.05797779999920749,2.492033200000151,3.1915957999990496,0.8999089999997523,0.8419312000005448,0.42006,0.14318666632608362,0.03673375209412617,,,,None,,0.1,0.10084033613445378,0.4635760148592427,0.47058823529411764,trial_list_0.8_red.csv,0.46637159999954747,0.5000097999982245,p5_high2_01,001,2023-05-02_18h39.22.185,expectation_shapes_perceived_time,2022.2.4,119.74441751203051,
,-167,0.8,met,,red,green,,838.4307884181216,,,,,0,69,69,399,trial,,,,,,red,0.8384307884181216,0.8403361344537815,2.292015300001367,0.9972233999978926,1e-05,1e-05,0.03407,0.8334654999998747,0.8670400000009977,2.0002969000015582,2.0336553000015556,2.292015300001367,2.292015300001367,3.8169865000018035,1.5249712000004365,2.4919694000018353,4.3916591000015615,2.0996438000001945,0.574672599999758,0.85854,0.063554290699089,-0.13346401046808692,,,,None,,-0.167,-0.1680672268907563,0.6381007884181215,0.6386554621848739,trial_list_0.8_red.csv,0.6337380000004487,0.6671122000007017,p5_high2_01,001,2023-05-02_18h39.22.185,expectation_shapes_perceived_time,2022.2.4,119.74441751203051,
,-100,0.8,met,,red,green,,776.2510905650885,,,,,0,70,70,290,trial,,,,,,red,0.7762510905650885,0.7815126050420168,2.291388600002392,0.9980123999994248,2e-05,2e-05,0.03318,0.7747153000018443,0.8082986000008532,1.9999739000013506,2.032930600002146,2.291388600002392,2.291388600002392,5.691423100000975,3.4000344999985828,2.4911577999992005,6.958123500000511,4.666734899998119,1.2667003999995359,0.70871,0.11716845977151755,-0.09012958443962889,,,,None,,-0.1,-0.10084033613445378,0.6429210905650884,0.6470588235294117,trial_list_0.8_red.csv,0.6416752000004635,0.6748165000026347,p5_high2_01,001,2023-05-02_18h39.22.185,expectation_shapes_perceived_time,2022.2.4,119.74441751203051,
,-100,0.8,met,,red,green,,1785.0694796726866,,,,,0,71,71,31,trial,,,,,,red,1.7850694796726867,1.7983193277310923,2.291772900000069,0.9983302000000549,1e-05,1e-05,0.03321,1.783488099998067,1.8169224000012036,2.000216000000364,2.0334861999981513,2.291772900000069,2.291772900000069,2.3750435000001744,0.08327060000010533,2.491772500001389,2.9917578999993566,0.6999849999992875,0.6167143999991822,1.22569,-0.09624604830161469,-0.11219843199801491,,,,None,,-0.1,-0.10084033613445378,1.6517394796726868,1.6638655462184873,trial_list_0.8_red.csv,1.6506248000005144,1.6832974999997532,p5_high2_01,001,2023-05-02_18h39.22.185,expectation_shapes_perceived_time,2022.2.4,119.74441751203051,
,233,0.8,met,,red,green,,1073.331262731971,,,,,0,72,72,14,trial,,,,,,red,1.073331262731971,1.084033613445378,2.2936389000024064,0.9972775999995065,2e-05,2e-05,0.03329,1.0748938000033377,1.1085377000017616,1.9997385000024224,2.032979500003421,2.2936389000024064,2.2936389000024064,2.2936389000024064,0.0,2.49122669999997,3.108174200002395,0.8145352999999886,0.8145352999999886,1.07798,-0.035852467268031776,-0.1434098690721271,,,,None,,0.233,0.23529411764705882,1.339661262731971,1.3445378151260503,trial_list_0.8_red.csv,1.3331775000006019,1.3665014000034716,p5_high2_01,001,2023-05-02_18h39.22.185,expectation_shapes_perceived_time,2022.2.4,119.74441751203051,
,-100,0.8,met,,red,green,,1156.194444893129,,,,,0,73,73,344,trial,,,,,,red,1.156194444893129,1.1596638655462184,2.2914359999995213,0.9976255999972636,1e-05,1e-05,0.03293,1.1499468000001798,1.1829524999993737,1.999790000001667,2.032986800000799,2.2914359999995213,2.2914359999995213,2.2998427000020456,0.008406700002524303,2.4917669000024034,3.126155400001153,0.8347194000016316,0.8263126999991073,0.91705,0.038088597269059964,-0.14283223975897488,,,,None,,-0.1,-0.10084033613445378,1.022864444893129,1.0252100840336134,trial_list_0.8_red.csv,1.0163667000015266,1.0500436000002082,p5_high2_01,001,2023-05-02_18h39.22.185,expectation_shapes_perceived_time,2022.2.4,119.74441751203051,
,-100,0.1999999999999999,unmet,,green,red,,1291.7277503877829,,,,,0,74,74,185,trial,,,,,,green,1.2917277503877829,1.3025210084033614,2.2917463000012503,0.9954814000011538,2e-05,2e-05,,1.2917199000003166,1.3250409000029322,1.9998730000006617,,2.2917463000012503,2.2917463000012503,2.666938400001527,0.3751921000002767,2.49170420000155,3.191865400000097,0.9001190999988467,0.52492699999857,1.04639,-0.021468802232479284,-0.1462562152087651,,,,None,,-0.1,-0.10084033613445378,1.158397750387783,1.1680672268907561,trial_list_0.8_red.csv,1.158573200002138,1.1915986000021803,p5_high2_01,001,2023-05-02_18h39.22.185,expectation_shapes_perceived_time,2022.2.4,119.74441751203051,
,233,0.8,met,,red,green,,1412.581152002282,0,0,0,0,0,75,75,309,fam,0.5482234999981301,0.5482234999981301,270.0000000000009,2.5399951999970654,2.5399951999970654,,,,,,,,,,,,,,,,,,,,,,,,,,,,,,,,,,,,p5_high2_01,001,2023-05-02_18h39.22.185,expectation_shapes_perceived_time,2022.2.4,119.74441751203051,
,233,0.8,met,,red,green,,1412.581152002282,1,0,1,0,0,75,75,309,fam,0.4989181999990251,0.4989181999990251,270.0000000000009,2.490069899999071,2.490069899999071,,,,,,,,,,,,,,,,,,,,,,,,,,,,,,,,,,,,p5_high2_01,001,2023-05-02_18h39.22.185,expectation_shapes_perceived_time,2022.2.4,119.74441751203051,
,233,0.8,met,,red,green,,1412.581152002282,2,0,2,0,0,75,75,309,fam,0.4983371000016632,0.4983371000016632,270.0000000000009,2.4903420000009646,2.4903420000009646,,,,,,,,,,,,,,,,,,,,,,,,,,,,,,,,,,,,p5_high2_01,001,2023-05-02_18h39.22.185,expectation_shapes_perceived_time,2022.2.4,119.74441751203051,
,233,0.8,met,,red,green,,1412.581152002282,3,0,3,0,0,75,75,309,fam,0.49895919999835314,0.49895919999835314,270.0000000000009,2.4901554999996733,2.4901554999996733,,,,,,,,,,,,,,,,,,,,,,,,,,,,,,,,,,,,p5_high2_01,001,2023-05-02_18h39.22.185,expectation_shapes_perceived_time,2022.2.4,119.74441751203051,
,233,0.8,met,,red,green,,1412.581152002282,,,,,0,75,75,309,trial,,,,,,red,1.412581152002282,1.4201680672268906,2.2915498000002117,0.9988729000033345,1e-05,1e-05,0.03361,1.408189100002346,1.441378800001985,1.9998684000020148,2.03318290000243,2.2915498000002117,2.2915498000002117,2.616551700000855,0.3250019000006432,2.4915538000022934,2.9832157000018924,0.6916659000016807,0.3666640000010375,1.25,-0.1045270059757045,-0.1045270059757045,,,,None,,0.233,0.23529411764705882,1.678911152002282,1.6890756302521008,trial_list_0.8_red.csv,1.675536300001113,1.7087582999993174,p5_high2_01,001,2023-05-02_18h39.22.185,expectation_shapes_perceived_time,2022.2.4,119.74441751203051,
,-33,0.8,met,,red,green,,425.6267302511717,,,,,0,76,76,397,trial,,,,,,red,0.4256267302511717,0.42857142857142855,2.291207599999325,0.9963694999969448,3e-05,3e-05,0.03324,0.4246631999994861,0.45806009999796515,1.999751199997263,2.0327792999996745,2.291207599999325,2.291207599999325,2.291207599999325,0.0,2.491142899998522,2.9328845999989426,0.6416769999996177,0.6416769999996177,0.32416,0.12583589896069822,0.07757007470180027,,,,None,,-0.033,-0.03361344537815126,0.3592967302511717,0.36134453781512604,trial_list_0.8_red.csv,0.3583251999989443,0.3916613999972469,p5_high2_01,001,2023-05-02_18h39.22.185,expectation_shapes_perceived_time,2022.2.4,119.74441751203051,
,-100,0.8,met,,red,green,,796.8624954067648,,,,,0,77,77,32,trial,,,,,,red,0.7968624954067648,0.7983193277310924,2.2916924999990442,0.9975861999992048,1e-05,1e-05,,0.7918365999976231,0.8248614000003727,1.999875699999393,,2.2916924999990442,2.2916924999990442,2.341635500000848,0.04994300000180374,2.492207999999664,2.8585977999973693,0.5669052999983251,0.5169622999965213,0.67931,0.12498313687674119,-0.07893671802741549,,,,None,,-0.1,-0.10084033613445378,0.6635324954067647,0.6638655462184874,trial_list_0.8_red.csv,0.6584514999995008,0.6916538000004948,p5_high2_01,001,2023-05-02_18h39.22.185,expectation_shapes_perceived_time,2022.2.4,119.74441751203051,
,167,0.1999999999999999,unmet,,green,red,,1578.396681837744,,,,,0,78,78,212,trial,,,,,,green,1.578396681837744,1.588235294117647,2.2916308000021672,0.9968678000004729,3e-05,3e-05,0.03348,1.574959100002161,1.6084326000018336,2.0001187000016216,2.0334927000003518,2.2916308000021672,2.2916308000021672,2.2916308000021672,0.0,2.491965799999889,2.8253092000013567,0.5336783999991894,0.5336783999991894,1.52444,-0.14738809319469942,0.011337545630361493,,,,None,,0.167,0.1680672268907563,1.7787266818377439,1.7899159663865545,trial_list_0.8_red.csv,1.7751279000003706,1.8084730000009586,p5_high2_01,001,2023-05-02_18h39.22.185,expectation_shapes_perceived_time,2022.2.4,119.74441751203051,
,-33,0.1999999999999999,unmet,,green,red,,1507.9262672129585,,,,,0,79,79,301,trial,,,,,,green,1.5079262672129585,1.5210084033613445,2.2916709999990417,0.9978202000020246,1e-05,1e-05,0.03382,1.5085938999982318,1.542031400000269,2.0001594999994268,2.0333449999998265,2.2916709999990417,2.2916709999990417,2.433190399999148,0.14151940000010654,2.4917734999980894,2.9837855999976455,0.6921145999986038,0.5505951999984973,1.30984,-0.12222054136580378,-0.08315004043739109,,,,None,,-0.033,-0.03361344537815126,1.4415962672129585,1.453781512605042,trial_list_0.8_red.csv,1.4416844999977911,1.4751602999967872,p5_high2_01,001,2023-05-02_18h39.22.185,expectation_shapes_perceived_time,2022.2.4,119.74441751203051,
,167,0.8,met,,red,green,,294.2441667060058,,,,,0,80,80,123,trial,,,,,,red,0.2942441667060058,0.29411764705882354,2.291597199997341,0.9967480000013893,2e-05,2e-05,0.03366,0.29197999999814783,0.3249997999992047,1.9998033999982,2.033607999997912,2.291597199997341,2.291597199997341,2.291597199997341,0.0,2.491711699996813,3.0254035999969346,0.7338063999995939,0.7338063999995939,0.90488,0.043517118382448955,-0.1412729640241821,,,,None,,0.167,0.1680672268907563,0.4945741667060058,0.49579831932773105,trial_list_0.8_red.csv,0.49201799999718787,0.5250774999985879,p5_high2_01,001,2023-05-02_18h39.22.185,expectation_shapes_perceived_time,2022.2.4,119.74441751203051,
,100,0.8,met,,red,green,,1610.146322310149,,,,,0,81,81,287,trial,,,,,,red,1.6101463223101489,1.6218487394957983,2.2917811999977857,0.9968781000025047,1e-05,1e-05,,1.608637399996951,1.6416782999986026,2.0002471999978297,,2.2917811999977857,2.2917811999977857,2.433059199996933,0.14127799999914714,2.491756699997495,2.933098699999391,0.6413175000016054,0.5000395000024582,1.18717,-0.08199772971808414,-0.1229965945771262,,,,None,,0.1,0.10084033613445378,1.7434763223101488,1.7563025210084033,trial_list_0.8_red.csv,1.7416549999979907,1.7751989999997022,p5_high2_01,001,2023-05-02_18h39.22.185,expectation_shapes_perceived_time,2022.2.4,119.74441751203051,
,233,0.8,met,,red,green,,302.307009543869,,,,,0,82,82,10,trial,,,,,,red,0.302307009543869,0.3025210084033613,2.291811499999312,0.9983668999993824,1e-05,1e-05,0.03327,0.2999779999991006,0.333279999998922,2.000219699999434,2.033437400001276,2.291811499999312,2.291811499999312,7.275355999998283,4.98354449999897,2.491841700000805,7.85828709999987,5.566475600000558,0.5829311000015878,1.06422,-0.029623274915105635,-0.14482489958496086,,,,None,,0.233,0.23529411764705882,0.5686370095438691,0.5714285714285714,trial_list_0.8_red.csv,0.5665526000011596,0.5999445999987074,p5_high2_01,001,2023-05-02_18h39.22.185,expectation_shapes_perceived_time,2022.2.4,119.74441751203051,
,300,0.8,met,,red,green,,618.3772161899378,,,,,0,83,83,423,trial,,,,,,red,0.6183772161899378,0.6218487394957983,2.2921604000002844,0.9970867000010912,3e-05,3e-05,0.03325,0.6166899999989255,0.6501650999998674,2.000144599998748,2.033566599999176,2.2921604000002844,2.2921604000002844,2.2921604000002844,0.0,2.4917089000009582,3.000251400000707,0.7080910000004224,0.7080910000004224,1.48939,-0.14774145368666275,-0.00492471512288876,,,,None,,0.3,0.3025210084033613,0.9517072161899379,0.9579831932773109,trial_list_0.8_red.csv,0.9501826999985497,0.9835309999980382,p5_high2_01,001,2023-05-02_18h39.22.185,expectation_shapes_perceived_time,2022.2.4,119.74441751203051,
,167,0.8,met,,red,green,,570.8908399825923,,,,,0,84,84,228,trial,,,,,,red,0.5708908399825923,0.5714285714285714,2.2921114999990095,0.9971753999998327,2e-05,2e-05,0.03358,0.5669343999979901,0.6000862999972014,2.000023999997211,2.0336188999972364,2.2921114999990095,2.2921114999990095,2.366726899999776,0.07461540000076639,2.492252299998654,2.9168123999988893,0.6247008999998798,0.5500854999991134,0.44413,0.14555245545087087,0.02581225810951404,,,,None,,0.167,0.1680672268907563,0.7712208399825924,0.7731092436974789,trial_list_0.8_red.csv,0.7666747999974177,0.7999448999980814,p5_high2_01,001,2023-05-02_18h39.22.185,expectation_shapes_perceived_time,2022.2.4,119.74441751203051,
,167,0.8,met,,red,green,,780.7828190287634,,,,,0,85,85,93,trial,,,,,,red,0.7807828190287633,0.7815126050420168,2.291416100000788,0.9972320000015316,1e-05,1e-05,,0.7753503000021738,0.8083913000009488,1.9998716000009154,,2.291416100000788,2.291416100000788,2.2997422000007646,0.008326099999976577,2.50736980000147,3.0582854000022053,0.7668693000014173,0.7585432000014407,0.84465,0.06931288349232197,-0.13056612936925766,,,,None,,0.167,0.1680672268907563,0.9811128190287633,0.9831932773109243,trial_list_0.8_red.csv,0.975013700001,1.0085158000001684,p5_high2_01,001,2023-05-02_18h39.22.185,expectation_shapes_perceived_time,2022.2.4,119.74441751203051,
,-33,0.8,met,,red,green,,338.0860474262722,,,,,0,86,86,398,trial,,,,,,red,0.33808604742627224,0.3361344537815126,2.291613299999881,0.9968865000009828,1e-05,1e-05,0.03308,0.3331676999987394,0.366634800000611,2.00044010000056,2.03385039999921,2.291613299999881,2.291613299999881,2.291613299999881,0.0,2.4916309000000183,2.8247816000002786,0.5331683000003977,0.5331683000003977,0.45003,0.14600606132769023,0.023108873015893417,,,,None,,-0.033,-0.03361344537815126,0.27175604742627224,0.2773109243697479,trial_list_0.8_red.csv,0.27532499999870197,0.3087459000016679,p5_high2_01,001,2023-05-02_18h39.22.185,expectation_shapes_perceived_time,2022.2.4,119.74441751203051,
,-100,0.1999999999999999,unmet,,green,red,,435.7882682066429,,,,,0,87,87,124,trial,,,,,,green,0.4357882682066429,0.4369747899159664,2.2919127000022854,0.9986002000005101,4e-05,4e-05,0.03336,0.4332042000023648,0.46674370000255294,2.000001500000508,2.0333088000006683,2.2919127000022854,2.2919127000022854,2.2919127000022854,0.0,2.49153650000153,3.2335492000020167,0.9416364999997313,0.9416364999997313,0.51371,0.14768637935160217,-0.006365792213431127,,,,None,,-0.1,-0.10084033613445378,0.3024582682066429,0.3025210084033613,trial_list_0.8_red.csv,0.2999132000004465,0.3331359000003431,p5_high2_01,001,2023-05-02_18h39.22.185,expectation_shapes_perceived_time,2022.2.4,119.74441751203051,
,-233,0.8,met,,red,green,,1208.9784622568918,,,,,0,88,88,275,trial,,,,,,red,1.2089784622568918,1.218487394957983,2.2932964999999967,0.997146800000337,3e-05,3e-05,0.03329,1.208206600000267,1.2418020000004617,2.000601800002187,2.0338799000019208,2.2932964999999967,2.2932964999999967,2.2932964999999967,0.0,2.4917511000021477,2.867232500000682,0.5739360000006855,0.5739360000006855,1.03106,-0.014403369455014418,-0.14712013086193299,,,,None,,-0.233,-0.23529411764705882,0.9426484622568918,0.9495798319327731,trial_list_0.8_red.csv,0.9421446000014839,0.9754370000009658,p5_high2_01,001,2023-05-02_18h39.22.185,expectation_shapes_perceived_time,2022.2.4,119.74441751203051,
,-33,0.8,met,,red,green,,1429.2255212591838,,,,,0,89,89,115,trial,,,,,,red,1.4292255212591838,1.4369747899159664,2.2914453000012145,0.9971248000001651,1e-05,1e-05,0.03339,1.4250444999997853,1.458382699998765,1.99965290000182,2.0329496000013023,2.2914453000012145,2.2914453000012145,2.516511599998921,0.22506629999770666,2.491448799999489,3.09205799999836,0.8006126999971457,0.575546399999439,1.34917,-0.13153594015410167,-0.0674543282841547,,,,None,,-0.033,-0.03361344537815126,1.3628955212591838,1.3697478991596639,trial_list_0.8_red.csv,1.3578310999982932,1.391777100001491,p5_high2_01,001,2023-05-02_18h39.22.185,expectation_shapes_perceived_time,2022.2.4,119.74441751203051,
,-167,0.1999999999999999,unmet,,green,red,,1844.282013740912,,,,,0,90,90,460,trial,,,,,,green,1.844282013740912,1.857142857142857,2.291615300000558,0.9967839999990247,1e-05,1e-05,0.03325,1.8414150000025984,1.874768400000903,1.9999523000005865,2.0332663000008324,2.291615300000558,2.291615300000558,2.5666857000032905,0.27507040000273264,2.4920569000023534,3.2672151000006124,0.9755998000000545,0.7005293999973219,1.51054,-0.14774253602976728,0.0048921369546280555,,,,None,,-0.167,-0.1680672268907563,1.643952013740912,1.6554621848739495,trial_list_0.8_red.csv,1.6415790999999444,1.6752389000030234,p5_high2_01,001,2023-05-02_18h39.22.185,expectation_shapes_perceived_time,2022.2.4,119.74441751203051,
,233,0.8,met,,red,green,,1183.9166331398171,,,,,0,91,91,348,trial,,,,,,red,1.1839166331398172,1.1932773109243697,2.2916643999997177,0.9968071000002965,1e-05,1e-05,,1.1832790000007662,1.216555300001346,1.9999329000020225,,2.2916643999997177,2.2916643999997177,2.491382000000158,0.19971760000044014,2.491382000000158,2.966473500000575,0.6748091000008571,0.475091500000417,1.20483,-0.0886941056910569,-0.11825880758807587,,,,None,,0.233,0.23529411764705882,1.450246633139817,1.4621848739495797,trial_list_0.8_red.csv,1.450191800002358,1.483526100000745,p5_high2_01,001,2023-05-02_18h39.22.185,expectation_shapes_perceived_time,2022.2.4,119.74441751203051,
,-300,0.8,met,,red,green,,1209.8497087569244,,,,,0,92,92,274,trial,,,,,,red,1.2098497087569244,1.218487394957983,2.291595899998356,0.9982422000030056,1e-05,1e-05,0.03321,1.2085022999999637,1.2416730000004463,1.9999625999989803,2.033366899999237,2.291595899998356,2.291595899998356,2.633203000001231,0.3416071000028751,2.4915498000009393,3.183351399999083,0.8917555000007269,0.5501483999978518,1.12888,-0.05823053316987949,-0.13587124406305215,,,,None,,-0.3,-0.3025210084033613,0.8765197087569244,0.8823529411764706,trial_list_0.8_red.csv,0.8753732000004675,0.9087771999984398,p5_high2_01,001,2023-05-02_18h39.22.185,expectation_shapes_perceived_time,2022.2.4,119.74441751203051,
,300,0.8,met,,red,green,,402.52677489528105,,,,,0,93,93,350,trial,,,,,,red,0.40252677489528105,0.40336134453781514,2.2911993999987317,0.9975809999996272,6e-05,6e-05,,0.3995236000009754,0.43365909999920405,1.9998119000010774,,2.2911993999987317,2.2911993999987317,2.4580948000002536,0.16689540000152192,2.4911639999991166,2.8996421999981976,0.6084427999994659,0.441547399997944,0.48183,0.1475827544238695,0.008433300252792543,,,,None,,0.3,0.3025210084033613,0.7358567748952811,0.7394957983193277,trial_list_0.8_red.csv,0.7329530999995768,0.7662835999981326,p5_high2_01,001,2023-05-02_18h39.22.185,expectation_shapes_perceived_time,2022.2.4,119.74441751203051,
,33,0.8,met,,red,green,,287.5900361091433,,,,,0,94,94,171,trial,,,,,,red,0.2875900361091433,0.2857142857142857,2.2917707999986305,0.9975985000019136,2e-05,2e-05,,0.2832490000000689,0.31659209999997984,1.9997404999994615,,2.2917707999986305,2.2917707999986305,2.4413206999997783,0.14954990000114776,2.4914633000007598,3.17483600000196,0.8830652000033297,0.7335153000021819,0.41677,0.14279880314773938,0.038213764222634485,,,,None,,0.033,0.03361344537815126,0.35392003610914324,0.3529411764705882,trial_list_0.8_red.csv,0.34975889999986975,0.38337680000040564,p5_high2_01,001,2023-05-02_18h39.22.185,expectation_shapes_perceived_time,2022.2.4,119.74441751203051,
,-100,0.8,met,,red,green,,1597.2185345757423,,,,,0,95,95,407,trial,,,,,,red,1.5972185345757424,1.6050420168067225,2.291451600001892,0.997514399998181,2e-05,2e-05,0.03337,1.5912846000028367,1.6245642000030784,2.0001152000004367,2.0334414999997534,2.291451600001892,2.291451600001892,2.9502917999998317,0.6588401999979396,2.4915741000004346,3.5997787000014796,1.3083270999995875,0.6494869000016479,0.56283,0.14495287681389743,-0.028990575362779485,,,,None,,-0.1,-0.10084033613445378,1.4638885345757424,1.4705882352941175,trial_list_0.8_red.csv,1.4581152999999176,1.4913308000031975,p5_high2_01,001,2023-05-02_18h39.22.185,expectation_shapes_perceived_time,2022.2.4,119.74441751203051,
,-100,0.1999999999999999,unmet,,green,red,,1734.4946805966442,,,,,0,96,96,260,trial,,,,,,green,1.7344946805966441,1.7478991596638656,2.292138699998759,0.9971657999994932,2e-05,2e-05,0.0337,1.7333943999983603,1.7667904999980237,2.000088099997811,2.0333896999982244,2.292138699998759,2.292138699998759,2.6667458999982045,0.3746071999994456,2.4922842999985733,3.3921703999985766,1.1000316999998176,0.7254245000003721,0.88673,0.05150094075845206,-0.13856205489774007,,,,None,,-0.1,-0.10084033613445378,1.6011646805966444,1.6134453781512605,trial_list_0.8_red.csv,1.6006368999987899,1.6338695999984338,p5_high2_01,001,2023-05-02_18h39.22.185,expectation_shapes_perceived_time,2022.2.4,119.74441751203051,
,300,0.8,met,,red,green,,1421.0928515095648,,,,,0,97,97,132,trial,,,,,,red,1.4210928515095647,1.4285714285714286,2.291404600000533,0.9972335000020394,2e-05,2e-05,0.03286,1.4166905999991286,1.4497478999983286,1.9998137000002316,2.0329581999976654,2.291404600000533,2.291404600000533,2.291404600000533,0.0,2.4911127999985183,2.9078512999985833,0.6164466999980505,0.6164466999980505,1.30698,-0.12146876229312739,-0.08424446417103995,,,,None,,0.3,0.3025210084033613,1.7544228515095648,1.7647058823529411,trial_list_0.8_red.csv,1.7497270999992907,1.7831321000012395,p5_high2_01,001,2023-05-02_18h39.22.185,expectation_shapes_perceived_time,2022.2.4,119.74441751203051,
,167,0.8,met,,red,green,,234.05852074581452,,,,,0,98,98,108,trial,,,,,,red,0.2340585207458145,0.23529411764705882,2.2918255000004137,0.9980092000005243,2e-05,2e-05,0.03331,0.2333705999990343,0.2667457999996259,2.000178300000698,2.0332482999983768,2.2918255000004137,2.2918255000004137,2.7918602999998257,0.5000347999994119,2.4918971999977657,3.6083331999980146,1.3165076999976009,0.816472899998189,1.27632,-0.11280276753339084,-0.09553703780889224,,,,None,,0.167,0.1680672268907563,0.4343885207458145,0.4369747899159664,trial_list_0.8_red.csv,0.43329159999848343,0.4666808999973,p5_high2_01,001,2023-05-02_18h39.22.185,expectation_shapes_perceived_time,2022.2.4,119.74441751203051,
,-300,0.1999999999999999,unmet,,green,red,,525.3171928984102,,,,,0,99,99,84,trial,,,,,,green,0.5253171928984102,0.5294117647058824,2.291534200001479,0.9977263000000676,2e-05,2e-05,0.03327,0.5251342000010482,0.5583225000009406,2.0000766000011936,2.0333132000014302,2.291534200001479,2.291534200001479,2.291534200001479,0.0,2.4915750000000116,2.9417436000003363,0.6502093999988574,0.6502093999988574,0.43578,0.14482489958496086,0.029623274915105628,,,,None,,-0.3,-0.3025210084033613,0.19198719289841024,0.19327731092436973,trial_list_0.8_red.csv,0.1916200999985449,0.2250887000009243,p5_high2_01,001,2023-05-02_18h39.22.185,expectation_shapes_perceived_time,2022.2.4,119.74441751203051,
,233,0.8,met,,red,green,,195.194672280911,0,0,0,0,0,100,100,110,fam,0.5408548999985214,0.5408548999985214,270.0000000000009,2.5324077000004763,2.5324077000004763,,,,,,,,,,,,,,,,,,,,,,,,,,,,,,,,,,,,p5_high2_01,001,2023-05-02_18h39.22.185,expectation_shapes_perceived_time,2022.2.4,119.74441751203051,
,233,0.8,met,,red,green,,195.194672280911,1,0,1,0,0,100,100,110,fam,0.4983673999995517,0.4983673999995517,270.0000000000009,2.4902184000020497,2.4902184000020497,,,,,,,,,,,,,,,,,,,,,,,,,,,,,,,,,,,,p5_high2_01,001,2023-05-02_18h39.22.185,expectation_shapes_perceived_time,2022.2.4,119.74441751203051,
,233,0.8,met,,red,green,,195.194672280911,2,0,2,0,0,100,100,110,fam,0.4984076000000641,0.4984076000000641,270.0000000000009,2.4903654999980063,2.4903654999980063,,,,,,,,,,,,,,,,,,,,,,,,,,,,,,,,,,,,p5_high2_01,001,2023-05-02_18h39.22.185,expectation_shapes_perceived_time,2022.2.4,119.74441751203051,
,233,0.8,met,,red,green,,195.194672280911,3,0,3,0,0,100,100,110,fam,0.49846489999981713,0.49846489999981713,270.0000000000009,2.4902603999980784,2.4902603999980784,,,,,,,,,,,,,,,,,,,,,,,,,,,,,,,,,,,,p5_high2_01,001,2023-05-02_18h39.22.185,expectation_shapes_perceived_time,2022.2.4,119.74441751203051,
,233,0.8,met,,red,green,,195.194672280911,,,,,0,100,100,110,trial,,,,,,red,0.195194672280911,0.19327731092436973,2.291422499998589,0.9908152999996673,2e-05,2e-05,0.03316,0.1913983999984339,0.22490849999667262,2.000011899999663,2.0334159999983967,2.291422499998589,2.291422499998589,2.5747874999979103,0.2833649999993213,2.491437799999403,3.1668871999972907,0.8754646999987017,0.5920996999993804,0.5102,0.1477476395217291,-0.004735501266722087,,,,None,,0.233,0.23529411764705882,0.461524672280911,0.4621848739495798,trial_list_0.8_red.csv,0.45808279999982915,0.4915705999992497,p5_high2_01,001,2023-05-02_18h39.22.185,expectation_shapes_perceived_time,2022.2.4,119.74441751203051,
,233,0.8,met,,red,green,,702.9118900164467,,,,,0,101,101,364,trial,,,,,,red,0.7029118900164467,0.7058823529411764,2.2918467999988934,0.9964246999988973,2e-05,2e-05,0.03346,0.7000914999989618,0.7335788999989745,2.0000024999972084,2.033282299998973,2.2918467999988934,2.2918467999988934,2.642273199999181,0.3504264000002877,2.4922331999987364,3.1916332000000693,0.8997864000011759,0.5493600000008882,0.85435,0.06530372356482447,-0.13261679247010508,,,,None,,0.233,0.23529411764705882,0.9692418900164468,0.9747899159663865,trial_list_0.8_red.csv,0.9670760999979393,1.000321299998177,p5_high2_01,001,2023-05-02_18h39.22.185,expectation_shapes_perceived_time,2022.2.4,119.74441751203051,
,33,0.8,met,,red,green,,654.1454545846366,,,,,0,102,102,206,trial,,,,,,red,0.6541454545846366,0.6554621848739496,2.2921649999989313,0.9975411999985226,2e-05,2e-05,0.03368,0.6500206000018807,0.683519599999272,2.0008385000001,2.033644600000116,2.2921649999989313,2.2921649999989313,2.2921649999989313,0.0,2.491529700000683,2.724931900000229,0.43276690000129747,0.43276690000129747,0.33054,0.12736548742198092,0.0750321435802759,,,,None,,0.033,0.03361344537815126,0.7204754545846366,0.7226890756302521,trial_list_0.8_red.csv,0.7168805000001157,0.7500432999986515,p5_high2_01,001,2023-05-02_18h39.22.185,expectation_shapes_perceived_time,2022.2.4,119.74441751203051,
,-167,0.8,met,,red,green,,1457.8633097827549,,,,,0,103,103,60,trial,,,,,,red,1.457863309782755,1.4705882352941175,2.2916234000003897,0.9979524000009405,3e-05,3e-05,,1.4583791000004567,1.4915629999995872,2.000029099999665,,2.2916234000003897,2.2916234000003897,2.3331591999995,0.04153579999911017,2.4917564999996102,2.966545600000245,0.6749221999998554,0.6333864000007452,0.5555,0.1455824813466321,-0.025642368873554516,,,,None,,-0.167,-0.1680672268907563,1.257533309782755,1.26890756302521,trial_list_0.8_red.csv,1.258309900000313,1.291736300001503,p5_high2_01,001,2023-05-02_18h39.22.185,expectation_shapes_perceived_time,2022.2.4,119.74441751203051,
,-300,0.8,met,,red,green,,720.9259599330709,,,,,0,104,104,101,trial,,,,,,red,0.7209259599330708,0.7226890756302521,2.291774000001169,0.9985115000017686,3e-05,3e-05,0.0333,0.7169630999997025,0.7499908999998297,2.0000493000006827,2.0332778000010876,2.291774000001169,2.291774000001169,2.291774000001169,0.0,2.4917964000014763,2.9083780000000843,0.6166039999989152,0.6166039999989152,0.74303,0.10679031785274984,-0.10221358994477485,,,,None,,-0.3,-0.3025210084033613,0.3875959599330709,0.38655462184873945,trial_list_0.8_red.csv,0.3832500999997137,0.4167752000030305,p5_high2_01,001,2023-05-02_18h39.22.185,expectation_shapes_perceived_time,2022.2.4,119.74441751203051,
,-300,0.8,met,,red,green,,1395.886264452237,,,,,0,105,105,331,trial,,,,,,red,1.395886264452237,1.403361344537815,2.2918547000008402,0.997757900000579,1e-05,1e-05,0.03342,1.39162639999995,1.4249816999981704,2.0001239999983227,2.0335434999979043,2.2918547000008402,2.2918547000008402,2.3417651999989175,0.049910499998077285,2.491687499998079,2.8589102999976603,0.5670555999968201,0.5171450999987428,0.86688,0.06003681338891368,-0.1350828301250558,,,,None,,-0.3,-0.3025210084033613,1.062556264452237,1.0672268907563025,trial_list_0.8_red.csv,1.0583857999990869,1.0917444999977306,p5_high2_01,001,2023-05-02_18h39.22.185,expectation_shapes_perceived_time,2022.2.4,119.74441751203051,
,-300,0.8,met,,red,green,,1845.66863157596,,,,,0,106,106,385,trial,,,,,,red,1.84566863157596,1.857142857142857,2.291447399999015,0.9970151999987138,1e-05,1e-05,0.03335,1.8416068999977142,1.8749891000006755,1.9998988999977882,2.03319609999744,2.291447399999015,2.291447399999015,2.47482989999844,0.1833824999994249,2.491635899998073,2.866466399998899,0.5750189999998838,0.3916365000004589,0.73521,0.10927059677448828,-0.0995576548389782,,,,None,,-0.3,-0.3025210084033613,1.5123386315759602,1.5210084033613445,trial_list_0.8_red.csv,1.5081900999975915,1.5414404000002833,p5_high2_01,001,2023-05-02_18h39.22.185,expectation_shapes_perceived_time,2022.2.4,119.74441751203051,
,-100,0.8,met,,red,green,,943.2137860836012,,,,,0,107,107,421,trial,,,,,,red,0.9432137860836012,0.9495798319327731,2.2915680000005523,0.9987285999995947,2e-05,2e-05,,0.9415941999977804,0.9750906000008399,1.999932799997623,,2.2915680000005523,2.2915680000005523,2.2915680000005523,0.0,2.4912580999989586,2.824783899999602,0.5332158999990497,0.5332158999990497,0.87343,0.05724206482400175,-0.1362906305333375,,,,None,,-0.1,-0.10084033613445378,0.8098837860836012,0.8151260504201681,trial_list_0.8_red.csv,0.8080000000009022,0.841453699998965,p5_high2_01,001,2023-05-02_18h39.22.185,expectation_shapes_perceived_time,2022.2.4,119.74441751203051,
,100,0.8,met,,red,green,,1052.7597386548582,,,,,0,108,108,341,trial,,,,,,red,1.0527597386548582,1.0588235294117647,2.2915937999969174,0.9977323999992223,4e-05,4e-05,0.03345,1.0497578999966208,1.0833164999967266,1.9998127999970166,2.033322199997201,2.2915937999969174,2.2915937999969174,2.2999252999979944,0.008331500001077075,2.491478999996616,2.6831221999964328,0.3915283999995154,0.3831968999984383,0.91472,0.03913139326719442,-0.1425500754733511,,,,None,,0.1,0.10084033613445378,1.1860897386548581,1.1932773109243697,trial_list_0.8_red.csv,1.1834520999982487,1.2164399999965099,p5_high2_01,001,2023-05-02_18h39.22.185,expectation_shapes_perceived_time,2022.2.4,119.74441751203051,
,-167,0.1999999999999999,unmet,,green,red,,1007.3328509159332,,,,,0,109,109,387,trial,,,,,,green,1.0073328509159332,1.0168067226890756,2.2916499999992084,0.9975034000017331,2e-05,2e-05,0.03335,1.0080608999996912,1.0414120000023104,2.0002798000023176,2.0332364000023517,2.2916499999992084,2.2916499999992084,3.6498123000019405,1.358162300002732,2.491687500001717,4.13358060000246,1.841930600003252,0.48376830000051996,0.94171,0.026917073479693222,-0.14535219679034342,,,,None,,-0.167,-0.1680672268907563,0.8070028509159332,0.8151260504201681,trial_list_0.8_red.csv,0.8080761000019265,0.8414898000009998,p5_high2_01,001,2023-05-02_18h39.22.185,expectation_shapes_perceived_time,2022.2.4,119.74441751203051,
,-33,0.8,met,,red,green,,1245.8750942619315,,,,,0,110,110,4,trial,,,,,,red,1.2458750942619314,1.2521008403361344,2.291889000000083,0.995864000000438,2e-05,2e-05,,1.2421909000004234,1.275705600000947,2.000328600002831,,2.291889000000083,2.291889000000083,2.6085007000001497,0.3166117000000668,2.4919404000029317,2.975294200001372,0.6834052000012889,0.36679350000122213,1.13868,-0.062385893645455895,-0.1340141419050534,,,,None,,-0.033,-0.03361344537815126,1.1795450942619317,1.184873949579832,trial_list_0.8_red.csv,1.175613200000953,1.2085719000024255,p5_high2_01,001,2023-05-02_18h39.22.185,expectation_shapes_perceived_time,2022.2.4,119.74441751203051,
,-300,0.1999999999999999,unmet,,green,red,,703.8760609805881,,,,,0,111,111,94,trial,,,,,,green,0.7038760609805881,0.7058823529411764,2.291636699999799,0.9974392000003718,1e-05,1e-05,0.03363,0.7002931999995781,0.7335586000008334,1.9997719999992114,2.033083700000134,2.291636699999799,2.291636699999799,2.308938699999999,0.01730200000019977,2.491414000000077,2.9085860999985016,0.6169493999987026,0.5996473999985028,0.75714,0.10215614088262928,-0.10684527521822537,,,,None,,-0.3,-0.3025210084033613,0.3705460609805882,0.36974789915966383,trial_list_0.8_red.csv,0.36657389999891166,0.39985039999737637,p5_high2_01,001,2023-05-02_18h39.22.185,expectation_shapes_perceived_time,2022.2.4,119.74441751203051,
,233,0.1999999999999999,unmet,,green,red,,738.4881272324988,,,,,0,112,112,48,trial,,,,,,green,0.7384881272324988,0.7394957983193277,2.291452900000877,0.9973473999998532,2e-05,2e-05,0.03334,0.73331060000055,0.7665452000001096,2.0000337999990734,2.0332429000009142,2.291452900000877,2.291452900000877,2.3498900000013236,0.05843710000044666,2.4915495999994164,2.9912704000016674,0.6998175000007905,0.6413804000003438,0.69999,0.11959439291135614,-0.08688481536295103,,,,None,,0.233,0.23529411764705882,1.0048181272324987,1.0084033613445378,trial_list_0.8_red.csv,1.0002438999981678,1.0334384999987378,p5_high2_01,001,2023-05-02_18h39.22.185,expectation_shapes_perceived_time,2022.2.4,119.74441751203051,
,-100,0.8,met,,red,green,,592.6262231824602,,,,,0,113,113,480,trial,,,,,,red,0.5926262231824602,0.5966386554621849,2.2920455999992555,0.9984815000025264,1e-05,1e-05,0.03344,0.5917054999990796,0.6252069999973173,2.0003301999968244,2.0333034999966912,2.2920455999992555,2.2920455999992555,2.2920455999992555,0.0,2.491451899997628,3.0086290999970515,0.716583499997796,0.716583499997796,0.70836,0.11726976868992038,-0.08999772945970633,,,,None,,-0.1,-0.10084033613445378,0.4592962231824602,0.4621848739495798,trial_list_0.8_red.csv,0.4583058999996865,0.4920012000002316,p5_high2_01,001,2023-05-02_18h39.22.185,expectation_shapes_perceived_time,2022.2.4,119.74441751203051,
,-300,0.8,met,,red,green,,1341.5667630261871,,,,,0,114,114,403,trial,,,,,,red,1.3415667630261872,1.352941176470588,2.2918831999995746,0.9969036000002234,1e-05,1e-05,0.03334,1.3418301999990945,1.375070099998993,2.0000983999998425,2.033524899998156,2.2918831999995746,2.2918831999995746,2.300084099999367,0.008200899999792455,2.4958016999989923,2.7673914000006334,0.47550820000105887,0.4673073000012664,0.83475,0.07334099906011632,-0.12834674835520357,,,,None,,-0.3,-0.3025210084033613,1.008236763026187,1.0168067226890756,trial_list_0.8_red.csv,1.0084371999982977,1.0418668999991496,p5_high2_01,001,2023-05-02_18h39.22.185,expectation_shapes_perceived_time,2022.2.4,119.74441751203051,
,-167,0.8,met,,red,green,,1784.4621266234335,,,,,0,115,115,130,trial,,,,,,red,1.7844621266234335,1.7983193277310923,2.2916932000007364,0.9969747999966785,1e-05,1e-05,,1.783134400000563,1.8169183999998495,2.000103099999251,,2.2916932000007364,2.2916932000007364,2.3498240999979316,0.05813089999719523,2.491465299997799,2.758281200000056,0.46658799999931944,0.4084571000021242,1.28958,-0.11668481499241001,-0.0907548561052078,,,,None,,-0.167,-0.1680672268907563,1.5841321266234336,1.5966386554621848,trial_list_0.8_red.csv,1.5837362999991456,1.6164056999987224,p5_high2_01,001,2023-05-02_18h39.22.185,expectation_shapes_perceived_time,2022.2.4,119.74441751203051,
,-33,0.8,met,,red,green,,1211.828196576804,,,,,0,116,116,224,trial,,,,,,red,1.211828196576804,1.218487394957983,2.2915036999984295,0.9982366999975056,2e-05,2e-05,,1.208558099999209,1.2416198999999324,2.0001749000002746,,2.2915036999984295,2.2915036999984295,2.491425199998048,0.1999214999996184,2.491425199998048,3.016321799997968,0.7248180999995384,0.52489659999992,1.02495,-0.011573540549425068,-0.14736974966267918,,,,None,,-0.033,-0.03361344537815126,1.145498196576804,1.1512605042016806,trial_list_0.8_red.csv,1.1418430999983684,1.1753023999990546,p5_high2_01,001,2023-05-02_18h39.22.185,expectation_shapes_perceived_time,2022.2.4,119.74441751203051,
,-167,0.8,met,,red,green,,620.1134444467874,,,,,0,117,117,422,trial,,,,,,red,0.6201134444467874,0.6218487394957983,2.292103700001462,0.9970906000016839,2e-05,2e-05,0.0335,0.6166245999993407,0.6503536000018357,1.9998864000008325,2.0334609000019555,2.292103700001462,2.292103700001462,2.292103700001462,0.0,2.4923454000017955,3.233296900001733,0.9411932000002707,0.9411932000002707,1.15125,-0.06762830958285203,-0.1314465735554025,,,,None,,-0.167,-0.1680672268907563,0.41978344444678745,0.42016806722689076,trial_list_0.8_red.csv,0.4170933999994304,0.4498870000024908,p5_high2_01,001,2023-05-02_18h39.22.185,expectation_shapes_perceived_time,2022.2.4,119.74441751203051,
,-167,0.8,met,,red,green,,744.8693757407905,,,,,0,118,118,482,trial,,,,,,red,0.7448693757407905,0.7478991596638656,2.2918246000008367,0.9988235000018904,2e-05,2e-05,,0.7415823999981512,0.7750544999980775,2.0001535000010335,,2.2918246000008367,2.2918246000008367,2.2918246000008367,0.0,2.4918671000014,2.967135799997777,0.6753111999969406,0.6753111999969406,0.97591,0.011177276507489318,-0.1474003339425154,,,,None,,-0.167,-0.1680672268907563,0.5445393757407905,0.5462184873949579,trial_list_0.8_red.csv,0.5417243000010785,0.5749434999997902,p5_high2_01,001,2023-05-02_18h39.22.185,expectation_shapes_perceived_time,2022.2.4,119.74441751203051,
,33,0.1999999999999999,unmet,,green,red,,1334.5691102943497,,,,,0,119,119,189,trial,,,,,,green,1.3345691102943498,1.3445378151260503,2.2918516999998246,0.99642639999729,2e-05,2e-05,0.03327,1.3338431999982276,1.3667935000012221,2.002567600000475,,2.2918516999998246,2.2918516999998246,2.2918516999998246,0.0,2.491902599998866,3.492339100001118,1.2004874000012933,1.2004874000012933,1.25539,-0.10628338502656882,-0.1027406055256832,,,,None,,0.033,0.03361344537815126,1.4008991102943495,1.4117647058823528,trial_list_0.8_red.csv,1.4001772999981767,1.4336674000005587,p5_high2_01,001,2023-05-02_18h39.22.185,expectation_shapes_perceived_time,2022.2.4,119.74441751203051,
