id,delay,expectation,congruency,trial_num,stim_color,distractor_color,block,targetTimeMs,famLoop.thisRepN,famLoop.thisTrialN,famLoop.thisN,famLoop.thisIndex,trialss.thisRepN,trialss.thisTrialN,trialss.thisN,trialss.thisIndex,isTrial,handMove.started,audioCue2Start.started,handOri,handMove.ended,audioCue2End.started,target_color,expected_target_onset,expected_target_onset_in_frames,fixationPoint.started,fixationPoint.stopped,audCueStart.started,placeholder.started,audCueStart.stopped,target.started,target.stopped,audCueEnd.started,audCueEnd.stopped,responsePointer.started,cueForRep.started,space2pass.started,responseStarted,rtUntillMotionTreshold,space2pass.keys,space2pass.rt,responsePointer.stopped,rTAfterMotionTreshold,rtDurationBtwRespMotion,perceivedTime,resp_x_coord,resp_y_coord,feedbackPointer.stopped,actualTime_x_coord,actualTime_y_coord,expected_delay,expected_delays_frame,expected_distractor,expected_distractor_frame,expBlockFiles,distractor.started,distractor.stopped,participant,session,date,expName,psychopyVersion,frameRate,
,,,,,,,,,0,0,0,0,,,,,fam,0.7317792999965604,0.7317792999965604,270.0000000000009,2.723422399998526,2.723422399998526,,,,,,,,,,,,,,,,,,,,,,,,,,,,,,,,,,,,p7_base_01,001,2023-05-03_10h08.48.657,expectation_shapes_perceived_time,2022.2.4,119.52143617105114,
,,,,,,,,,1,0,1,0,,,,,fam,0.497128300004988,0.497128300004988,270.0000000000009,2.4888008999987505,2.4888008999987505,,,,,,,,,,,,,,,,,,,,,,,,,,,,,,,,,,,,p7_base_01,001,2023-05-03_10h08.48.657,expectation_shapes_perceived_time,2022.2.4,119.52143617105114,
,,,,,,,,,2,0,2,0,,,,,fam,0.4976485000079265,0.4976485000079265,270.0000000000009,2.4891333999985363,2.4891333999985363,,,,,,,,,,,,,,,,,,,,,,,,,,,,,,,,,,,,p7_base_01,001,2023-05-03_10h08.48.657,expectation_shapes_perceived_time,2022.2.4,119.52143617105114,
,,,,,,,,,3,0,3,0,,,,,fam,0.4989809999970021,0.4989809999970021,270.0000000000009,2.490665999997873,2.490665999997873,,,,,,,,,,,,,,,,,,,,,,,,,,,,,,,,,,,,p7_base_01,001,2023-05-03_10h08.48.657,expectation_shapes_perceived_time,2022.2.4,119.52143617105114,
,,,,,,,,,4,0,4,0,,,,,fam,0.4976827000064077,0.4976827000064077,270.0000000000009,2.4898159000003943,2.4898159000003943,,,,,,,,,,,,,,,,,,,,,,,,,,,,,,,,,,,,p7_base_01,001,2023-05-03_10h08.48.657,expectation_shapes_perceived_time,2022.2.4,119.52143617105114,
,,,,,,,,,5,0,5,0,,,,,fam,0.49737879999156576,0.49737879999156576,270.0000000000009,2.4890326999884564,2.4890326999884564,,,,,,,,,,,,,,,,,,,,,,,,,,,,,,,,,,,,p7_base_01,001,2023-05-03_10h08.48.657,expectation_shapes_perceived_time,2022.2.4,119.52143617105114,
,,,,,,,,,6,0,6,0,,,,,fam,0.49724529999366496,0.49724529999366496,270.0000000000009,2.4889779000077397,2.4889779000077397,,,,,,,,,,,,,,,,,,,,,,,,,,,,,,,,,,,,p7_base_01,001,2023-05-03_10h08.48.657,expectation_shapes_perceived_time,2022.2.4,119.52143617105114,
,,,,,,,,,7,0,7,0,,,,,fam,0.49762290000217035,0.49762290000217035,270.0000000000009,2.489413400006015,2.489413400006015,,,,,,,,,,,,,,,,,,,,,,,,,,,,,,,,,,,,p7_base_01,001,2023-05-03_10h08.48.657,expectation_shapes_perceived_time,2022.2.4,119.52143617105114,
,,,,,,,,,8,0,8,0,,,,,fam,0.49748550000367686,0.49748550000367686,270.0000000000009,2.488745499998913,2.488745499998913,,,,,,,,,,,,,,,,,,,,,,,,,,,,,,,,,,,,p7_base_01,001,2023-05-03_10h08.48.657,expectation_shapes_perceived_time,2022.2.4,119.52143617105114,
,,,,,,,,,9,0,9,0,,,,,fam,0.4973769999924116,0.4973769999924116,270.0000000000009,2.4892667999956757,2.4892667999956757,,,,,,,,,,,,,,,,,,,,,,,,,,,,,,,,,,,,p7_base_01,001,2023-05-03_10h08.48.657,expectation_shapes_perceived_time,2022.2.4,119.52143617105114,
,,,,,,,,,10,0,10,0,,,,,fam,0.4973170999874128,0.4973170999874128,270.0000000000009,2.4888003999949433,2.4888003999949433,,,,,,,,,,,,,,,,,,,,,,,,,,,,,,,,,,,,p7_base_01,001,2023-05-03_10h08.48.657,expectation_shapes_perceived_time,2022.2.4,119.52143617105114,
,,,,,,,,,11,0,11,0,,,,,fam,0.49753249999776017,0.49753249999776017,270.0000000000009,2.489638900005957,2.489638900005957,,,,,,,,,,,,,,,,,,,,,,,,,,,,,,,,,,,,p7_base_01,001,2023-05-03_10h08.48.657,expectation_shapes_perceived_time,2022.2.4,119.52143617105114,
,,,,,,,,,12,0,12,0,,,,,fam,0.49711119999119546,0.49711119999119546,270.0000000000009,2.4890692999906605,2.4890692999906605,,,,,,,,,,,,,,,,,,,,,,,,,,,,,,,,,,,,p7_base_01,001,2023-05-03_10h08.48.657,expectation_shapes_perceived_time,2022.2.4,119.52143617105114,
,,,,,,,,,13,0,13,0,,,,,fam,0.497205000006943,0.497205000006943,270.0000000000009,2.488961200011545,2.488961200011545,,,,,,,,,,,,,,,,,,,,,,,,,,,,,,,,,,,,p7_base_01,001,2023-05-03_10h08.48.657,expectation_shapes_perceived_time,2022.2.4,119.52143617105114,
,,,,,,,,,14,0,14,0,,,,,fam,0.49702890000480693,0.49702890000480693,270.0000000000009,2.4884232000040356,2.4884232000040356,,,,,,,,,,,,,,,,,,,,,,,,,,,,,,,,,,,,p7_base_01,001,2023-05-03_10h08.48.657,expectation_shapes_perceived_time,2022.2.4,119.52143617105114,
,,,,,,,,,15,0,15,0,,,,,fam,0.49718800000846386,0.49718800000846386,270.0000000000009,2.489067200003774,2.489067200003774,,,,,,,,,,,,,,,,,,,,,,,,,,,,,,,,,,,,p7_base_01,001,2023-05-03_10h08.48.657,expectation_shapes_perceived_time,2022.2.4,119.52143617105114,
,,,,,,,,,16,0,16,0,,,,,fam,0.49715520000609104,0.49715520000609104,270.0000000000009,2.4887632000027224,2.4887632000027224,,,,,,,,,,,,,,,,,,,,,,,,,,,,,,,,,,,,p7_base_01,001,2023-05-03_10h08.48.657,expectation_shapes_perceived_time,2022.2.4,119.52143617105114,
,,,,,,,,,17,0,17,0,,,,,fam,0.4974058000079822,0.4974058000079822,270.0000000000009,2.489245300006587,2.489245300006587,,,,,,,,,,,,,,,,,,,,,,,,,,,,,,,,,,,,p7_base_01,001,2023-05-03_10h08.48.657,expectation_shapes_perceived_time,2022.2.4,119.52143617105114,
,,,,,,,,,18,0,18,0,,,,,fam,0.49726750000263564,0.49726750000263564,270.0000000000009,2.4888015000033192,2.4888015000033192,,,,,,,,,,,,,,,,,,,,,,,,,,,,,,,,,,,,p7_base_01,001,2023-05-03_10h08.48.657,expectation_shapes_perceived_time,2022.2.4,119.52143617105114,
,,,,,,,,,19,0,19,0,,,,,fam,0.4967841000034241,0.4967841000034241,270.0000000000009,2.4890059000026667,2.4890059000026667,,,,,,,,,,,,,,,,,,,,,,,,,,,,,,,,,,,,p7_base_01,001,2023-05-03_10h08.48.657,expectation_shapes_perceived_time,2022.2.4,119.52143617105114,
,,,,,,,,,,,,,0,0,0,0,test,,,,,,red,0.3441491534148795,0.3416666666666667,2.2917432000103872,0.9974395000026561,8.930001058615744e-05,9e-05,0.033282800010056235,0.3417377000005217,0.3749380000081146,1.9995407000096748,2.0328165000100853,2.2917432000103872,2.2917432000103872,2.591675200004829,20.42527720000362,18.133533999993233,space,23.922986499994295,,,,,,,,,,,,,,,,,p7_base_01,001,2023-05-03_10h08.48.657,expectation_shapes_perceived_time,2022.2.4,119.52143617105114,
,,,,,,,,,,,,,1,0,1,0,test,,,,,,red,1.3042726091078032,1.3,2.291666699995403,0.9970816999993986,4.0099999750964344e-05,4e-05,,1.2999526000057813,1.3331993000028888,1.99988430000667,,2.291666699995403,2.291666699995403,2.591578399995342,8.991660700005013,6.69999400000961,space,33.84620279999217,36.44128680000722,34.149620100011816,27.449626100002206,1.05725,-0.02644347327050056,-0.14543910298775306,36.44128680000722,-0.12074720941777424,-0.08527544414607344,,,,,,,,p7_base_01,001,2023-05-03_10h08.48.657,expectation_shapes_perceived_time,2022.2.4,119.52143617105114,
,,,,,,,,,,,,,2,0,2,0,test,,,,,,green,1.109264503223847,1.1083333333333334,2.2914046999940183,0.9985973000002559,5.6599994422867894e-05,6e-05,0.033254599999054335,1.1083062999969115,1.14159749999817,1.9997712000040337,2.0330802999960724,2.2914046999940183,2.2914046999940183,2.5916280999954324,4.458279099999345,2.1668744000053266,space,32.58969829999842,35.18329679999442,32.891892100000405,30.725017699995078,1.10353,-0.04723424452858836,-0.14007396653305512,35.18329679999442,-0.04975192225466453,-0.13919962711320652,,,,,,,,p7_base_01,001,2023-05-03_10h08.48.657,expectation_shapes_perceived_time,2022.2.4,119.52143617105114,
,,,,,,,,,,,,,3,0,3,0,test,,,,,,green,0.9134409582373684,0.9083333333333333,2.2915864999959012,0.9968783000076655,3.989999822806567e-05,4e-05,0.033232899993890896,0.9079652999935206,0.9412834999966435,2.00012229999993,2.0333845999994082,2.2915864999959012,2.2915864999959012,2.5918415999913123,3.8499504999927012,1.5583639999968,space,36.2930434000009,38.891568199993344,36.59998169999744,35.04161770000064,0.35919,0.13359369899971812,0.06328122584197174,38.891568199993344,0.0397045294188811,-0.1423915036092924,,,,,,,,p7_base_01,001,2023-05-03_10h08.48.657,expectation_shapes_perceived_time,2022.2.4,119.52143617105114,
,,,,,,,,,,,,,4,0,4,0,test,,,,,,green,1.3088570189132922,1.3,2.2919027999887476,0.9973622999968939,3.159999323543161e-05,3e-05,0.033127099988632835,1.299745399999665,1.333114299995941,2.000474899992696,,2.2919027999887476,2.2919027999887476,2.5920113999891328,3.992035199989914,1.7001324000011664,space,7.265665800005081,9.858686599996872,7.566783800008125,5.866651400006958,1.0,0.0,-0.14782350948509485,9.858686599996872,-0.12196281065809826,-0.08352761682741101,,,,,,,,p7_base_01,001,2023-05-03_10h08.48.657,expectation_shapes_perceived_time,2022.2.4,119.52143617105114,
,,,,,,,,,,,,,5,0,5,0,test,,,,,,red,0.48037641145530424,0.475,2.292241000002832,0.9960267999995267,4.5200009481050074e-05,5e-05,0.03331909999542404,0.47522039999603294,0.5085950000066077,2.00034090000554,2.0336930000048596,2.292241000002832,2.292241000002832,2.5922645999962697,2.292241000002832,0.0,space,71.72708769999736,74.32541669999773,72.0331756999949,72.0331756999949,1.05991,-0.02765956845545279,-0.14521273439112714,74.32541669999773,0.14754268655730468,0.009107447498770549,,,,,,,,p7_base_01,001,2023-05-03_10h08.48.657,expectation_shapes_perceived_time,2022.2.4,119.52143617105114,
,,,,,,,,,,,,,6,0,6,0,test,,,,,,red,1.2891976483110534,1.2833333333333332,2.2920369999919785,0.9964823000045726,1.550000160932541e-05,2e-05,,1.2836603999894578,1.3170679999893764,2.000357700002496,,2.2920369999919785,2.2920369999919785,2.591972199996235,3.1171708999900147,0.8251338999980362,space,8.699238100001821,11.292132199989283,9.000095199997304,8.174961299999268,0.62046,0.13736452384226075,-0.05461481068427234,11.292132199989283,-0.11657473892458795,-0.09089620564772816,,,,,,,,p7_base_01,001,2023-05-03_10h08.48.657,expectation_shapes_perceived_time,2022.2.4,119.52143617105114,
,,,,,,,,,,,,,7,0,7,0,test,,,,,,green,1.3945474039098973,1.3916666666666666,2.2917645999987144,0.9966291999880923,6.200000643730164e-05,6e-05,0.033332599996356294,1.3918439999979455,1.424966399994446,1.9999849000014365,2.0333347999985563,2.2917645999987144,2.2917645999987144,2.591320599996834,3.6334951000026194,1.341730500003905,space,2.8957682000036584,5.491852899998776,3.2000883000000613,1.8583577999961562,0.92102,0.03630184961838005,-0.14329677480939493,5.491852899998776,-0.13978543369652904,-0.04808141514934019,,,,,,,,p7_base_01,001,2023-05-03_10h08.48.657,expectation_shapes_perceived_time,2022.2.4,119.52143617105114,
,,,,,,,,,,,,,8,0,8,0,test,,,,,,red,1.1806999650862293,1.175,2.2922059999982594,0.997242900004494,5.43000060133636e-05,5e-05,0.03323169999930542,1.1745330999983707,1.2078355999983614,2.0002748999977484,2.0336308000114514,2.2922059999982594,2.2922059999982594,2.5918235999997705,2.7175674000027357,0.4253614000044763,space,5.2745904000039445,7.866636200007633,5.574430200009374,5.149068800004898,1.08568,-0.03931055777681295,-0.14250077194094696,7.866636200007633,-0.07948206675099156,-0.12463703711770771,,,,,,,,p7_base_01,001,2023-05-03_10h08.48.657,expectation_shapes_perceived_time,2022.2.4,119.52143617105114,
,,,,,,,,,,,,,9,0,9,0,test,,,,,,red,1.560274298391785,1.55,2.29121139999188,0.9964424999925541,5.7600002037361264e-05,6e-05,,1.5499265999969793,1.5832897999935085,1.9997919000015827,,2.29121139999188,2.29121139999188,2.5912664999923436,3.816676100002951,1.5254647000110708,space,2.6406904000032227,,,,,,,,,,,,,,,,,p7_base_01,001,2023-05-03_10h08.48.657,expectation_shapes_perceived_time,2022.2.4,119.52143617105114,
,,,,,,,,,,,,,10,0,10,0,test,,,,,,green,0.7797788435755467,0.775,2.291352000000188,0.9966063000028953,7.100000220816582e-05,7e-05,0.033299800008535385,0.7745604000083404,0.8078094000084093,1.9996944000013173,2.0331127000099514,2.291352000000188,2.291352000000188,2.5915389000001596,3.941418500005966,1.650066500005778,space,2.647273500013398,,,,,,,,,,,,,,,,,p7_base_01,001,2023-05-03_10h08.48.657,expectation_shapes_perceived_time,2022.2.4,119.52143617105114,
,,,,,,,,,,,,,11,0,11,0,test,,,,,,green,1.4641641902590394,1.4583333333333333,2.292133199996897,0.9961667000025045,2.540000423323363e-05,3e-05,0.033299900009296834,1.4588209000066854,1.4919856000051368,2.000506199998199,2.0336658000014722,2.292133199996897,2.292133199996897,2.5919817999965744,2.8002828000026057,0.5081496000057086,space,5.565771699999459,8.158692500001052,5.866559300004155,5.358409699998447,1.13016,-0.05877572682847826,-0.1356362926811037,8.158692500001052,-0.1468876967623741,-0.01660706164060201,,,,,,,,p7_base_01,001,2023-05-03_10h08.48.657,expectation_shapes_perceived_time,2022.2.4,119.52143617105114,
,,,,,,,,,,,,,12,0,12,0,test,,,,,,red,0.6349033192050246,0.6333333333333333,2.291546099993866,0.9966283999965526,3.369999467395246e-05,3e-05,0.03308449999894947,0.6327970999991521,0.6661348000052385,1.99991250000312,2.033521599994856,2.291546099993866,2.291546099993866,2.5915690999972867,4.099691299998085,1.808145200004219,space,5.102057000010973,7.69956049999746,5.408014400003594,3.5998691999993753,0.89758,0.046745898169240394,-0.1402376945077212,7.69956049999746,0.13474530114610736,-0.060790573081151,,,,,,,,p7_base_01,001,2023-05-03_10h08.48.657,expectation_shapes_perceived_time,2022.2.4,119.52143617105114,
,,,,,,,,,,,,,13,0,13,0,test,,,,,,red,0.4123823506751763,0.4083333333333333,2.2917922000051476,0.9984009000036167,3.4500000765547156e-05,3e-05,0.033300399998552166,0.4083537999977125,0.44152190000750124,1.999553100002231,2.0329038000054425,2.2917922000051476,2.2917922000051476,2.591733100009151,2.941450199999963,0.6496579999948153,space,5.563988099995186,8.158260800002608,5.866468599997461,5.2168106000026455,1.19309,-0.08427145514855068,-0.12145003830232304,8.158260800002608,0.1422586705028942,0.04017786235277956,,,,,,,,p7_base_01,001,2023-05-03_10h08.48.657,expectation_shapes_perceived_time,2022.2.4,119.52143617105114,
,,,,,,,,,,,,,14,0,14,0,test,,,,,,red,0.8135529912081474,0.8083333333333333,2.2917549000121653,0.9966857999970671,6.240000948309898e-05,6e-05,0.03354560000298079,0.8084477000084007,0.84186580000096,2.000201000002562,2.0333671000116738,2.2917549000121653,2.2917549000121653,2.5917007000098238,2.433311600005254,0.14155669999308884,space,5.844111200000043,8.44356460000563,6.151809699993464,6.010253000000375,0.93817,0.028533168795902408,-0.14504360804583727,8.44356460000563,0.08171929566820799,-0.12318176274100776,,,,,,,,p7_base_01,001,2023-05-03_10h08.48.657,expectation_shapes_perceived_time,2022.2.4,119.52143617105114,
,,,,,,,,,,,,,15,0,15,0,test,,,,,,green,0.8476380990903472,0.8416666666666667,2.2913752000022214,0.9952124999981606,8.610000077169389e-05,9e-05,0.03320769999118056,0.8413468999933684,0.8749500999983866,1.9997082999907434,2.0332418000034522,2.2913752000022214,2.2913752000022214,2.591405899991514,2.616526799989515,0.3251515999872936,space,1.1545610000030138,,,,,,,,,,,,,,,,,p7_base_01,001,2023-05-03_10h08.48.657,expectation_shapes_perceived_time,2022.2.4,119.52143617105114,
,,,,,,,,,,,,,16,0,16,0,test,,,,,,green,0.37859661432262204,0.375,2.316635800001677,0.9987827000004472,0.00012749999586958438,0.00013,0.03327879999415018,0.3750447000056738,0.4083004999993136,2.0011930000036955,,2.316635800001677,2.316635800001677,2.6166678000008687,3.034021900006337,0.71738610000466,space,30.459398899998632,33.07526759999746,30.758631799995783,30.041245699991123,0.809,0.08347355815259305,-0.12199981576148215,33.07526759999746,0.13720156883535778,0.05502289946564519,,,,,,,,p7_base_01,001,2023-05-03_10h08.48.657,expectation_shapes_perceived_time,2022.2.4,119.52143617105114,
,,,,,,,,,,,,,17,0,17,0,test,,,,,,red,1.6456862592814896,1.6416666666666666,2.292272699996829,0.991508299994166,1.5300000086426735e-05,2e-05,,1.6419904000067618,1.6752360999962548,2.0003625999961514,,2.292272699996829,2.292272699996829,2.5920853999996325,2.7590946999989683,0.46682200000213925,space,5.666663900003186,8.258733900001971,5.966461200005142,5.499639200003003,1.42202,-0.1434098690721271,-0.035852467268031776,8.258733900001971,-0.13260907098698518,0.06531940177664408,,,,,,,,p7_base_01,001,2023-05-03_10h08.48.657,expectation_shapes_perceived_time,2022.2.4,119.52143617105114,
,,,,,,,,,,,,,18,0,18,0,test,,,,,,red,1.452554811797407,1.45,2.2914316000096733,0.9968445999984397,5.1700000767596066e-05,5e-05,0.03332840000803117,1.4498682000121335,1.4832631000026595,1.9997780000121566,2.0333122000010917,2.2914316000096733,2.2914316000096733,2.591434500005562,2.9082696000114083,0.616838000001735,space,2.735190400009742,5.332833300009952,3.0414017000002787,2.4245636999985436,0.32123,0.12511657880940025,0.07872503835198218,5.332833300009952,-0.1461844549669207,-0.021952108839796113,,,,,,,,p7_base_01,001,2023-05-03_10h08.48.657,expectation_shapes_perceived_time,2022.2.4,119.52143617105114,
,,,,,,,,,,,,,19,0,19,0,test,,,,,,red,1.6146323534659344,1.6083333333333334,2.2999386000010418,0.9990014000068186,7.730000652372837e-05,8e-05,,1.608386200008681,1.641853600012837,1.999982400011504,2.0334160000056727,2.2999386000010418,2.2999386000010418,2.6146690000023227,2.543919600007939,0.24398100000689737,space,3.938491199995042,6.557934200012824,4.257995600011782,4.014014600004884,1.11635,-0.05283704706642543,-0.13805809072195036,6.557934200012824,-0.13834087802444178,0.0520921435911064,,,,,,,,p7_base_01,001,2023-05-03_10h08.48.657,expectation_shapes_perceived_time,2022.2.4,119.52143617105114,
,,,,,,,,,0,0,0,0,,,,,fam,0.5567442000028677,0.5567442000028677,270.0000000000009,2.547874600000796,2.547874600000796,,,,,,,,,,,,,,,,,,,,,,,,,,,,,,,,,,,,p7_base_01,001,2023-05-03_10h08.48.657,expectation_shapes_perceived_time,2022.2.4,119.52143617105114,
,,,,,,,,,1,0,1,0,,,,,fam,0.4971075000066776,0.4971075000066776,270.0000000000009,2.488987000004272,2.488987000004272,,,,,,,,,,,,,,,,,,,,,,,,,,,,,,,,,,,,p7_base_01,001,2023-05-03_10h08.48.657,expectation_shapes_perceived_time,2022.2.4,119.52143617105114,
,,,,,,,,,2,0,2,0,,,,,fam,0.4979096000024583,0.4979096000024583,270.0000000000009,2.4892764999967767,2.4892764999967767,,,,,,,,,,,,,,,,,,,,,,,,,,,,,,,,,,,,p7_base_01,001,2023-05-03_10h08.48.657,expectation_shapes_perceived_time,2022.2.4,119.52143617105114,
,,,,,,,,,3,0,3,0,,,,,fam,0.4972739999939222,0.4972739999939222,270.0000000000009,2.4887776999967173,2.4887776999967173,,,,,,,,,,,,,,,,,,,,,,,,,,,,,,,,,,,,p7_base_01,001,2023-05-03_10h08.48.657,expectation_shapes_perceived_time,2022.2.4,119.52143617105114,
,,,,,,,,,4,0,4,0,,,,,fam,0.49700730000040494,0.49700730000040494,270.0000000000009,2.4890825000038603,2.4890825000038603,,,,,,,,,,,,,,,,,,,,,,,,,,,,,,,,,,,,p7_base_01,001,2023-05-03_10h08.48.657,expectation_shapes_perceived_time,2022.2.4,119.52143617105114,
,,,,,,,,,,,,,0,0,0,0,testSingleStim,,,,,,red,1.2506741844026132,1.2416666666666667,0.04886300000362098,0.9973774999962188,3.959999594371766e-05,4e-05,0.033572599990293384,1.2415266999887535,1.274830700000166,2.000122699988424,2.033373999991454,2.2917215999914333,2.2917215999914333,2.5917902999935905,3.5249722999869846,1.2332506999955513,None,,7.866554199994425,5.574832600002992,4.341581900007441,1.13858,-0.0623417194807379,-0.1340346968835865,,,,,,,,,,,p7_base_01,001,2023-05-03_10h08.48.657,expectation_shapes_perceived_time,2022.2.4,119.52143617105114,
,,,,,,,,,,,,,1,0,1,0,testSingleStim,,,,,,red,1.8033164915399154,1.8,0.0045919999975012615,0.9976159999932861,3.5200006095692515e-05,4e-05,0.033271499996772036,1.7997892999992473,1.8330586000083713,1.9997852000087732,2.033372200006852,2.2915055000048596,2.2915055000048596,2.5911522999958834,4.15850620000856,1.8670007000037003,None,,6.291335800007801,3.999830300002941,2.1328295999992406,1.0979,-0.0447522092316575,-0.140886584618181,,,,,,,,,,,p7_base_01,001,2023-05-03_10h08.48.657,expectation_shapes_perceived_time,2022.2.4,119.52143617105114,
,,,,,,,,,,,,,2,0,2,0,testSingleStim,,,,,,red,1.8450860360858072,1.8416666666666666,0.004591299992171116,0.9979565999965416,3.4500000765547156e-05,3e-05,0.03303040000901092,1.8415111000067554,1.8750405000027968,1.9999002999975346,2.0332339000015054,2.291453600002569,2.291453600002569,2.5915937000099802,4.42473830000381,2.1332847000012407,None,,8.541333300003316,6.249879700000747,4.116594999999506,1.5,-0.14782350948509485,0.0,,,,,,,,,,,p7_base_01,001,2023-05-03_10h08.48.657,expectation_shapes_perceived_time,2022.2.4,119.52143617105114,
,,,,,,,,,,,,,3,0,3,0,testSingleStim,,,,,,green,0.7019580393136349,0.7,0.004561299996566959,0.9977857000048971,6.999999459367245e-05,7e-05,0.033300499999313615,0.6996224999893457,0.7329229999886593,2.000161099989782,2.0333012999908533,2.291804199994658,2.291804199994658,2.591604599991115,3.2249167999980273,0.9331126000033692,None,,4.96649669999897,2.674692500004312,1.7415799000009429,0.57273,0.14398128482358716,-0.03348401972641562,,,,,,,,,,,p7_base_01,001,2023-05-03_10h08.48.657,expectation_shapes_perceived_time,2022.2.4,119.52143617105114,
,,,,,,,,,,,,,4,0,4,0,testSingleStim,,,,,,red,1.4142699866675827,1.4083333333333332,0.0045115000102669,0.9974993000068935,1.5300000086426735e-05,2e-05,0.03334680000261869,1.4088489999994636,1.441975800000364,2.000390300003346,2.0337577000027522,2.2920684999990044,2.2920684999990044,2.5921441999962553,2.4669752000045264,0.174906700005522,None,,3.7751930999947945,1.48312459999579,1.308217899990268,1.54721,-0.14620034538265209,0.021846028620396283,,,,,,,,,,,p7_base_01,001,2023-05-03_10h08.48.657,expectation_shapes_perceived_time,2022.2.4,119.52143617105114,
,,,,,,,,,,,,,5,0,5,0,testSingleStim,,,,,,red,0.5067600258943907,0.5083333333333333,0.0045916999952169135,0.9977369999978691,5.9300000430084765e-05,6e-05,,0.5080034999991767,0.5413569000083953,2.0001590000028955,,2.2922228000097675,2.2922228000097675,2.5916718000080436,2.2922228000097675,0.0,None,,4.166719200002262,1.8744963999924948,1.8744963999924948,0.51645,0.1476261628740219,-0.00763583601072527,,,,,,,,,,,p7_base_01,001,2023-05-03_10h08.48.657,expectation_shapes_perceived_time,2022.2.4,119.52143617105114,
,,,,,,,,,,,,,6,0,6,0,testSingleStim,,,,,,red,1.3398620719134378,1.3333333333333333,0.0043938999879173934,0.9973169000004418,2.920000406447798e-05,3e-05,0.03330130000540521,1.3336615000007441,1.3668109999998705,2.0001431000127923,2.0336236000002827,2.2919822000112617,2.2919822000112617,2.592097600005218,3.008447600004729,0.7164653999934671,None,,4.791727800009539,2.4997455999982776,1.7832802000048105,1.45047,-0.14603773147956034,-0.02290787944777417,,,,,,,,,,,p7_base_01,001,2023-05-03_10h08.48.657,expectation_shapes_perceived_time,2022.2.4,119.52143617105114,
,,,,,,,,,,,,,7,0,7,0,testSingleStim,,,,,,red,1.552578087537412,1.55,0.005158500003744848,0.9976596000051359,8.410000009462237e-05,8e-05,0.033144900007755496,1.5498253999976441,1.5833558000013,1.9999323000083677,2.03322979999939,2.291525199994794,2.291525199994794,2.5915376000048127,2.708191400000942,0.41666620000614785,None,,4.266084899994894,1.9745597000000998,1.557893499993952,1.13168,-0.059423581748173956,-0.13535371398195178,,,,,,,,,,,p7_base_01,001,2023-05-03_10h08.48.657,expectation_shapes_perceived_time,2022.2.4,119.52143617105114,
,,,,,,,,,,,,,8,0,8,0,testSingleStim,,,,,,red,1.1947359474331074,1.1916666666666667,0.0027735999901778996,0.998112699991907,6.050000956747681e-05,6e-05,0.033271799999056384,1.1917118999990635,1.2248858000093605,1.9999241000041366,2.033145900000818,2.291500899998937,2.291500899998937,2.591615700002876,3.241479000003892,0.9499781000049552,None,,4.291372700012289,1.9998718000133522,1.049893700008397,1.17703,-0.07804107456171858,-0.12554433733841683,,,,,,,,,,,p7_base_01,001,2023-05-03_10h08.48.657,expectation_shapes_perceived_time,2022.2.4,119.52143617105114,
,,,,,,,,,,,,,9,0,9,0,testSingleStim,,,,,,red,1.6249682902820226,1.6166666666666667,0.005168000003322959,0.9982881000032648,0.000142400007462129,0.00014,0.03297430000384338,1.6164923000033014,1.649898800009396,1.9997797999967588,2.033058200002415,2.2913858000101754,2.2913858000101754,2.5923813999979757,3.1095893000019714,0.818203499991796,None,,4.015851400006795,1.7244655999966199,0.9062621000048239,1.4914,-0.14776954945063225,-0.003993771606773845,,,,,,,,,,,p7_base_01,001,2023-05-03_10h08.48.657,expectation_shapes_perceived_time,2022.2.4,119.52143617105114,
,,,,,,,,,,,,,10,0,10,0,testSingleStim,,,,,,green,0.7986856903219728,0.7916666666666666,0.005421599998953752,0.9976018000015756,4.650000482797623e-05,5e-05,0.03330100000312086,0.791750200005481,0.8248191000020597,1.9998479000059888,2.0332000000053085,2.291691100006574,2.291691100006574,2.5914748000068357,2.5499068000062834,0.2582156999997096,None,,4.0333450000034645,1.7416538999968907,1.483438199997181,1.66525,-0.12834674835520357,0.07334099906011632,,,,,,,,,,,p7_base_01,001,2023-05-03_10h08.48.657,expectation_shapes_perceived_time,2022.2.4,119.52143617105114,
,,,,,,,,,,,,,11,0,11,0,testSingleStim,,,,,,red,0.8137143880715564,0.8083333333333333,0.0037409999931696802,0.9977553999924567,5.4899996030144393e-05,5e-05,0.0333225000067614,0.8082589999976335,0.8414656999957515,2.0000113999994937,2.03320010000607,2.2915983999992022,2.2915983999992022,2.5914920000068378,2.2915983999992022,0.0,None,,3.466251799996826,1.1746533999976236,1.1746533999976236,0.60735,0.13949618754663645,-0.04891424758128811,,,,,,,,,,,p7_base_01,001,2023-05-03_10h08.48.657,expectation_shapes_perceived_time,2022.2.4,119.52143617105114,
,,,,,,,,,,,,,12,0,12,0,testSingleStim,,,,,,green,1.0412944198613228,1.0333333333333332,0.004476400004932657,0.9984866000013426,5.8600009651854634e-05,6e-05,0.03297569999995176,1.032927499996731,1.066488099997514,1.9995838000031654,2.0330188000079943,2.2913754000037443,2.2913754000037443,2.591149600004428,2.2913754000037443,0.0,None,,3.5328599000058603,1.241484500002116,1.241484500002116,1.22161,-0.09480071474002708,-0.1134222837068181,,,,,,,,,,,p7_base_01,001,2023-05-03_10h08.48.657,expectation_shapes_perceived_time,2022.2.4,119.52143617105114,
,,,,,,,,,,,,,13,0,13,0,testSingleStim,,,,,,red,1.80893437078635,1.8,0.004526000004261732,0.9980194999952801,6.720000237692147e-05,7e-05,0.033043400006135926,1.7999301000090782,1.8332891000027303,1.999909900012426,2.0332485000108136,2.291351100007887,2.291351100007887,2.59153000000515,2.291351100007887,0.0,None,,4.249881499999901,1.9585303999920143,1.9585303999920143,1.43208,-0.1444713364597539,-0.03130212289961335,,,,,,,,,,,p7_base_01,001,2023-05-03_10h08.48.657,expectation_shapes_perceived_time,2022.2.4,119.52143617105114,
,,,,,,,,,,,,,14,0,14,0,testSingleStim,,,,,,red,1.5242228213791071,1.5166666666666666,0.004760499999974854,0.9973450999968918,6.370000483002514e-05,6e-05,0.033259799994993955,1.5167959999962477,1.5501422999950591,2.000030600000173,2.033389599993825,2.291704999996,2.291704999996,2.5915408000000753,2.8747830000065733,0.5830780000105733,None,,3.5915062999993097,1.2998013000033097,0.7167232999927364,1.71662,-0.1148950645172693,0.09301029032350372,,,,,,,,,,,p7_base_01,001,2023-05-03_10h08.48.657,expectation_shapes_perceived_time,2022.2.4,119.52143617105114,
,,,,,,,,,,,,,15,0,15,0,testSingleStim,,,,,,green,0.8907871963927826,0.8833333333333333,0.004364599997643381,0.9974155000090832,1.5400000847876072e-05,2e-05,0.03334380000887904,0.883562900009565,0.9170977000030689,2.0003139000036754,,2.2919420000107493,2.2919420000107493,2.5926070000132313,2.3087458000081824,0.01680379999743309,None,,3.5253743000066606,1.2334322999959113,1.2166284999984782,0.59641,0.14109458008639433,-0.044092056276998234,,,,,,,,,,,p7_base_01,001,2023-05-03_10h08.48.657,expectation_shapes_perceived_time,2022.2.4,119.52143617105114,
,,,,,,,,,,,,,16,0,16,0,testSingleStim,,,,,,red,1.5119104028460182,1.5083333333333333,0.004792699997778982,0.9959491000045091,4.8300003982149065e-05,5e-05,0.03307360000326298,1.5090105999988737,1.5421846999961417,2.000461899995571,2.0336051000049338,2.291998999993666,2.291998999993666,2.610826000003726,2.291998999993666,0.0,None,,3.4219558000040706,1.1299568000104045,1.1299568000104045,1.5293,-0.14719772512075438,0.013587482318838866,,,,,,,,,,,p7_base_01,001,2023-05-03_10h08.48.657,expectation_shapes_perceived_time,2022.2.4,119.52143617105114,
,,,,,,,,,,,,,17,0,17,0,testSingleStim,,,,,,green,1.8487148602531989,1.8416666666666666,0.004760099996929057,0.9923244999954477,6.059999577701092e-05,6e-05,,1.8417342999891844,1.8751939999929164,2.0002883999986807,,2.2917910999967717,2.2917910999967717,2.5918069999897853,2.2917910999967717,0.0,None,,3.908256099995924,1.6164649999991525,1.6164649999991525,0.65458,0.13073285790094727,-0.06899789722549995,,,,,,,,,,,p7_base_01,001,2023-05-03_10h08.48.657,expectation_shapes_perceived_time,2022.2.4,119.52143617105114,
,,,,,,,,,,,,,18,0,18,0,testSingleStim,,,,,,green,1.8391624906063513,1.8333333333333333,0.004985599996871315,0.996227399999043,3.409999771974981e-05,3e-05,0.033310400001937523,1.833347199994023,1.8665605999995023,2.0000397999974666,2.033260299998801,2.2920331000059377,2.2920331000059377,2.6534131999942474,2.3635868999990635,0.07155379999312572,None,,3.710959500007448,1.41892640000151,1.3473726000083843,1.32325,-0.1256147584676387,-0.07792767423455363,,,,,,,,,,,p7_base_01,001,2023-05-03_10h08.48.657,expectation_shapes_perceived_time,2022.2.4,119.52143617105114,
,,,,,,,,,,,,,19,0,19,0,testSingleStim,,,,,,green,1.780071271836462,1.775,0.004815099993720651,0.9939444000046933,3.770001058001071e-05,4e-05,0.03315570000268053,1.774677100009285,1.8081147000048077,1.9997451000090223,2.03310380000039,2.291419900007895,2.291419900007895,2.5914053000014974,2.4832278000103543,0.19180790000245906,None,,3.3169191000051796,1.0254991999972844,0.8336912999948254,1.63143,-0.1353999799668273,0.05931808646165767,,,,,,,,,,,p7_base_01,001,2023-05-03_10h08.48.657,expectation_shapes_perceived_time,2022.2.4,119.52143617105114,
,,,,,,,,,,,,,20,0,20,0,testSingleStim,,,,,,red,0.6594657564619308,0.6583333333333333,0.004688999993959442,0.9971603000012692,4.4199987314641476e-05,4e-05,0.03342809999594465,0.6583551999938209,0.6919405999942683,1.9996009999886155,2.032981899988954,2.2912554999929853,2.2912554999929853,2.591540099994745,2.2912554999929853,0.0,None,,3.4164683999988483,1.125212900005863,1.125212900005863,0.74021,0.10769225502215703,-0.10126286666262525,,,,,,,,,,,p7_base_01,001,2023-05-03_10h08.48.657,expectation_shapes_perceived_time,2022.2.4,119.52143617105114,
,,,,,,,,,,,,,21,0,21,0,testSingleStim,,,,,,red,0.7130345573545636,0.7083333333333334,0.004536799999186769,0.997945900002378,3.480000304989517e-05,3e-05,,0.7086112999968464,0.7419336000020849,2.000000899992301,,2.358114000002388,2.358114000002388,2.657835399993928,2.3747614000021713,0.016647399999783374,None,,2.9999042999988887,0.6417902999965008,0.6251428999967175,0.81778,0.08007619224428283,-0.1242561603790596,,,,,,,,,,,p7_base_01,001,2023-05-03_10h08.48.657,expectation_shapes_perceived_time,2022.2.4,119.52143617105114,
,,,,,,,,,,,,,22,0,22,0,testSingleStim,,,,,,green,0.1782122075777422,0.175,0.003723600006196648,0.997844299999997,3.29999893438071e-05,3e-05,,0.17513319999852683,0.20844109999598004,1.9999976999970386,,2.291563999999198,2.291563999999198,2.5915269999968586,2.291563999999198,0.0,None,,3.4663166999962414,1.1747526999970432,1.1747526999970432,1.18537,-0.08130153616949161,-0.12345788825737614,,,,,,,,,,,p7_base_01,001,2023-05-03_10h08.48.657,expectation_shapes_perceived_time,2022.2.4,119.52143617105114,
,,,,,,,,,,,,,23,0,23,0,testSingleStim,,,,,,green,0.6678293059387045,0.6666666666666666,0.0027860999980475754,0.9989957000070717,5.499999679159373e-05,5e-05,0.033464899999671616,0.6668512999895029,0.6997843999997713,1.9999510999914492,2.033233799986192,2.2914804999891203,2.2914804999891203,2.591665499989176,2.2914804999891203,0.0,None,,3.433223199986969,1.1417426999978488,1.1417426999978488,0.85934,0.06321945593312513,-0.1336229409495599,,,,,,,,,,,p7_base_01,001,2023-05-03_10h08.48.657,expectation_shapes_perceived_time,2022.2.4,119.52143617105114,
,,,,,,,,,,,,,24,0,24,0,testSingleStim,,,,,,green,0.7465071263678944,0.7416666666666667,0.004671700007747859,0.9955509999999776,1.930000144056976e-05,2e-05,,0.7416512000054354,0.775021099994774,2.0003433999954723,,2.291815000004135,2.291815000004135,2.591761999996379,2.291815000004135,0.0,None,,3.3582790000073146,1.0664640000031795,1.0664640000031795,0.8238,0.07771028044395686,-0.1257493629002211,,,,,,,,,,,p7_base_01,001,2023-05-03_10h08.48.657,expectation_shapes_perceived_time,2022.2.4,119.52143617105114,
,,,,,,,,,,,,,25,0,25,0,testSingleStim,,,,,,red,1.0281498184437865,1.025,0.004458299998077564,0.997610699996585,3.5899996873922646e-05,4e-05,0.033295400004135445,1.0250671999965562,1.0585059000004549,1.999910099999397,2.0334062000038102,2.2916544000036083,2.2916544000036083,2.5918057999951998,2.2916544000036083,0.0,None,,3.866719199999352,1.5750647999957437,1.5750647999957437,1.33663,-0.12877677686019423,-0.07258327423029129,,,,,,,,,,,p7_base_01,001,2023-05-03_10h08.48.657,expectation_shapes_perceived_time,2022.2.4,119.52143617105114,
,,,,,,,,,,,,,26,0,26,0,testSingleStim,,,,,,green,0.3305119047963283,0.3333333333333333,0.004962299994076602,0.9961035999876913,5.019998934585601e-05,5e-05,0.0331984999938868,0.3332467000000179,0.36657309999282006,2.0000311999901896,2.0335555999918142,2.29175769998983,2.29175769998983,2.591486099991016,2.7081617999938317,0.4164041000040015,None,,3.458104099991033,1.1663464000012027,0.7499422999972012,1.42055,-0.14324312935411232,-0.03651295454124432,,,,,,,,,,,p7_base_01,001,2023-05-03_10h08.48.657,expectation_shapes_perceived_time,2022.2.4,119.52143617105114,
,,,,,,,,,,,,,27,0,27,0,testSingleStim,,,,,,green,0.9736883204776579,0.9666666666666667,0.004905599998892285,0.9974619999993593,5.950000195298344e-05,6e-05,0.03314030000183266,0.9663007000053767,0.9996335000032559,2.0000180000060936,2.0333076000097208,2.291416600011871,2.291416600011871,2.5914049000130035,2.291416600011871,0.0,None,,4.416317900002468,2.124901299990597,2.124901299990597,1.06157,-0.028415141807852633,-0.1450667765979845,,,,,,,,,,,p7_base_01,001,2023-05-03_10h08.48.657,expectation_shapes_perceived_time,2022.2.4,119.52143617105114,
,,,,,,,,,,,,,28,0,28,0,testSingleStim,,,,,,green,0.30909998919730425,0.30833333333333335,0.004423199992743321,0.9976915000006557,3.429999924264848e-05,3e-05,,0.30832579999696463,0.3416348999890033,2.0002958999975817,,2.291847799991956,2.291847799991956,2.5916144999937387,2.291847799991956,0.0,None,,3.225105599995004,0.933257800003048,0.933257800003048,0.2535,0.10566927436135456,0.10337211622306423,,,,,,,,,,,p7_base_01,001,2023-05-03_10h08.48.657,expectation_shapes_perceived_time,2022.2.4,119.52143617105114,
,,,,,,,,,,,,,29,0,29,0,testSingleStim,,,,,,green,1.3263100061009907,1.325,0.004858300002524629,0.9957253000029596,4.25000034738332e-05,4e-05,0.033210000008693896,1.3248700999974972,1.3582539000053657,1.9998904000094626,2.0332024000090314,2.291569100008928,2.291569100008928,2.5915079999977024,2.291569100008928,0.0,None,,3.3414175000070827,1.0498483999981545,1.0498483999981545,1.35601,-0.13295449752102614,-0.06461340066442392,,,,,,,,,,,p7_base_01,001,2023-05-03_10h08.48.657,expectation_shapes_perceived_time,2022.2.4,119.52143617105114,
,,,,,,,,,,,,,30,0,30,0,testSingleStim,,,,,,green,0.5161056072227259,0.5166666666666666,0.004280900000594556,0.997550100000808,5.900001269765198e-05,6e-05,0.03303740000410471,0.5163612000033027,0.549906700005522,1.9994458000001032,2.0327993000100832,2.291120200010482,2.291120200010482,2.5913626000110526,2.291120200010482,0.0,None,,3.42465150001226,1.1335313000017777,1.1335313000017777,0.6701,0.12721346543608486,-0.07528960199278492,,,,,,,,,,,p7_base_01,001,2023-05-03_10h08.48.657,expectation_shapes_perceived_time,2022.2.4,119.52143617105114,
,,,,,,,,,,,,,31,0,31,0,testSingleStim,,,,,,red,0.5399576140416925,0.5416666666666666,0.004531899990979582,0.997987099995953,5.819999205414206e-05,6e-05,0.03310139999666717,0.5413591999968048,0.5748289999901317,1.999842399993213,,2.291469899995718,2.291469899995718,2.5910449999937555,2.741009799996391,0.4495399000006728,None,,3.4080606999923475,1.1165907999966294,0.6670508999959566,1.6804,-0.12471300193397641,0.07936281941253043,,,,,,,,,,,p7_base_01,001,2023-05-03_10h08.48.657,expectation_shapes_perceived_time,2022.2.4,119.52143617105114,
,,,,,,,,,,,,,32,0,32,0,testSingleStim,,,,,,red,0.9859041541640855,0.9833333333333333,0.004586099996231496,0.9971247999928892,6.329998723231256e-05,6e-05,,0.9832537999900524,1.0166246999870054,2.0000168999977177,,2.2918357999878936,2.2918357999878936,2.59156559999974,2.2918357999878936,0.0,None,,3.0247122000000672,0.7328764000121737,0.7328764000121737,1.40487,-0.14127117163821262,-0.043522936716823085,,,,,,,,,,,p7_base_01,001,2023-05-03_10h08.48.657,expectation_shapes_perceived_time,2022.2.4,119.52143617105114,
,,,,,,,,,,,,,33,0,33,0,testSingleStim,,,,,,green,0.2895099101636124,0.2916666666666667,0.002973700000438839,0.998003400003654,3.070000093430281e-05,3e-05,0.033284199991612695,0.29145319999952335,0.32481979999283794,1.9999165999906836,2.0335421999916434,2.291690899990499,2.291690899990499,2.5914802999905078,2.291690899990499,0.0,None,,6.6605009999912,4.368810100000701,4.368810100000701,0.77646,0.09548544905819836,-0.1128464397960526,,,,,,,,,,,p7_base_01,001,2023-05-03_10h08.48.657,expectation_shapes_perceived_time,2022.2.4,119.52143617105114,
,,,,,,,,,,,,,34,0,34,0,testSingleStim,,,,,,green,0.5005644077030236,0.5,0.0028661999967880547,0.9989222000003792,5.5199998314492404e-05,6e-05,0.03397740000218619,0.5089301999978488,0.5422593999974197,2.0071759999991627,2.040772399996058,2.3088865000027,2.3088865000027,3.7858866000024136,2.3088865000027,0.0,None,,4.757177100007539,2.448290600004839,2.448290600004839,1.42734,-0.1439887436991443,-0.033451930354346654,,,,,,,,,,,p7_base_01,001,2023-05-03_10h08.48.657,expectation_shapes_perceived_time,2022.2.4,119.52143617105114,
,,,,,,,,,,,,,35,0,35,0,testSingleStim,,,,,,red,1.4342447997299472,1.425,0.004747600003611296,0.9974088000017218,6.380000559147447e-05,6e-05,0.03333109999948647,1.4337822000088636,1.467255200012005,2.000394900009269,2.03386500000488,2.300667200004682,2.300667200004682,2.6003547000000253,2.7244737000000896,0.42380649999540765,None,,3.458492700010538,1.1578255000058562,0.7340190000104485,1.38868,-0.13887579696304414,-0.050648820068874924,,,,,,,,,,,p7_base_01,001,2023-05-03_10h08.48.657,expectation_shapes_perceived_time,2022.2.4,119.52143617105114,
,,,,,,,,,,,,,36,0,36,0,testSingleStim,,,,,,green,1.5604503921799278,1.5583333333333333,0.004457000002730638,0.9976848000078462,5.160000000614673e-05,5e-05,0.03335440000228118,1.5579912999965018,1.5913488999940455,1.9997561999916798,2.033054200001061,2.2914617999922484,2.2914617999922484,2.591830499994103,2.672226499998942,0.3807647000066936,None,,3.670276399992872,1.3788146000006236,0.99804989999393,0.64635,0.13247359574324505,-0.06559372216413104,,,,,,,,,,,p7_base_01,001,2023-05-03_10h08.48.657,expectation_shapes_perceived_time,2022.2.4,119.52143617105114,
,,,,,,,,,,,,,37,0,37,0,testSingleStim,,,,,,green,0.5223989041391749,0.5166666666666666,0.005293599999276921,0.9942795999959344,3.789999755099416e-05,4e-05,,0.5165277000050992,0.5496931999950903,1.9994520000036573,,2.2937042999983532,2.2937042999983532,2.5916030000080355,2.3270288000057917,0.03332450000743847,None,,4.224605299998075,1.9309009999997215,1.897576499992283,1.16189,-0.07198338682010089,-0.12911305889954605,,,,,,,,,,,p7_base_01,001,2023-05-03_10h08.48.657,expectation_shapes_perceived_time,2022.2.4,119.52143617105114,
,,,,,,,,,,,,,38,0,38,0,testSingleStim,,,,,,red,0.953148797406542,0.95,0.004720800003269687,0.9976640000095358,3.670000296551734e-05,4e-05,0.033402200002456084,0.9499433000019053,0.983272700002999,1.9996707999962382,2.0333398999937344,2.291899400006514,2.291899400006514,2.5917404999927385,2.316765299998224,0.02486589999170974,None,,3.7750604000029853,1.4831609999964712,1.4582951000047615,1.54985,-0.14601458807434703,0.023054934959107428,,,,,,,,,,,p7_base_01,001,2023-05-03_10h08.48.657,expectation_shapes_perceived_time,2022.2.4,119.52143617105114,
,,,,,,,,,,,,,39,0,39,0,testSingleStim,,,,,,green,1.5082822508858496,1.5,0.0043634000030579045,0.9977373000001535,3.429999924264848e-05,3e-05,,1.499670999997761,1.5329827000095975,1.999465600005351,,2.2915745000063907,2.2915745000063907,2.5915259000030346,2.374827699997695,0.08325319999130443,None,,3.5582242000091355,1.2666497000027448,1.1833965000114404,1.33475,-0.12834674835520357,-0.07334099906011632,,,,,,,,,,,p7_base_01,001,2023-05-03_10h08.48.657,expectation_shapes_perceived_time,2022.2.4,119.52143617105114,
,,,,,,,,,0,0,0,0,0,-1,-1,0,fam,0.5734835000039311,0.5734835000039311,270.0000000000009,2.5651582999998936,2.5651582999998936,,,,,,,,,,,,,,,,,,,,,,,,,,,,,,,,,,,,p7_base_01,001,2023-05-03_10h08.48.657,expectation_shapes_perceived_time,2022.2.4,119.52143617105114,
,,,,,,,,,1,0,1,0,0,-1,-1,0,fam,0.49743380000290927,0.49743380000290927,270.0000000000009,2.489217700000154,2.489217700000154,,,,,,,,,,,,,,,,,,,,,,,,,,,,,,,,,,,,p7_base_01,001,2023-05-03_10h08.48.657,expectation_shapes_perceived_time,2022.2.4,119.52143617105114,
,,,,,,,,,2,0,2,0,0,-1,-1,0,fam,0.4986572000052547,0.4986572000052547,270.0000000000009,2.4905435999971814,2.4905435999971814,,,,,,,,,,,,,,,,,,,,,,,,,,,,,,,,,,,,p7_base_01,001,2023-05-03_10h08.48.657,expectation_shapes_perceived_time,2022.2.4,119.52143617105114,
,,,,,,,,,3,0,3,0,0,-1,-1,0,fam,0.49726650000957306,0.49726650000957306,270.0000000000009,2.489110900001833,2.489110900001833,,,,,,,,,,,,,,,,,,,,,,,,,,,,,,,,,,,,p7_base_01,001,2023-05-03_10h08.48.657,expectation_shapes_perceived_time,2022.2.4,119.52143617105114,
1,500,0.5,none,33,green,red,no_Expectation,,,,,,0,0,0,7,train_doubleStim,,,,,,green,0.9900005659907,0.9833333333333333,2.291683000003104,0.9980404000089038,3e-05,3e-05,,0.9830235000117682,1.0163105000101496,1.9999829000007594,,2.291683000003104,2.291683000003104,2.491839300011634,3.108504800009541,0.8168218000064371,None,,4.731674200011184,2.4399912000080803,1.6231694000016432,1.27151,-0.11134562088330739,-0.09723138725021208,,,,0.5,0.5,1.5233305659907002,1.5166666666666666,training_double_stim.csv,1.5166568999993615,1.5501338000030955,p7_base_01,001,2023-05-03_10h08.48.657,expectation_shapes_perceived_time,2022.2.4,119.52143617105114,
1,-500,0.5,none,23,green,red,no_Expectation,,,,,,0,1,1,2,train_doubleStim,,,,,,green,1.0691767504174234,1.0666666666666667,2.291772700002184,0.9986908999999287,6e-05,6e-05,0.03311,1.0668797000107588,1.1001501000137068,2.000270000004093,2.0336099000123795,2.291772700002184,2.291772700002184,2.491628000003402,3.2751396000094246,0.9833669000072405,None,,4.283463900006609,1.991691200004425,1.0083242999971844,0.43717,0.14495287681389743,0.028990575362779485,,,,-0.5,-0.5,0.5358467504174234,0.5333333333333333,training_double_stim.csv,0.53350180000416,0.566860800012364,p7_base_01,001,2023-05-03_10h08.48.657,expectation_shapes_perceived_time,2022.2.4,119.52143617105114,
1,500,0.5,none,88,red,green,no_Expectation,,,,,,0,2,2,9,train_doubleStim,,,,,,red,0.5957497240901997,0.5916666666666667,2.292125499996473,0.9947613000113051,3e-05,3e-05,0.03333,0.5923540000076173,0.6257534000033047,2.0004856000014115,2.0340425000031246,2.292125499996473,2.292125499996473,2.4924242999986745,2.292125499996473,0.0,None,,4.008703200001037,1.7165777000045637,1.7165777000045637,1.3642,-0.13457356761610573,-0.06116980346186625,,,,0.5,0.5,1.1290797240901995,1.125,training_double_stim.csv,1.1254617000086,1.1588162999978522,p7_base_01,001,2023-05-03_10h08.48.657,expectation_shapes_perceived_time,2022.2.4,119.52143617105114,
1,-500,0.5,none,68,red,green,no_Expectation,,,,,,0,3,3,3,train_doubleStim,,,,,,red,1.6013855743426157,1.5916666666666666,2.2920617000054335,0.9974861000082456,2e-05,2e-05,0.03328,1.5920991000020877,1.6253110999969067,2.000242900001467,2.0335109000006923,2.2920617000054335,2.2920617000054335,2.4922112000058405,2.525371299998369,0.23330959999293555,None,,4.82494360000419,2.532881899998756,2.2995723000058206,1.84774,-0.0680456987259657,0.13123099040007674,,,,-0.5,-0.5,1.0680555743426157,1.0666666666666667,training_double_stim.csv,1.0670536999969045,1.1004743999947095,p7_base_01,001,2023-05-03_10h08.48.657,expectation_shapes_perceived_time,2022.2.4,119.52143617105114,
1,-500,0.5,none,77,green,red,no_Expectation,,,,,,0,4,4,1,train_doubleStim,,,,,,green,0.8824842297788216,0.875,2.291332399996463,0.9989245999895502,5e-05,5e-05,,0.8747547999955714,0.9081021000019973,1.9997107999952277,,2.291332399996463,2.291332399996463,2.49127579999913,2.60819420000189,0.31686180000542663,None,,3.899434699997073,1.6081023000006098,1.2912404999951832,1.20397,-0.08837242395574543,-0.11849938666793139,,,,-0.5,-0.5,0.3491542297788216,0.35,training_double_stim.csv,0.34963969999807887,0.3828572000056738,p7_base_01,001,2023-05-03_10h08.48.657,expectation_shapes_perceived_time,2022.2.4,119.52143617105114,
1,500,0.5,none,60,red,green,no_Expectation,,,,,,0,5,5,8,train_doubleStim,,,,,,red,1.2456126312437912,1.2416666666666667,2.291627900005551,0.9985878000006778,3e-05,3e-05,,1.2416819000063697,1.2749975000042468,1.9998554000048898,,2.291627900005551,2.291627900005551,2.4953222000040114,2.3748411999986274,0.08321329999307636,None,,3.258364299996174,0.9667363999906229,0.8835230999975465,1.77247,-0.09689429852098964,0.11163908307853154,,,,0.5,0.5,1.778942631243791,1.775,training_double_stim.csv,1.7748352000053274,1.8084304000076372,p7_base_01,001,2023-05-03_10h08.48.657,expectation_shapes_perceived_time,2022.2.4,119.52143617105114,
1,500,0.5,none,98,red,green,no_Expectation,,,,,,0,6,6,5,train_doubleStim,,,,,,red,0.2795001101471104,0.275,2.2921203000005335,0.9941798000072595,3e-05,3e-05,0.03331,0.27534039999591187,0.30872240000462625,2.000290700001642,2.0338551000022562,2.2921203000005335,2.2921203000005335,2.4919185000035213,2.950398100001621,0.6582778000010876,None,,3.7920389999926556,1.4999186999921221,0.8416408999910345,1.06031,-0.02784231888023016,-0.14517780558977156,,,,0.5,0.5,0.8128301101471104,0.8083333333333333,training_double_stim.csv,0.8088681999943219,0.8420430999976816,p7_base_01,001,2023-05-03_10h08.48.657,expectation_shapes_perceived_time,2022.2.4,119.52143617105114,
1,-500,0.5,none,59,green,red,no_Expectation,,,,,,0,7,7,0,train_doubleStim,,,,,,green,0.6992686242467131,0.7,2.2918592000060016,0.9973115999891888,3e-05,3e-05,,0.7003292000008514,0.7337770000012824,2.0004898000042886,,2.2918592000060016,2.2918592000060016,2.491871899997932,2.2918592000060016,0.0,None,,3.4420939999981783,1.1502347999921767,1.1502347999921767,0.44689,0.14577052825742826,0.024550825811777387,,,,-0.5,-0.5,0.16593862424671313,0.16666666666666666,training_double_stim.csv,0.1666747999988729,0.19996209999953862,p7_base_01,001,2023-05-03_10h08.48.657,expectation_shapes_perceived_time,2022.2.4,119.52143617105114,
1,-500,0.5,none,46,red,green,no_Expectation,,,,,,0,8,8,4,train_doubleStim,,,,,,red,1.7794012819927028,1.775,2.2917858000000706,0.9958740000001853,3e-05,3e-05,,1.7748305999994045,1.8081555999960983,1.9999936999956844,,2.2917858000000706,2.2917858000000706,2.491438400000334,2.3248905000073137,0.03310470000724308,None,,3.2499174999975367,0.9581316999974661,0.925026999990223,1.35578,-0.13290948781343928,-0.0647059348565428,,,,-0.5,-0.5,1.2460712819927027,1.2416666666666667,training_double_stim.csv,1.241617599996971,1.275137699994957,p7_base_01,001,2023-05-03_10h08.48.657,expectation_shapes_perceived_time,2022.2.4,119.52143617105114,
1,500,0.5,none,25,green,red,no_Expectation,,,,,,0,9,9,6,train_doubleStim,,,,,,green,0.8257769073422929,0.825,2.2918115999927977,0.9975893999944674,8e-05,8e-05,,0.8248617999925045,0.8582923999929335,2.0000972999987425,,2.2918115999927977,2.2918115999927977,2.4914558000018587,2.949721800003317,0.6579102000105195,None,,4.174807899995358,1.88299630000256,1.2250860999920405,1.40831,-0.1417329019082393,-0.041994933898737576,,,,0.5,0.5,1.3591069073422928,1.35,training_double_stim.csv,1.3495382999972207,1.3828332999983104,p7_base_01,001,2023-05-03_10h08.48.657,expectation_shapes_perceived_time,2022.2.4,119.52143617105114,
1,-500,0.5,none,59,green,red,no_Expectation,,,,,,1,0,10,0,train_doubleStim,,,,,,green,1.8348624240934694,1.825,2.2915093999909004,0.9958658999967156,9e-05,9e-05,0.03337,1.824773099986487,1.858129199987161,1.999772999988636,2.033177199991769,2.2915093999909004,2.2915093999909004,2.49170129999402,2.958329799992498,0.6668204000015976,None,,4.49971989999176,2.2082105000008596,1.541390099999262,1.18717,-0.08199772971808414,-0.1229965945771262,,,,-0.5,-0.5,1.3015324240934694,1.3,training_double_stim.csv,1.299839699990116,1.3331799999868963,p7_base_01,001,2023-05-03_10h08.48.657,expectation_shapes_perceived_time,2022.2.4,119.52143617105114,
1,-500,0.5,none,68,red,green,no_Expectation,,,,,,1,1,11,3,train_doubleStim,,,,,,red,0.9824286533188337,0.975,2.2916639000031864,0.9977272999967681,6e-05,6e-05,0.03343,0.9746626999985892,1.0081211000069743,2.0001628000027267,2.0333067000028677,2.2916639000031864,2.2916639000031864,2.491768099993351,2.6667790999927092,0.3751151999895228,None,,3.7251388000004226,1.4334748999972362,1.0583597000077134,1.05336,-0.02466558003861543,-0.14575115477363665,,,,-0.5,-0.5,0.4490986533188337,0.45,training_double_stim.csv,0.45001919999776874,0.4833282000035979,p7_base_01,001,2023-05-03_10h08.48.657,expectation_shapes_perceived_time,2022.2.4,119.52143617105114,
1,500,0.5,none,60,red,green,no_Expectation,,,,,,1,2,12,8,train_doubleStim,,,,,,red,1.315787099993677,1.3083333333333333,2.291562200000044,0.9953921999986051,6e-05,6e-05,,1.3077774999983376,1.3410950999968918,2.0005841000092914,,2.291562200000044,2.291562200000044,2.4914244999963557,2.291562200000044,0.0,None,,3.7498710000072606,1.4583088000072166,1.4583088000072166,0.18486,0.08110432068218568,0.12358753627761625,,,,0.5,0.5,1.8491170999936768,1.8416666666666666,training_double_stim.csv,1.8417690000060247,1.8751418000028934,p7_base_01,001,2023-05-03_10h08.48.657,expectation_shapes_perceived_time,2022.2.4,119.52143617105114,
1,-500,0.5,none,23,green,red,no_Expectation,,,,,,1,3,13,2,train_doubleStim,,,,,,green,0.9762658168147695,0.975,2.2913859999971464,0.9978077999985544,6e-05,6e-05,,0.9748827000003075,1.0079942000011215,1.9997879000002285,,2.2913859999971464,2.2913859999971464,2.491480800003046,2.2913859999971464,0.0,None,,3.491485400008969,1.2000994000118226,1.2000994000118226,1.13615,-0.06131879528335595,-0.13450574449252273,,,,-0.5,-0.5,0.44293581681476957,0.44166666666666665,training_double_stim.csv,0.4414534000097774,0.4747405000089202,p7_base_01,001,2023-05-03_10h08.48.657,expectation_shapes_perceived_time,2022.2.4,119.52143617105114,
1,500,0.5,none,88,red,green,no_Expectation,,,,,,1,4,14,9,train_doubleStim,,,,,,red,0.5158708936402397,0.5166666666666666,2.2909664000035264,0.9980004999961238,9e-05,9e-05,0.03311,0.5166000000026543,0.54995100000815,1.9993516999966232,2.0326166000013473,2.2909664000035264,2.2909664000035264,2.491473500005668,2.8250721000076737,0.5341057000041474,None,,3.7745507000072394,1.483584300003713,0.9494785999995656,1.82219,-0.07834630333465029,0.12535408533544046,,,,0.5,0.5,1.0492008936402397,1.0416666666666667,training_double_stim.csv,1.041551400005119,1.0747531000088202,p7_base_01,001,2023-05-03_10h08.48.657,expectation_shapes_perceived_time,2022.2.4,119.52143617105114,
1,-500,0.5,none,46,red,green,no_Expectation,,,,,,1,5,15,4,train_doubleStim,,,,,,red,1.7725128112941337,1.7666666666666666,2.291211599993403,0.9979359999997541,4e-05,4e-05,0.03314,1.7667351999989478,1.7998619999998482,1.9995699999999488,2.032922899990808,2.291211599993403,2.291211599993403,2.491510299994843,2.950176999991527,0.6589653999981238,None,,3.9083149999933084,1.6171033999999054,0.9581380000017816,0.86967,0.05884752180799825,-0.13560515894886555,,,,-0.5,-0.5,1.2391828112941339,1.2333333333333334,training_double_stim.csv,1.2334155999997165,1.2665717999916524,p7_base_01,001,2023-05-03_10h08.48.657,expectation_shapes_perceived_time,2022.2.4,119.52143617105114,
1,500,0.5,none,33,green,red,no_Expectation,,,,,,1,6,16,7,train_doubleStim,,,,,,green,0.836934641053028,0.8333333333333334,2.291205899993656,0.9963565000070957,7e-05,7e-05,0.03305,0.8328762999881292,0.8662664000003133,1.9995627999887802,2.0328971999988426,2.291205899993656,2.291205899993656,2.491260999988299,2.4078180999931647,0.11661219999950845,None,,3.874528399988776,1.5833224999951199,1.4667102999956114,1.57666,-0.14355679412827432,0.035259563470102465,,,,0.5,0.5,1.370264641053028,1.3666666666666667,training_double_stim.csv,1.3663846999988891,1.3996965999976965,p7_base_01,001,2023-05-03_10h08.48.657,expectation_shapes_perceived_time,2022.2.4,119.52143617105114,
1,500,0.5,none,98,red,green,no_Expectation,,,,,,1,7,17,5,train_doubleStim,,,,,,red,1.1573798334556873,1.15,2.2911246000003302,0.9978838000097312,6e-05,6e-05,,1.1500326999957906,1.183355399989523,1.9998078999924473,,2.2911246000003302,2.2911246000003302,2.491138700002921,2.5744450999918627,0.2833204999915324,None,,3.69972129999951,1.4085966999991797,1.1252762000076473,0.03657,0.016944137913960478,0.1468491952543241,,,,0.5,0.5,1.6907098334556871,1.6833333333333333,training_double_stim.csv,1.6833274999953574,1.7166897999995854,p7_base_01,001,2023-05-03_10h08.48.657,expectation_shapes_perceived_time,2022.2.4,119.52143617105114,
1,-500,0.5,none,77,green,red,no_Expectation,,,,,,1,8,18,1,train_doubleStim,,,,,,green,1.323833240885807,1.3166666666666667,2.2918709000077797,0.9961795999988681,4e-05,4e-05,,1.3166763000044739,1.3500128000014229,2.0003653000021586,2.0333402000105707,2.2918709000077797,2.2918709000077797,2.4916424000111874,2.2918709000077797,0.0,None,,3.625026900001103,1.3331559999933233,1.3331559999933233,1.17252,-0.0762547220227304,-0.12663730621632013,,,,-0.5,-0.5,0.7905032408858068,0.7833333333333333,training_double_stim.csv,0.7835724000033224,0.8169332000106806,p7_base_01,001,2023-05-03_10h08.48.657,expectation_shapes_perceived_time,2022.2.4,119.52143617105114,
1,500,0.5,none,25,green,red,no_Expectation,,,,,,1,9,19,6,train_doubleStim,,,,,,green,0.6672483687633772,0.6666666666666666,2.2915290000091773,0.9977915000054054,3e-05,3e-05,0.03326,0.6666706999967573,0.6999454000033438,1.9999114999955054,2.033213999995496,2.2915290000091773,2.2915290000091773,2.4916789999988396,2.583280899998499,0.29175189998932183,None,,3.350046999999904,1.0585179999907268,0.766766100001405,1.24617,-0.10326015016244294,-0.10577869041030741,,,,0.5,0.5,1.200578368763377,1.1916666666666667,training_double_stim.csv,1.1916235999960918,1.2250854000012623,p7_base_01,001,2023-05-03_10h08.48.657,expectation_shapes_perceived_time,2022.2.4,119.52143617105114,
,,,,,,,,,0,0,0,0,0,-1,-1,0,fam,0.5564025000057882,0.5564025000057882,270.0000000000009,2.5481925000058254,2.5481925000058254,,,,,,,,,,,,,,,,,,,,,,,,,,,,,,,,,,,,p7_base_01,001,2023-05-03_10h08.48.657,expectation_shapes_perceived_time,2022.2.4,119.52143617105114,
,,,,,,,,,1,0,1,0,0,-1,-1,0,fam,0.49650379999366123,0.49650379999366123,270.0000000000009,2.487692499998957,2.487692499998957,,,,,,,,,,,,,,,,,,,,,,,,,,,,,,,,,,,,p7_base_01,001,2023-05-03_10h08.48.657,expectation_shapes_perceived_time,2022.2.4,119.52143617105114,
,,,,,,,,,2,0,2,0,0,-1,-1,0,fam,0.4970448999956716,0.4970448999956716,270.0000000000009,2.4883715999894775,2.4883715999894775,,,,,,,,,,,,,,,,,,,,,,,,,,,,,,,,,,,,p7_base_01,001,2023-05-03_10h08.48.657,expectation_shapes_perceived_time,2022.2.4,119.52143617105114,
,,,,,,,,,3,0,3,0,0,-1,-1,0,fam,0.49730149999959394,0.49730149999959394,270.0000000000009,2.4891188999899896,2.4891188999899896,,,,,,,,,,,,,,,,,,,,,,,,,,,,,,,,,,,,p7_base_01,001,2023-05-03_10h08.48.657,expectation_shapes_perceived_time,2022.2.4,119.52143617105114,
,167,0.5,none,,red,green,,511.4995199538423,,,,,0,0,0,160,trial,,,,,,red,0.5114995199538424,0.5083333333333333,2.2919722000078764,0.9982166999980109,4e-05,4e-05,0.0334,0.5083306000015,0.541641100004199,1.9999502999999095,2.0332804000063334,2.2919722000078764,2.2919722000078764,2.4917618000035873,3.808396400010679,1.5164242000028025,None,,4.549849200004246,2.2578769999963697,0.7414527999935672,1.80973,-0.08319373733881001,0.1221908017163772,,,,0.167,0.16666666666666666,0.7118295199538424,0.7083333333333334,trial_list_0.5_green.csv,0.7083788000018103,0.7416358000045875,p7_base_01,001,2023-05-03_10h08.48.657,expectation_shapes_perceived_time,2022.2.4,119.52143617105114,
,300,0.5,none,,red,green,,1136.3347433268586,,,,,0,1,1,454,trial,,,,,,red,1.1363347433268587,1.1333333333333333,2.2917481000040425,0.9976795999973547,0.00013,0.00013,0.03329,1.1332670999981929,1.166562200000044,1.9998870999988867,2.033447399997385,2.2917481000040425,2.2917481000040425,2.491754700007732,2.9908918000000995,0.699143699996057,None,,3.816271899995627,1.5245237999915844,0.8253800999955274,1.60058,-0.14050555471664025,0.045934508272747775,,,,0.3,0.3,1.4696647433268586,1.4666666666666666,trial_list_0.5_green.csv,1.4665385999978753,1.499946900003124,p7_base_01,001,2023-05-03_10h08.48.657,expectation_shapes_perceived_time,2022.2.4,119.52143617105114,
,33,0.5,none,,green,red,,1298.832004691251,,,,,0,2,2,91,trial,,,,,,green,1.2988320046912512,1.2916666666666667,2.291622400007327,0.9976320999994641,3e-05,3e-05,0.03345,1.2916850000037812,1.3251686000003247,2.000107500003651,2.0335369000094943,2.291622400007327,2.291622400007327,2.4916014000045834,2.7996481000009226,0.5080256999935955,None,,3.89995700000145,1.608334599994123,1.1003089000005275,1.25,-0.1045270059757045,-0.1045270059757045,,,,0.033,0.03333333333333333,1.365162004691251,1.3583333333333334,trial_list_0.5_green.csv,1.358271600009175,1.391680600005202,p7_base_01,001,2023-05-03_10h08.48.657,expectation_shapes_perceived_time,2022.2.4,119.52143617105114,
,-233,0.5,none,,red,green,,822.2545046405539,,,,,0,3,3,140,trial,,,,,,red,0.8222545046405539,0.8166666666666667,2.2917038000014145,0.9976860000024317,3e-05,3e-05,0.03327,0.8168873999966308,0.8500511000020197,1.9999646000069333,2.0334175000025425,2.2917038000014145,2.2917038000014145,2.491525899997214,2.2917038000014145,0.0,None,,3.3580976000084775,1.066393800007063,1.066393800007063,1.27953,-0.11375931039160617,-0.09439602351643915,,,,-0.233,-0.23333333333333334,0.5559245046405539,0.55,trial_list_0.5_green.csv,0.5501665000047069,0.5834117000049446,p7_base_01,001,2023-05-03_10h08.48.657,expectation_shapes_perceived_time,2022.2.4,119.52143617105114,
,-233,0.5,none,,green,red,,1207.4927138728103,,,,,0,4,4,433,trial,,,,,,green,1.2074927138728104,1.2,2.291654300002847,0.9979441000032239,0.00011,0.00011,,1.1999104999995325,1.2333415000030072,1.9999298000038834,,2.291654300002847,2.291654300002847,2.491658200000529,2.39156340000045,0.09990909999760333,None,,4.1916316999995615,1.8999773999967147,1.8000682999991113,0.60027,0.14055033688183868,-0.04579730078172271,,,,-0.233,-0.23333333333333334,0.9411627138728103,0.9333333333333333,trial_list_0.5_green.csv,0.9333903000078863,0.9665615999983856,p7_base_01,001,2023-05-03_10h08.48.657,expectation_shapes_perceived_time,2022.2.4,119.52143617105114,
,33,0.5,none,,green,red,,1302.1282395452083,,,,,0,5,5,239,trial,,,,,,green,1.3021282395452083,1.3,2.291513100004522,0.9979197000066051,4e-05,4e-05,0.03303,1.3001450000010664,1.3332801000069594,1.999880100003793,2.033176700002514,2.291513100004522,2.291513100004522,2.4915807000070345,2.316518499996164,0.025005399991641752,None,,3.774735099999816,1.483221999995294,1.4582166000036523,1.61047,-0.13900971392678751,0.05028010929266783,,,,0.033,0.03333333333333333,1.3684582395452083,1.3666666666666667,trial_list_0.5_green.csv,1.3664762999978848,1.400052199998754,p7_base_01,001,2023-05-03_10h08.48.657,expectation_shapes_perceived_time,2022.2.4,119.52143617105114,
,33,0.5,none,,green,red,,512.0808562432619,,,,,0,6,6,455,trial,,,,,,green,0.5120808562432619,0.5083333333333333,2.2916906000027666,0.9977195999963442,3e-05,3e-05,0.03319,0.5082496000104584,0.5415251000085846,1.99985610001022,,2.2916906000027666,2.2916906000027666,2.4915155000053346,2.3749711999989813,0.08328059999621473,None,,3.149828499997966,0.8581378999951994,0.7748572999989847,1.61642,-0.13804598239207783,0.05286867410760426,,,,0.033,0.03333333333333333,0.5784108562432619,0.575,trial_list_0.5_green.csv,0.5749022000090918,0.6082779999997001,p7_base_01,001,2023-05-03_10h08.48.657,expectation_shapes_perceived_time,2022.2.4,119.52143617105114,
,-167,0.5,none,,green,red,,1140.3539400584095,,,,,0,7,7,447,trial,,,,,,green,1.1403539400584095,1.1333333333333333,2.2917353000084404,0.9979468999954406,3e-05,3e-05,0.03328,1.1331352000124753,1.166648800004623,1.9997865000041202,2.0332319000008283,2.2917353000084404,2.2917353000084404,2.4914921000017785,2.3933381000097143,0.10160280000127386,None,,3.2331362000113586,0.9414009000029182,0.8397981000016443,1.71289,-0.11597622723242043,0.09165863119981614,,,,-0.167,-0.16666666666666666,0.9400239400584095,0.9333333333333333,trial_list_0.5_green.csv,0.9330897000036202,0.9667052000004333,p7_base_01,001,2023-05-03_10h08.48.657,expectation_shapes_perceived_time,2022.2.4,119.52143617105114,
,233,0.5,none,,red,green,,400.8757338674368,,,,,0,8,8,388,trial,,,,,,red,0.4008757338674368,0.4,2.2922742000082508,0.9951205999968806,5e-05,5e-05,,0.4000042000116082,0.4334170000074664,2.0004812000115635,2.033682300010696,2.2922742000082508,2.2922742000082508,2.524721800000407,2.2922742000082508,0.0,None,,3.6841297000064515,1.3918554999982007,1.3918554999982007,1.13217,-0.05963170193600925,-0.13526215317192342,,,,0.233,0.23333333333333334,0.6672057338674369,0.6666666666666666,trial_list_0.5_green.csv,0.6666380000096979,0.6999519000091823,p7_base_01,001,2023-05-03_10h08.48.657,expectation_shapes_perceived_time,2022.2.4,119.52143617105114,
,-167,0.5,none,,green,red,,1482.6068886076157,,,,,0,9,9,159,trial,,,,,,green,1.4826068886076158,1.475,2.291938399997889,0.9945568999974057,9e-05,9e-05,0.03319,1.4746816999977455,1.5080100000050152,2.0018853999936255,2.0346824000007473,2.291938399997889,2.291938399997889,2.5310254999931203,2.291938399997889,0.0,None,,3.7975541000050725,1.5056157000071835,1.5056157000071835,0.74478,0.1062262905194431,-0.10279963598655784,,,,-0.167,-0.16666666666666666,1.2822768886076157,1.275,trial_list_0.5_green.csv,1.2747225999919465,1.3079609999986133,p7_base_01,001,2023-05-03_10h08.48.657,expectation_shapes_perceived_time,2022.2.4,119.52143617105114,
,-167,0.5,none,,red,green,,1252.5568454999343,,,,,0,10,10,416,trial,,,,,,red,1.2525568454999343,1.25,2.299664500009385,0.991268099998706,5e-05,5e-05,0.03318,1.249806300009368,1.2831824000022607,2.0004157000075793,2.0338512000016635,2.299664500009385,2.299664500009385,2.5670218000013847,2.299664500009385,0.0,None,,4.527568799996516,2.227904299987131,2.227904299987131,1.40753,-0.1416293657370683,-0.042342800065721456,,,,-0.167,-0.16666666666666666,1.0522268454999344,1.05,trial_list_0.5_green.csv,1.049821200009319,1.0830944000044838,p7_base_01,001,2023-05-03_10h08.48.657,expectation_shapes_perceived_time,2022.2.4,119.52143617105114,
,167,0.5,none,,green,red,,578.9667198870969,,,,,0,11,11,147,trial,,,,,,green,0.5789667198870969,0.575,2.29243800000404,0.9936291999911191,9e-05,9e-05,,0.5744960000010906,0.6077695999993011,2.0003254000039306,2.033526500003063,2.29243800000404,2.29243800000404,2.491723400002229,2.722431999995024,0.42999399999098387,None,,3.4927829999942333,1.2003449999901932,0.7703509999992093,0.67334,0.12644225904489087,-0.076577706182117,,,,0.167,0.16666666666666666,0.7792967198870969,0.775,trial_list_0.5_green.csv,0.7745202999940375,0.8078135999967344,p7_base_01,001,2023-05-03_10h08.48.657,expectation_shapes_perceived_time,2022.2.4,119.52143617105114,
,33,0.5,none,,red,green,,620.8749207023308,,,,,0,12,12,62,trial,,,,,,red,0.6208749207023307,0.6166666666666667,2.2916211999981897,0.9942098000028636,3e-05,3e-05,0.03323,0.6163639000005787,0.6496194999926956,1.9999985000031302,2.0332067999988794,2.2916211999981897,2.2916211999981897,2.491513599990867,2.2916211999981897,0.0,None,,3.17494810000062,0.8833269000024302,0.8833269000024302,1.40624,-0.14145733164372845,-0.042914021959333346,,,,0.033,0.03333333333333333,0.6872049207023309,0.6833333333333333,trial_list_0.5_green.csv,0.6828703999926802,0.7162745999958133,p7_base_01,001,2023-05-03_10h08.48.657,expectation_shapes_perceived_time,2022.2.4,119.52143617105114,
,167,0.5,none,,red,green,,335.84807250211554,,,,,0,13,13,90,trial,,,,,,red,0.33584807250211557,0.3333333333333333,2.2916250999987824,0.9972439000121085,3e-05,3e-05,0.03353,0.3334352000092622,0.3667567000084091,1.9999405999988085,,2.2916250999987824,2.2916250999987824,2.491632999997819,2.2916250999987824,0.0,None,,3.3168560000049183,1.025230900006136,1.025230900006136,0.61008,0.1390722386893411,-0.05010690952777731,,,,0.167,0.16666666666666666,0.5361780725021156,0.5333333333333333,trial_list_0.5_green.csv,0.5335021000064444,0.5667357000056654,p7_base_01,001,2023-05-03_10h08.48.657,expectation_shapes_perceived_time,2022.2.4,119.52143617105114,
,-100,0.5,none,,green,red,,835.8474196212736,,,,,0,14,14,187,trial,,,,,,green,0.8358474196212736,0.8333333333333334,2.291245800006436,0.9977601999999024,5e-05,5e-05,0.03347,0.8331261999992421,0.8664004000020213,1.9997693000041181,2.0329698999994434,2.291245800006436,2.291245800006436,2.4913076999946497,2.307985799998278,0.016739999991841614,None,,3.599629200005438,1.308383399999002,1.2916434000071604,1.22322,-0.09537289274354317,-0.11294158351209058,,,,-0.1,-0.1,0.7025174196212736,0.7,trial_list_0.5_green.csv,0.7001372000086121,0.7330823999946006,p7_base_01,001,2023-05-03_10h08.48.657,expectation_shapes_perceived_time,2022.2.4,119.52143617105114,
,100,0.5,none,,green,red,,1090.4895776500396,,,,,0,15,15,177,trial,,,,,,green,1.0904895776500396,1.0833333333333333,2.2914315999951214,0.997071199992206,4e-05,4e-05,0.03307,1.0829579999990528,1.1163551999925403,1.9996705999947153,2.0331455999985337,2.2914315999951214,2.2914315999951214,2.4912176999932854,2.2914315999951214,0.0,None,,3.157998900001985,0.8665673000068637,0.8665673000068637,1.68166,-0.12439582815356325,0.07985905017265789,,,,0.1,0.1,1.2238195776500396,1.2166666666666666,trial_list_0.5_green.csv,1.2165053999924567,1.2496743999945465,p7_base_01,001,2023-05-03_10h08.48.657,expectation_shapes_perceived_time,2022.2.4,119.52143617105114,
,300,0.5,none,,red,green,,357.4214788444612,,,,,0,16,16,468,trial,,,,,,red,0.3574214788444612,0.35833333333333334,2.29149880001205,0.997932900005253,4e-05,4e-05,0.03316,0.3582802000019001,0.3915077000128804,2.0000418000126956,2.033402200002456,2.29149880001205,2.29149880001205,2.491453900001943,2.29149880001205,0.0,None,,3.3996157000074163,1.1081168999953661,1.1081168999953661,1.25223,-0.10525539048363494,-0.10379351006025113,,,,0.3,0.3,0.6907514788444613,0.6916666666666667,trial_list_0.5_green.csv,0.6915625000110595,0.7247882000083337,p7_base_01,001,2023-05-03_10h08.48.657,expectation_shapes_perceived_time,2022.2.4,119.52143617105114,
,300,0.5,none,,green,red,,1393.1854890131387,,,,,0,17,17,123,trial,,,,,,green,1.3931854890131388,1.3916666666666666,2.2916618999879574,0.9988231000024825,0.00015,0.00015,0.03325,1.391823400001158,1.424877599987667,1.9998513999889838,2.0332482999947388,2.2916618999879574,2.2916618999879574,2.491593399987323,2.683128899996518,0.3914670000085607,None,,4.899690099991858,2.6080282000039006,2.21656119999534,0.71735,0.11468110891255831,-0.0932739685822141,,,,0.3,0.3,1.7265154890131387,1.7166666666666666,trial_list_0.5_green.csv,1.716555499995593,1.749893100000918,p7_base_01,001,2023-05-03_10h08.48.657,expectation_shapes_perceived_time,2022.2.4,119.52143617105114,
,300,0.5,none,,red,green,,953.4543007028212,,,,,0,18,18,104,trial,,,,,,red,0.9534543007028212,0.95,2.291709900004207,0.9972836999950232,4e-05,4e-05,0.03336,0.9499549000029219,0.9835903000057442,2.0002225000062026,2.0335612000053516,2.291709900004207,2.291709900004207,2.4913105000014184,2.5247100999986287,0.23300019999442156,None,,3.399688799996511,1.107978899992304,0.8749786999978824,1.00413,-0.0019196239599999939,-0.14781104491999952,,,,0.3,0.3,1.2867843007028212,1.2833333333333332,trial_list_0.5_green.csv,1.2832341000030283,1.3165582999936305,p7_base_01,001,2023-05-03_10h08.48.657,expectation_shapes_perceived_time,2022.2.4,119.52143617105114,
,-100,0.5,none,,green,red,,1659.382164128408,,,,,0,19,19,283,trial,,,,,,green,1.659382164128408,1.65,2.2914125000097556,0.9909095000039088,7e-05,7e-05,0.03328,1.6497252999979537,1.6833235000085551,1.999758500009193,2.033314500004053,2.2914125000097556,2.2914125000097556,2.491432700000587,3.3413093999988632,1.0498968999891076,None,,4.424503000002005,2.1330904999922495,1.083193600003142,1.81684,-0.0804442389863095,0.12401820177056048,,,,-0.1,-0.1,1.5260521641284082,1.5166666666666666,trial_list_0.5_green.csv,1.5166776999976719,1.5499163000058616,p7_base_01,001,2023-05-03_10h08.48.657,expectation_shapes_perceived_time,2022.2.4,119.52143617105114,
,167,0.5,none,,green,red,,411.7882420883905,,,,,0,20,20,203,trial,,,,,,green,0.41178824208839054,0.4083333333333333,2.291724800001248,0.9961752999952296,0.00011,0.00011,,0.4085616999946069,0.4421029999939492,2.00017939999816,,2.291724800001248,2.291724800001248,2.4916055999929085,2.5798915999912424,0.2881667999899946,None,,3.749333999992814,1.4576091999915661,1.1694424000015715,1.95034,-0.02297067574646763,0.14602786724540134,,,,0.167,0.16666666666666666,0.6121182420883905,0.6083333333333333,trial_list_0.5_green.csv,0.608490399987204,0.6418643999932101,p7_base_01,001,2023-05-03_10h08.48.657,expectation_shapes_perceived_time,2022.2.4,119.52143617105114,
,-300,0.5,none,,green,red,,608.2642701428937,,,,,0,21,21,73,trial,,,,,,green,0.6082642701428936,0.6083333333333333,2.2917665999993915,0.9988725999864982,0.00011,0.00011,,0.6082816999987699,0.6424062000005506,2.000318000005791,,2.2917665999993915,2.2917665999993915,2.5378080000082264,2.2917665999993915,0.0,None,,3.4556938000023365,1.163927200002945,1.163927200002945,1.28779,-0.11617022167063289,-0.09141263344574392,,,,-0.3,-0.3,0.2749342701428937,0.275,trial_list_0.5_green.csv,0.2750442000105977,0.3085665000107838,p7_base_01,001,2023-05-03_10h08.48.657,expectation_shapes_perceived_time,2022.2.4,119.52143617105114,
,233,0.5,none,,red,green,,960.0001152811348,,,,,0,22,22,290,trial,,,,,,red,0.9600001152811347,0.9583333333333334,2.2923265999997966,0.9908888999925693,6e-05,6e-05,,0.958771199992043,0.9921839000016917,2.0004475000023376,,2.2923265999997966,2.2923265999997966,2.505934899993008,2.4695109999884153,0.17718439998861868,None,,3.2768227999913506,0.984496199991554,0.8073118000029353,1.643,-0.13315478771421124,0.06419962979078042,,,,0.233,0.23333333333333334,1.2263301152811346,1.225,trial_list_0.5_green.csv,1.2255096000008052,1.2587416999886045,p7_base_01,001,2023-05-03_10h08.48.657,expectation_shapes_perceived_time,2022.2.4,119.52143617105114,
,-100,0.5,none,,green,red,,384.71678603085934,,,,,0,23,23,465,trial,,,,,,green,0.38471678603085935,0.3833333333333333,2.292388999994728,0.9929591000109212,2e-05,2e-05,0.03332,0.3840751999960048,0.4173328000033507,2.0005992999940645,2.0351762999925995,2.292388999994728,2.292388999994728,2.537096999993082,2.303346300002886,0.0109573000081582,None,,3.3368428999965545,1.0444539000018267,1.0334965999936685,0.61688,0.13797042307142957,-0.05306554733516522,,,,-0.1,-0.1,0.25138678603085934,0.25,trial_list_0.5_green.csv,0.2500017999991542,0.283321299997624,p7_base_01,001,2023-05-03_10h08.48.657,expectation_shapes_perceived_time,2022.2.4,119.52143617105114,
,100,0.5,none,,red,green,,1287.9762723273109,,,,,0,24,24,206,trial,,,,,,red,1.287976272327311,1.2833333333333332,2.29193929999019,0.9932108000066364,6e-05,6e-05,,1.2832588000019314,1.3167047000024468,1.9999169999937294,,2.29193929999019,2.29193929999019,2.4914248999994015,2.3750612000003457,0.08312190001015551,None,,3.3166228999907617,1.0246836000005715,0.941561699990416,1.5063,-0.14779453584516836,0.0029266244721815513,,,,0.1,0.1,1.4213062723273109,1.4166666666666667,trial_list_0.5_green.csv,1.4168229999922914,1.4498223999980837,p7_base_01,001,2023-05-03_10h08.48.657,expectation_shapes_perceived_time,2022.2.4,119.52143617105114,
,233,0.5,none,,green,red,,883.0077146688006,0,0,0,0,0,25,25,161,fam,0.6540816999913659,0.6540816999913659,270.0000000000009,2.6458335999923293,2.6458335999923293,,,,,,,,,,,,,,,,,,,,,,,,,,,,,,,,,,,,p7_base_01,001,2023-05-03_10h08.48.657,expectation_shapes_perceived_time,2022.2.4,119.52143617105114,
,233,0.5,none,,green,red,,883.0077146688006,1,0,1,0,0,25,25,161,fam,0.4976744999876246,0.4976744999876246,270.0000000000009,2.4891820999910124,2.4891820999910124,,,,,,,,,,,,,,,,,,,,,,,,,,,,,,,,,,,,p7_base_01,001,2023-05-03_10h08.48.657,expectation_shapes_perceived_time,2022.2.4,119.52143617105114,
,233,0.5,none,,green,red,,883.0077146688006,2,0,2,0,0,25,25,161,fam,0.4970820000016829,0.4970820000016829,270.0000000000009,2.4890352000074927,2.4890352000074927,,,,,,,,,,,,,,,,,,,,,,,,,,,,,,,,,,,,p7_base_01,001,2023-05-03_10h08.48.657,expectation_shapes_perceived_time,2022.2.4,119.52143617105114,
,233,0.5,none,,green,red,,883.0077146688006,3,0,3,0,0,25,25,161,fam,0.49736619999748655,0.49736619999748655,270.0000000000009,2.4888317000004463,2.4888317000004463,,,,,,,,,,,,,,,,,,,,,,,,,,,,,,,,,,,,p7_base_01,001,2023-05-03_10h08.48.657,expectation_shapes_perceived_time,2022.2.4,119.52143617105114,
,233,0.5,none,,green,red,,883.0077146688006,,,,,0,25,25,161,trial,,,,,,green,0.8830077146688007,0.8833333333333333,2.291514399999869,0.9984531000081915,3e-05,3e-05,,0.883121700011543,0.9165587000024971,1.9995772000111174,,2.291514399999869,2.291514399999869,2.4922559000115143,2.291514399999869,0.0,None,,3.575006700004451,1.283492300004582,1.283492300004582,1.37433,-0.1364524702939337,-0.05685519595580572,,,,0.233,0.23333333333333334,1.1493377146688006,1.1416666666666666,trial_list_0.5_green.csv,1.1415695000032429,1.1751653000101214,p7_base_01,001,2023-05-03_10h08.48.657,expectation_shapes_perceived_time,2022.2.4,119.52143617105114,
,-33,0.5,none,,green,red,,199.3764937912792,,,,,0,26,26,29,trial,,,,,,green,0.1993764937912792,0.2,2.2917214000044623,0.9949885999958497,4e-05,4e-05,0.03353,0.2000843999994686,0.23331850000249688,1.999977100000251,2.0333487000025343,2.2917214000044623,2.2917214000044623,2.4916457000072114,2.2917214000044623,0.0,None,,3.316526900001918,1.0248054999974556,1.0248054999974556,1.26366,-0.1089155081042213,-0.09994599567210896,,,,-0.033,-0.03333333333333333,0.1330464937912792,0.13333333333333333,trial_list_0.5_green.csv,0.1334318000008352,0.16670180000073742,p7_base_01,001,2023-05-03_10h08.48.657,expectation_shapes_perceived_time,2022.2.4,119.52143617105114,
,100,0.5,none,,red,green,,340.1620627989024,,,,,0,27,27,394,trial,,,,,,red,0.34016206279890243,0.3416666666666667,2.2913846999872476,0.9981391000037547,6e-05,6e-05,0.03317,0.34153049999440555,0.3746792999882018,1.999735099991085,,2.2913846999872476,2.2913846999872476,2.4914810999907786,2.2913846999872476,0.0,None,,3.566551999989315,1.2751673000020673,1.2751673000020673,0.38403,0.13812070516924332,0.052673150276406344,,,,0.1,0.1,0.4734920627989024,0.475,trial_list_0.5_green.csv,0.4748282999935327,0.5079544999898644,p7_base_01,001,2023-05-03_10h08.48.657,expectation_shapes_perceived_time,2022.2.4,119.52143617105114,
,-167,0.5,none,,red,green,,999.415276991584,,,,,0,28,28,248,trial,,,,,,red,0.9994152769915841,0.9916666666666667,2.291866100000334,0.9959778999909759,6e-05,6e-05,,0.9917532999970717,1.0249373999977252,1.9999325999961002,,2.291866100000334,2.291866100000334,2.4918428999953903,2.291866100000334,0.0,None,,3.1746951999957673,0.8828290999954334,0.8828290999954334,0.97178,0.013088262528824782,-0.1472429534492788,,,,-0.167,-0.16666666666666666,0.799085276991584,0.8,trial_list_0.5_green.csv,0.8000013999990188,0.8331875000003492,p7_base_01,001,2023-05-03_10h08.48.657,expectation_shapes_perceived_time,2022.2.4,119.52143617105114,
,167,0.5,none,,green,red,,616.2976003768565,,,,,0,29,29,279,trial,,,,,,green,0.6162976003768565,0.6166666666666667,2.2910628000099678,0.9993734000017866,8e-05,8e-05,0.03277,0.6163542000140296,0.6495389000046998,1.9994126000092365,2.0336793000024045,2.2910628000099678,2.2910628000099678,2.4922736000007717,2.324450300002354,0.03338749999238644,None,,3.8907347000058508,1.599671899995883,1.5662844000034966,1.41705,-0.14283223975897488,-0.038088597269059964,,,,0.167,0.16666666666666666,0.8166276003768566,0.8166666666666667,trial_list_0.5_green.csv,0.8162337000103435,0.8495197000011103,p7_base_01,001,2023-05-03_10h08.48.657,expectation_shapes_perceived_time,2022.2.4,119.52143617105114,
,-33,0.5,none,,green,red,,1149.5560554166022,,,,,0,30,30,471,trial,,,,,,green,1.1495560554166022,1.1416666666666666,2.2917912999982946,0.9969565999926999,0.00012,0.00012,0.03329,1.1419847999932244,1.175216299991007,2.000147700004163,2.03364939999301,2.2917912999982946,2.2917912999982946,2.4917280999943614,2.333340999990469,0.04154969999217428,None,,3.3001504999992903,1.0083592000009958,0.9668095000088215,1.67917,-0.125018490242375,0.07888071408149851,,,,-0.033,-0.03333333333333333,1.0832260554166022,1.075,trial_list_0.5_green.csv,1.0750917999976082,1.1086940999957733,p7_base_01,001,2023-05-03_10h08.48.657,expectation_shapes_perceived_time,2022.2.4,119.52143617105114,
,-167,0.5,none,,red,green,,1321.2011827637543,,,,,0,31,31,26,trial,,,,,,red,1.3212011827637544,1.3166666666666667,2.2926513999991585,0.9970733999944059,2e-05,2e-05,0.03328,1.3170305999956327,1.3504650999966543,2.000396399991587,2.0339478999958374,2.2926513999991585,2.2926513999991585,2.4922820999927353,2.3253588999941712,0.03270749999501277,None,,3.3087345999956597,1.0160831999965012,0.9833757000014884,0.92955,0.032449063057703745,-0.14421805803423887,,,,-0.167,-0.16666666666666666,1.1208711827637543,1.1166666666666667,trial_list_0.5_green.csv,1.11721059998672,1.1505769999930635,p7_base_01,001,2023-05-03_10h08.48.657,expectation_shapes_perceived_time,2022.2.4,119.52143617105114,
,100,0.5,none,,red,green,,1338.1415882357237,,,,,0,32,32,480,trial,,,,,,red,1.3381415882357237,1.3333333333333333,2.291482400003588,0.9978187999950023,5e-05,5e-05,0.03314,1.3331126999983098,1.366676899997401,1.9998842000059085,2.033104700007243,2.291482400003588,2.291482400003588,2.4914734000049066,2.3080694999953266,0.016587099991738796,None,,3.1582446999964304,0.8667622999928426,0.8501752000011038,1.60438,-0.1399464733496073,0.04761065588182516,,,,0.1,0.1,1.4714715882357237,1.4666666666666666,trial_list_0.5_green.csv,1.4666173000005074,1.4997769000037806,p7_base_01,001,2023-05-03_10h08.48.657,expectation_shapes_perceived_time,2022.2.4,119.52143617105114,
,33,0.5,none,,green,red,,1158.1893048947372,,,,,0,33,33,255,trial,,,,,,green,1.1581893048947371,1.15,2.300331799997366,0.9977652999950806,3e-05,3e-05,,1.1500152999942657,1.1832470999943325,2.0007211999909487,2.0364403999992646,2.300331799997366,2.300331799997366,2.5417574000020977,2.368613800004823,0.0682820000074571,None,,3.242958599992562,0.942626799995196,0.874344799987739,1.63009,-0.13564927847954747,0.058745750522638675,,,,0.033,0.03333333333333333,1.2245193048947371,1.2166666666666666,trial_list_0.5_green.csv,1.2164901999931317,1.249675600003684,p7_base_01,001,2023-05-03_10h08.48.657,expectation_shapes_perceived_time,2022.2.4,119.52143617105114,
,-300,0.5,none,,red,green,,1333.78159252332,,,,,0,34,34,166,trial,,,,,,red,1.3337815925233198,1.325,2.299883100000443,0.9947771000006469,0.0001,0.0001,0.03327,1.3254801000002772,1.3591073999996297,2.004661600003601,,2.299883100000443,2.299883100000443,2.4996996999980183,2.299883100000443,0.0,None,,3.1664904999925056,0.8666073999920627,0.8666073999920627,1.83475,-0.07334099906011632,0.12834674835520357,,,,-0.3,-0.3,1.00045159252332,1.0,trial_list_0.5_green.csv,1.0007791999960318,1.0339099999982864,p7_base_01,001,2023-05-03_10h08.48.657,expectation_shapes_perceived_time,2022.2.4,119.52143617105114,
,100,0.5,none,,red,green,,1282.8686225846438,,,,,0,35,35,372,trial,,,,,,red,1.2828686225846437,1.275,2.2916343999968376,0.9975650000124006,3e-05,3e-05,,1.2749748999922303,1.3084629999939352,2.0001142999972217,,2.2916343999968376,2.2916343999968376,2.491661199994269,2.2916343999968376,0.0,None,,3.5082213999994565,1.2165870000026189,1.2165870000026189,1.73884,-0.10812807985733304,0.10079736257886977,,,,0.1,0.1,1.4161986225846437,1.4083333333333332,trial_list_0.5_green.csv,1.4083800999942468,1.4420132999948692,p7_base_01,001,2023-05-03_10h08.48.657,expectation_shapes_perceived_time,2022.2.4,119.52143617105114,
,-167,0.5,none,,red,green,,1541.1446451899417,,,,,0,36,36,448,trial,,,,,,red,1.5411446451899418,1.5333333333333332,2.2916495999961626,0.9979291999916313,5e-05,5e-05,0.0332,1.5333740999922156,1.5665029999945546,2.000109499989776,,2.2916495999961626,2.2916495999961626,2.4914312999899266,2.308332299988251,0.0166826999920886,None,,3.5495038999943063,1.2578542999981437,1.241171600006055,1.16349,-0.07262882213665704,-0.12875109378771024,,,,-0.167,-0.16666666666666666,1.3408146451899419,1.3333333333333333,trial_list_0.5_green.csv,1.3333425999881001,1.3665263000002597,p7_base_01,001,2023-05-03_10h08.48.657,expectation_shapes_perceived_time,2022.2.4,119.52143617105114,
,-233,0.5,none,,green,red,,1694.3879133182108,,,,,0,37,37,453,trial,,,,,,green,1.694387913318211,1.6916666666666667,2.2917382000014186,0.9989829000114696,8e-05,8e-05,0.03339,1.6915860000008252,1.7252702999976464,1.9998134999914328,,2.2917382000014186,2.2917382000014186,2.491533199994592,2.3919227000005776,0.10018449999915902,None,,3.249691199991503,0.9579529999900842,0.8577684999909252,1.59693,-0.14102269925907363,0.044321419767137424,,,,-0.233,-0.23333333333333334,1.428057913318211,1.425,trial_list_0.5_green.csv,1.424755500003812,1.4583152999985032,p7_base_01,001,2023-05-03_10h08.48.657,expectation_shapes_perceived_time,2022.2.4,119.52143617105114,
,-167,0.5,none,,green,red,,1073.5486938120348,,,,,0,38,38,115,trial,,,,,,green,1.0735486938120349,1.0666666666666667,2.2919758999923943,0.9976131000003079,3e-05,3e-05,0.03332,1.0671181999932742,1.1003868999978295,2.000390100001823,,2.2919758999923943,2.2919758999923943,2.4941926000028616,2.3920715999993263,0.10009570000693202,None,,3.558592299988959,1.2666163999965647,1.1665206999896327,0.90382,0.043987684348212056,-0.14112715395051365,,,,-0.167,-0.16666666666666666,0.8732186938120348,0.8666666666666667,trial_list_0.5_green.csv,0.8669531999912579,0.9005719999986468,p7_base_01,001,2023-05-03_10h08.48.657,expectation_shapes_perceived_time,2022.2.4,119.52143617105114,
,-167,0.5,none,,red,green,,1095.036808207264,,,,,0,39,39,86,trial,,,,,,red,1.095036808207264,1.0916666666666666,2.3016311999963364,0.9975942000019131,6e-05,6e-05,0.03334,1.0914996999927098,1.124740599989309,2.0005369999998948,2.034061499987729,2.3016311999963364,2.3016311999963364,2.5856721000018297,2.3206655999965733,0.01903440000023693,None,,4.2950783999986015,1.9934472000022652,1.9744128000020282,1.018,-0.008353996115815181,-0.14758726471273484,,,,-0.167,-0.16666666666666666,0.8947068082072639,0.8916666666666666,trial_list_0.5_green.csv,0.8917059999948833,0.9250080999918282,p7_base_01,001,2023-05-03_10h08.48.657,expectation_shapes_perceived_time,2022.2.4,119.52143617105114,
,-33,0.5,none,,green,red,,1791.451447987852,,,,,0,40,40,45,trial,,,,,,green,1.7914514479878518,1.7833333333333332,2.2918275999982143,0.9950131000077818,0.00013,0.00013,,1.7833631999965291,1.8167505000019446,2.0000619999918854,,2.2918275999982143,2.2918275999982143,2.511668599996483,2.4410381999914534,0.14921059999323916,None,,3.314078299998073,1.0222506999998586,0.8730401000066195,1.18012,-0.07925367884290824,-0.12478238796542998,,,,-0.033,-0.03333333333333333,1.725121447987852,1.7166666666666666,trial_list_0.5_green.csv,1.7168827999994392,1.7497964999929536,p7_base_01,001,2023-05-03_10h08.48.657,expectation_shapes_perceived_time,2022.2.4,119.52143617105114,
,167,0.5,none,,green,red,,267.84427650142857,,,,,0,41,41,333,trial,,,,,,green,0.26784427650142856,0.26666666666666666,2.2918299999873852,0.9910769999987679,7e-05,7e-05,0.03356,0.2665400999976555,0.2999390999902971,1.9999720999912824,2.0340049999940675,2.2918299999873852,2.2918299999873852,2.491558299996541,2.2918299999873852,0.0,None,,3.3331075999885798,1.0412776000011945,1.0412776000011945,1.16846,-0.07463362350937905,-0.1275994208386158,,,,0.167,0.16666666666666666,0.46817427650142857,0.4666666666666667,trial_list_0.5_green.csv,0.46659009999712,0.4999791999871377,p7_base_01,001,2023-05-03_10h08.48.657,expectation_shapes_perceived_time,2022.2.4,119.52143617105114,
,-233,0.5,none,,red,green,,994.5841543043928,,,,,0,42,42,220,trial,,,,,,red,0.9945841543043927,0.9916666666666667,2.291485299996566,0.9978681999928085,4e-05,4e-05,,0.9914878999989014,1.0249027999961982,1.9999857999937376,,2.291485299996566,2.291485299996566,2.4918895000009798,2.291485299996566,0.0,None,,3.683274499999243,1.3917892000026768,1.3917892000026768,0.62459,0.1366441989316819,-0.05639284400355127,,,,-0.233,-0.23333333333333334,0.7282541543043928,0.725,trial_list_0.5_green.csv,0.7249539000040386,0.7582803999976022,p7_base_01,001,2023-05-03_10h08.48.657,expectation_shapes_perceived_time,2022.2.4,119.52143617105114,
,-233,0.5,none,,red,green,,800.2475708031768,,,,,0,43,43,30,trial,,,,,,red,0.8002475708031768,0.8,2.2916566000058083,0.9977608000044711,4e-05,4e-05,0.03315,0.7999806000007084,0.8331326000043191,1.9997029000078328,2.0331028000073275,2.2916566000058083,2.2916566000058083,2.491358700004639,2.3746976999973413,0.08304109999153297,None,,3.2747189000074286,0.9830623000016203,0.9000212000100873,1.38746,-0.1386809643413579,-0.051179879697405894,,,,-0.233,-0.23333333333333334,0.5339175708031768,0.5333333333333333,trial_list_0.5_green.csv,0.5332144999993034,0.5666291000088677,p7_base_01,001,2023-05-03_10h08.48.657,expectation_shapes_perceived_time,2022.2.4,119.52143617105114,
,100,0.5,none,,green,red,,903.1189225201158,,,,,0,44,44,179,trial,,,,,,green,0.9031189225201158,0.9,2.291479299994535,0.996868899994297,7e-05,7e-05,,0.900002599999425,0.9336580999952275,2.0000319999962812,2.033438999991631,2.291479299994535,2.291479299994535,2.4913433000037912,2.291479299994535,0.0,None,,3.0666280000004917,0.7751487000059569,0.7751487000059569,0.42202,0.1434098690721271,0.035852467268031776,,,,0.1,0.1,1.0364489225201157,1.0333333333333332,trial_list_0.5_green.csv,1.0335292999952799,1.0666327999933856,p7_base_01,001,2023-05-03_10h08.48.657,expectation_shapes_perceived_time,2022.2.4,119.52143617105114,
,-167,0.5,none,,green,red,,660.1472771532713,,,,,0,45,45,353,trial,,,,,,green,0.6601472771532713,0.6583333333333333,2.308412699989276,0.9982467999943765,0.00015,0.00015,0.03305,0.6580469999898924,0.6913533999904757,2.000767299992731,2.0329802999913227,2.308412699989276,2.308412699989276,2.5782217999949353,2.3753536000003805,0.06694090001110453,None,,3.4908600999915507,1.1824474000022747,1.1155064999911701,1.54164,-0.14656025346117124,0.0192842438764699,,,,-0.167,-0.16666666666666666,0.45981727715327125,0.4583333333333333,trial_list_0.5_green.csv,0.4582916999934241,0.4934592999925371,p7_base_01,001,2023-05-03_10h08.48.657,expectation_shapes_perceived_time,2022.2.4,119.52143617105114,
,-167,0.5,none,,red,green,,631.8026344631372,,,,,0,46,46,418,trial,,,,,,red,0.6318026344631372,0.6333333333333333,2.2915792999992846,0.9978153000120074,7e-05,7e-05,0.03326,0.6333136999892304,0.6667024999915157,1.9999446000001626,2.0332197999960044,2.2915792999992846,2.2915792999992846,2.494105899997521,2.3256000999972457,0.03402079999796115,None,,3.558223799991538,1.2666444999922533,1.232623699994292,1.57356,-0.14389394201611255,0.033857398121438245,,,,-0.167,-0.16666666666666666,0.4314726344631372,0.43333333333333335,trial_list_0.5_green.csv,0.4333491999859689,0.46675339998910204,p7_base_01,001,2023-05-03_10h08.48.657,expectation_shapes_perceived_time,2022.2.4,119.52143617105114,
,233,0.5,none,,green,red,,638.122373508272,,,,,0,47,47,259,trial,,,,,,green,0.638122373508272,0.6333333333333333,2.291537299999618,0.9951735999929952,6e-05,6e-05,0.03337,0.6332544000033522,0.6665629000053741,1.999991200005752,2.0334096000005957,2.291537299999618,2.291537299999618,2.4916721000045072,2.6334241000004113,0.3418868000007933,None,,4.482898799993563,2.1913614999939455,1.8494746999931522,1.50612,-0.14779618283554347,0.002842234285298913,,,,0.233,0.23333333333333334,0.904452373508272,0.9,trial_list_0.5_green.csv,0.8999881000054302,0.9332562000054168,p7_base_01,001,2023-05-03_10h08.48.657,expectation_shapes_perceived_time,2022.2.4,119.52143617105114,
,33,0.5,none,,green,red,,1722.8541489511117,,,,,0,48,48,309,trial,,,,,,green,1.7228541489511118,1.7166666666666666,2.2918969000020297,0.9981993999972474,5e-05,5e-05,,1.7167830000107642,1.7502428000007058,2.0003635000030044,,2.2918969000020297,2.2918969000020297,2.491572200000519,2.2918969000020297,0.0,None,,3.258534000007785,0.9666371000057552,0.9666371000057552,1.57957,-0.1432288163867717,0.03656905950300555,,,,0.033,0.03333333333333333,1.7891841489511116,1.7833333333333332,trial_list_0.5_green.csv,1.7834635000035632,1.8167086000030395,p7_base_01,001,2023-05-03_10h08.48.657,expectation_shapes_perceived_time,2022.2.4,119.52143617105114,
,33,0.5,none,,red,green,,610.2178752567263,,,,,0,49,49,132,trial,,,,,,red,0.6102178752567263,0.6083333333333333,2.291296199997305,0.9978110000083689,9e-05,9e-05,0.03299,0.6077934000059031,0.6412682999944082,1.9996705999947153,2.0329810999974143,2.291296199997305,2.291296199997305,2.4911453999957303,2.291296199997305,0.0,None,,3.28289620000578,0.991600000008475,0.991600000008475,1.1618,-0.07194602110135086,-0.12913388402806564,,,,0.033,0.03333333333333333,0.6765478752567263,0.675,trial_list_0.5_green.csv,0.6744707000034396,0.7079171000077622,p7_base_01,001,2023-05-03_10h08.48.657,expectation_shapes_perceived_time,2022.2.4,119.52143617105114,
,167,0.5,none,,green,red,,433.9478798429844,0,0,0,0,0,50,50,171,fam,0.6046526999998605,0.6046526999998605,270.0000000000009,2.5964583000022685,2.5964583000022685,,,,,,,,,,,,,,,,,,,,,,,,,,,,,,,,,,,,p7_base_01,001,2023-05-03_10h08.48.657,expectation_shapes_perceived_time,2022.2.4,119.52143617105114,
,167,0.5,none,,green,red,,433.9478798429844,1,0,1,0,0,50,50,171,fam,0.4971307999949204,0.4971307999949204,270.0000000000009,2.488861999998335,2.488861999998335,,,,,,,,,,,,,,,,,,,,,,,,,,,,,,,,,,,,p7_base_01,001,2023-05-03_10h08.48.657,expectation_shapes_perceived_time,2022.2.4,119.52143617105114,
,167,0.5,none,,green,red,,433.9478798429844,2,0,2,0,0,50,50,171,fam,0.49669649999123067,0.49669649999123067,270.0000000000009,2.4881902000051923,2.4881902000051923,,,,,,,,,,,,,,,,,,,,,,,,,,,,,,,,,,,,p7_base_01,001,2023-05-03_10h08.48.657,expectation_shapes_perceived_time,2022.2.4,119.52143617105114,
,167,0.5,none,,green,red,,433.9478798429844,3,0,3,0,0,50,50,171,fam,0.4961441999912495,0.4961441999912495,270.0000000000009,2.4881315999955405,2.4881315999955405,,,,,,,,,,,,,,,,,,,,,,,,,,,,,,,,,,,,p7_base_01,001,2023-05-03_10h08.48.657,expectation_shapes_perceived_time,2022.2.4,119.52143617105114,
,167,0.5,none,,green,red,,433.9478798429844,,,,,0,50,50,171,trial,,,,,,green,0.4339478798429844,0.43333333333333335,2.2918511999887414,0.9980680000007851,6e-05,6e-05,0.03312,0.43333679999341257,0.46665389998815954,2.000149399988004,,2.2918511999887414,2.2918511999887414,2.4918710999918403,2.2918511999887414,0.0,None,,3.916915699999663,1.6250645000109216,1.6250645000109216,1.42912,-0.1441742347017624,-0.032643222951342435,,,,0.167,0.16666666666666666,0.6342778798429843,0.6333333333333333,trial_list_0.5_green.csv,0.6333444999909261,0.666691999998875,p7_base_01,001,2023-05-03_10h08.48.657,expectation_shapes_perceived_time,2022.2.4,119.52143617105114,
,-233,0.5,none,,green,red,,449.3964330027617,,,,,0,51,51,483,trial,,,,,,green,0.44939643300276166,0.45,2.291568799992092,0.9941981000010855,5e-05,5e-05,0.0333,0.449460599993472,0.482814299990423,2.0001124999980675,2.033104199988884,2.291568799992092,2.291568799992092,2.491314200000488,2.3080489999993006,0.016480200007208623,None,,3.649643799988553,1.358074999996461,1.3415947999892524,0.56504,0.14474878387126808,-0.029992991252605093,,,,-0.233,-0.23333333333333334,0.1830664330027617,0.18333333333333332,trial_list_0.5_green.csv,0.18285839998861775,0.2164782999898307,p7_base_01,001,2023-05-03_10h08.48.657,expectation_shapes_perceived_time,2022.2.4,119.52143617105114,
,-33,0.5,none,,red,green,,1169.8151742347,,,,,0,52,52,256,trial,,,,,,red,1.1698151742347,1.1666666666666667,2.291815200005658,0.9975701999937883,6e-05,6e-05,0.03371,1.1669110000075307,1.2001641999959247,2.0002634999982547,2.0333243000059156,2.291815200005658,2.291815200005658,2.491689700007555,2.291815200005658,0.0,None,,3.23347210000793,0.9416569000022719,0.9416569000022719,1.46774,-0.1470650030056559,-0.014955763017524326,,,,-0.033,-0.03333333333333333,1.1034851742347,1.1,trial_list_0.5_green.csv,1.0999755000084406,1.1333699999959208,p7_base_01,001,2023-05-03_10h08.48.657,expectation_shapes_perceived_time,2022.2.4,119.52143617105114,
,33,0.5,none,,green,red,,309.77685416037883,,,,,0,53,53,493,trial,,,,,,green,0.3097768541603788,0.30833333333333335,2.2914962000068044,0.9977451000013389,3e-05,3e-05,,0.3083355999988271,0.3414741000015056,1.9999053000065032,,2.2914962000068044,2.2914962000068044,2.491715500000282,2.2914962000068044,0.0,None,,4.141320099995937,1.8498238999891328,1.8498238999891328,1.14758,-0.06610868317625139,-0.13221736635250278,,,,0.033,0.03333333333333333,0.3761068541603788,0.375,trial_list_0.5_green.csv,0.37501200000406243,0.4082242000004044,p7_base_01,001,2023-05-03_10h08.48.657,expectation_shapes_perceived_time,2022.2.4,119.52143617105114,
,-300,0.5,none,,red,green,,992.5328474517509,,,,,0,54,54,310,trial,,,,,,red,0.9925328474517509,0.9916666666666667,2.2917407999921124,0.997808799991617,4e-05,4e-05,,0.9915455000009388,1.0251703999965684,2.000093199996627,,2.2917407999921124,2.2917407999921124,2.4917225999961374,2.308407199991052,0.016666399998939596,None,,3.1165586999995867,0.8248179000074742,0.8081515000085346,0.62888,0.13587124406305215,-0.05823053316987951,,,,-0.3,-0.3,0.6592028474517508,0.6583333333333333,trial_list_0.5_green.csv,0.658451099996455,0.6916090000013355,p7_base_01,001,2023-05-03_10h08.48.657,expectation_shapes_perceived_time,2022.2.4,119.52143617105114,
,233,0.5,none,,green,red,,243.1936841117703,,,,,0,55,55,243,trial,,,,,,green,0.2431936841117703,0.24166666666666667,2.2914487999951234,0.9977283999905922,5e-05,5e-05,0.03334,0.24179099999309983,0.2750526000017999,2.000220599991735,2.0333304999949178,2.2914487999951234,2.2914487999951234,2.491394099997706,2.2914487999951234,0.0,None,,3.3417098999925656,1.0502610999974422,1.0502610999974422,1.39001,-0.13908527925278308,-0.0500707005310019,,,,0.233,0.23333333333333334,0.5095236841117703,0.5083333333333333,trial_list_0.5_green.csv,0.5084104999987176,0.5418822999927215,p7_base_01,001,2023-05-03_10h08.48.657,expectation_shapes_perceived_time,2022.2.4,119.52143617105114,
,100,0.5,none,,green,red,,209.14484654953984,,,,,0,56,56,99,trial,,,,,,green,0.20914484654953983,0.20833333333333334,2.292096000004676,0.9977484999981243,4e-05,4e-05,0.0334,0.2084027000091737,0.2415954000025522,2.0000874000106705,,2.292096000004676,2.292096000004676,2.4922215999977197,2.35840250000183,0.06630649999715388,None,,3.4665101999999024,1.1744141999952262,1.1081076999980723,1.72412,-0.11267061685917443,0.09569285267491527,,,,0.1,0.1,0.3424748465495398,0.3416666666666667,trial_list_0.5_green.csv,0.34184400000958703,0.37485960000776686,p7_base_01,001,2023-05-03_10h08.48.657,expectation_shapes_perceived_time,2022.2.4,119.52143617105114,
,33,0.5,none,,red,green,,418.2392443890644,,,,,0,57,57,300,trial,,,,,,red,0.4182392443890644,0.4166666666666667,2.3017011000047205,0.9982709999894723,0.00013,0.00013,0.0333,0.41686709999339655,0.4499865999969188,1.9998857000027783,2.0342868000007,2.3017011000047205,2.3017011000047205,2.5447645999956876,2.3017011000047205,0.0,None,,3.248663899998064,0.9469627999933437,0.9469627999933437,1.73355,-0.1097868122719829,0.09898810942555834,,,,0.033,0.03333333333333333,0.4845692443890644,0.48333333333333334,trial_list_0.5_green.csv,0.4831584999919869,0.5167553999926895,p7_base_01,001,2023-05-03_10h08.48.657,expectation_shapes_perceived_time,2022.2.4,119.52143617105114,
,-233,0.5,none,,green,red,,840.9590070116465,,,,,0,58,58,5,trial,,,,,,green,0.8409590070116465,0.8416666666666667,2.3087981999997282,0.9978761000093073,7e-05,7e-05,0.0335,0.8422885999898426,0.8755875999922864,2.0097300999914296,2.0419421999977203,2.3087981999997282,2.3087981999997282,2.5474132999952417,2.387113299992052,0.07831509999232367,None,,3.9474265000026207,1.6386283000028925,1.5603132000105688,0.67682,0.1255967911669052,-0.07795662900014806,,,,-0.233,-0.23333333333333334,0.5746290070116464,0.575,trial_list_0.5_green.csv,0.5754730999906315,0.6091166999976849,p7_base_01,001,2023-05-03_10h08.48.657,expectation_shapes_perceived_time,2022.2.4,119.52143617105114,
,-300,0.5,none,,green,red,,1428.3933601702329,,,,,0,59,59,281,trial,,,,,,green,1.4283933601702328,1.425,2.2917594999889843,0.9918724000017392,4e-05,4e-05,0.03328,1.4250444999925094,1.4584815999987768,2.000191299986909,2.0332964999979595,2.2917594999889843,2.2917594999889843,2.491781099990476,2.3667807999881916,0.07502129999920726,None,,4.083206799987238,1.7914472999982536,1.7164259999990463,1.07798,-0.035852467268031776,-0.1434098690721271,,,,-0.3,-0.3,1.0950633601702329,1.0916666666666666,trial_list_0.5_green.csv,1.0916144999937387,1.1250631000002613,p7_base_01,001,2023-05-03_10h08.48.657,expectation_shapes_perceived_time,2022.2.4,119.52143617105114,
,-167,0.5,none,,green,red,,1585.465545224517,,,,,0,60,60,495,trial,,,,,,green,1.585465545224517,1.575,2.2917196999915177,0.9978699999919627,3e-05,3e-05,,1.574821999995038,1.608067299996037,2.000046299988753,,2.2917196999915177,2.2917196999915177,2.491468199994415,2.3247070999932475,0.03298740000172984,None,,3.149758199986536,0.8580384999950184,0.8250510999932885,1.35242,-0.13221736635250278,-0.06610868317625139,,,,-0.167,-0.16666666666666666,1.385135545224517,1.3833333333333333,trial_list_0.5_green.csv,1.383195699992939,1.4166776999918511,p7_base_01,001,2023-05-03_10h08.48.657,expectation_shapes_perceived_time,2022.2.4,119.52143617105114,
,233,0.5,none,,red,green,,792.233410309556,,,,,0,61,61,196,trial,,,,,,red,0.792233410309556,0.7916666666666666,2.2921614999941085,0.9959361000073841,2e-05,2e-05,,0.7920087999955285,0.8254235999920638,2.00030099999276,,2.2921614999941085,2.2921614999941085,2.492079299991019,2.308599800002412,0.016438300008303486,None,,3.5753602999902796,1.2831987999961711,1.2667604999878677,0.7723,0.09695334283693251,-0.11158780968024307,,,,0.233,0.23333333333333334,1.0585634103095558,1.0583333333333333,trial_list_0.5_green.csv,1.0587469000020064,1.0921932999917772,p7_base_01,001,2023-05-03_10h08.48.657,expectation_shapes_perceived_time,2022.2.4,119.52143617105114,
,300,0.5,none,,red,green,,1025.629287709512,,,,,0,62,62,10,trial,,,,,,red,1.0256292877095121,1.025,2.2916260000056354,0.9978818000090541,6e-05,6e-05,0.03311,1.0247887000004994,1.0581387000129325,1.999994500001776,2.033073800004786,2.2916260000056354,2.2916260000056354,2.491665200010175,2.4413910000002943,0.14976499999465887,None,,3.3579931999993278,1.0663671999936923,0.9166021999990335,1.3482,-0.13133023546914305,-0.06785395499239058,,,,0.3,0.3,1.358959287709512,1.35,trial_list_0.5_green.csv,1.3497760000027483,1.3832895000086864,p7_base_01,001,2023-05-03_10h08.48.657,expectation_shapes_perceived_time,2022.2.4,119.52143617105114,
