id,delay,expectation,congruency,trial_num,stim_color,distractor_color,block,targetTimeMs,famLoop.thisRepN,famLoop.thisTrialN,famLoop.thisN,famLoop.thisIndex,trialss.thisRepN,trialss.thisTrialN,trialss.thisN,trialss.thisIndex,isTrial,handMove.started,audioCue2Start.started,handOri,handMove.ended,audioCue2End.started,target_color,expected_target_onset,expected_target_onset_in_frames,fixationPoint.started,fixationPoint.stopped,audCueStart.started,placeholder.started,audCueStart.stopped,target.started,target.stopped,audCueEnd.started,audCueEnd.stopped,responsePointer.started,cueForRep.started,space2pass.started,responseStarted,rtUntillMotionTreshold,responsePointer.stopped,rTAfterMotionTreshold,rtDurationBtwRespMotion,perceivedTime,resp_x_coord,resp_y_coord,feedbackPointer.stopped,actualTime_x_coord,actualTime_y_coord,space2pass.keys,space2pass.rt,expected_delay,expected_delays_frame,expected_distractor,expected_distractor_frame,expBlockFiles,distractor.started,distractor.stopped,participant,session,date,expName,psychopyVersion,frameRate,
,,,,,,,,,0,0,0,0,,,,,fam,0.6641855000052601,0.6641855000052601,270.0,2.664736799997627,2.664736799997627,,,,,,,,,,,,,,,,,,,,,,,,,,,,,,,,,,,,p7_high_01,001,2023-05-03_11h30.45.717,expectation_shapes_perceived_time,2022.2.4,119.95484897920988,
,,,,,,,,,1,0,1,0,,,,,fam,0.4969744999980321,0.4969744999980321,270.0,2.4967141000088304,2.4967141000088304,,,,,,,,,,,,,,,,,,,,,,,,,,,,,,,,,,,,p7_high_01,001,2023-05-03_11h30.45.717,expectation_shapes_perceived_time,2022.2.4,119.95484897920988,
,,,,,,,,,2,0,2,0,,,,,fam,0.49745599999732804,0.49745599999732804,270.0,2.497284299999592,2.497284299999592,,,,,,,,,,,,,,,,,,,,,,,,,,,,,,,,,,,,p7_high_01,001,2023-05-03_11h30.45.717,expectation_shapes_perceived_time,2022.2.4,119.95484897920988,
,,,,,,,,,3,0,3,0,,,,,fam,0.49677430000156164,0.49677430000156164,270.0,2.497288099999423,2.497288099999423,,,,,,,,,,,,,,,,,,,,,,,,,,,,,,,,,,,,p7_high_01,001,2023-05-03_11h30.45.717,expectation_shapes_perceived_time,2022.2.4,119.95484897920988,
,,,,,,,,,4,0,4,0,,,,,fam,0.4974129000038374,0.4974129000038374,270.0,2.4974750999972457,2.4974750999972457,,,,,,,,,,,,,,,,,,,,,,,,,,,,,,,,,,,,p7_high_01,001,2023-05-03_11h30.45.717,expectation_shapes_perceived_time,2022.2.4,119.95484897920988,
,,,,,,,,,,,,,0,0,0,0,test,,,,,,red,1.2192580840162544,1.2166666666666666,2.299517499996,0.9982756999961566,8.369999704882503e-05,8e-05,0.03312819999700878,1.2167095000040717,1.2502589999930933,1.9999390000011772,2.033298399997875,2.299517499996,2.299517499996,2.599570099991979,2.7999196000018856,0.5004021000058856,9.81673839999712,7.517220900001121,7.016818799995235,0.70941,0.1169705259087083,-0.09038631547491094,9.81673839999712,-0.09396051768368333,-0.11411928440497757,space,7.214158900009352,,,,,,,,p7_high_01,001,2023-05-03_11h30.45.717,expectation_shapes_perceived_time,2022.2.4,119.95484897920988,
,,,,,,,,,,,,,1,0,1,0,test,,,,,,green,0.628639965492825,0.625,2.2998499999957858,0.9964152000029571,6.920000305399299e-05,7e-05,0.033470299997134134,0.6249645000061719,0.658271499996772,1.9998639999976149,2.033225699997274,2.2998499999957858,2.2998499999957858,2.600256599995191,2.2998499999957858,0.0,6.47453370000585,4.174683700010064,4.174683700010064,0.72881,0.11124852816826347,-0.09734246214723054,6.47453370000585,0.1359153098076923,-0.058127605458757226,space,3.867845100001432,,,,,,,,p7_high_01,001,2023-05-03_11h30.45.717,expectation_shapes_perceived_time,2022.2.4,119.95484897920988,
,,,,,,,,,,,,,2,0,2,0,test,,,,,,green,1.7217435355787927,1.7249999999999999,2.3000889999966603,0.9984410000033677,5.019998934585601e-05,5e-05,0.03359809999528807,1.7251484000007622,1.7585029999900144,2.0001992999896174,2.0333852999901865,2.3000889999966603,2.3000889999966603,2.600056700001005,2.7083829999901354,0.40829399999347515,,,,,,,,,,space,1.2174177000124473,,,,,,,,p7_high_01,001,2023-05-03_11h30.45.717,expectation_shapes_perceived_time,2022.2.4,119.95484897920988,
,,,,,,,,,,,,,3,0,3,0,test,,,,,,green,1.6862608597245798,1.6833333333333333,2.3000198999943677,0.9971922999975504,4.0799990529194474e-05,4e-05,0.033545199999934994,1.6834228999941843,1.7168524000007892,1.9999502999999095,2.033075799990911,2.3000198999943677,2.3000198999943677,2.6002257999934955,2.816461700000218,0.5164418000058504,6.49160719999054,4.191587299996172,3.6751454999903217,1.57798,-0.1434098690721271,0.035852467268031776,6.49160719999054,-0.12322953148972102,0.08164724444409481,space,3.889580000002752,,,,,,,,p7_high_01,001,2023-05-03_11h30.45.717,expectation_shapes_perceived_time,2022.2.4,119.95484897920988,
,,,,,,,,,,,,,4,0,4,0,test,,,,,,green,1.1532880559348777,1.15,2.3004088000016054,0.9970495000015944,3.120000474154949e-05,3e-05,0.0335722000017995,1.149972400002298,1.1833505999966292,1.9996647000079975,2.0330490000051213,2.3004088000016054,2.3004088000016054,2.599918899999466,2.3004088000016054,0.0,,,,,,,,,,space,0.9170566000102554,,,,,,,,p7_high_01,001,2023-05-03_11h30.45.717,expectation_shapes_perceived_time,2022.2.4,119.95484897920988,
,,,,,,,,,0,0,0,0,0,-1,-1,0,fam,0.5900198000017554,0.5900198000017554,270.0,2.589451099993312,2.589451099993312,,,,,,,,,,,,,,,,,,,,,,,,,,,,,,,,,,,,p7_high_01,001,2023-05-03_11h30.45.717,expectation_shapes_perceived_time,2022.2.4,119.95484897920988,
,,,,,,,,,1,0,1,0,0,-1,-1,0,fam,0.49853960001200903,0.49853960001200903,270.0,2.49860200000694,2.49860200000694,,,,,,,,,,,,,,,,,,,,,,,,,,,,,,,,,,,,p7_high_01,001,2023-05-03_11h30.45.717,expectation_shapes_perceived_time,2022.2.4,119.95484897920988,
,,,,,,,,,2,0,2,0,0,-1,-1,0,fam,0.49865829999907874,0.49865829999907874,270.0,2.4987484000012046,2.4987484000012046,,,,,,,,,,,,,,,,,,,,,,,,,,,,,,,,,,,,p7_high_01,001,2023-05-03_11h30.45.717,expectation_shapes_perceived_time,2022.2.4,119.95484897920988,
,,,,,,,,,3,0,3,0,0,-1,-1,0,fam,0.4982949999975972,0.4982949999975972,270.0,2.498236100000213,2.498236100000213,,,,,,,,,,,,,,,,,,,,,,,,,,,,,,,,,,,,p7_high_01,001,2023-05-03_11h30.45.717,expectation_shapes_perceived_time,2022.2.4,119.95484897920988,
1,-500,0.5,none,46,red,green,no_Expectation,,,,,,0,0,0,4,train_doubleStim,,,,,,red,1.1840950705363686,1.1833333333333333,2.300205499996082,0.9907848000002559,3e-05,3e-05,0.03324,1.1832808000035584,1.2167211000050884,1.9999452000047313,2.0332877000037115,2.300205499996082,2.300205499996082,2.500225199997658,2.300205499996082,0.0,3.2336786999949254,0.9334731999988435,0.9334731999988435,0.36236,0.13421774268678338,0.061946650470823095,,,,None,,-0.5,-0.5,0.6507650705363687,0.65,training_double_stim.csv,0.6499384000053396,0.6833164999989094,p7_high_01,001,2023-05-03_11h30.45.717,expectation_shapes_perceived_time,2022.2.4,119.95484897920988,
1,500,0.5,none,25,green,red,no_Expectation,,,,,,0,1,1,6,train_doubleStim,,,,,,green,1.1669699126754909,1.1666666666666667,2.3000915000011446,0.9976059000036912,5e-05,5e-05,,1.1663451000058558,1.1996836000034818,2.000067900007707,,2.3000915000011446,2.3000915000011446,2.5001806000072975,2.3000915000011446,0.0,2.9916680000023916,0.691576500001247,0.691576500001247,0.73974,0.10784274981593145,-0.10110257795243571,,,,None,,0.5,0.5,1.7002999126754907,1.7,training_double_stim.csv,1.700177500009886,1.7334205000079237,p7_high_01,001,2023-05-03_11h30.45.717,expectation_shapes_perceived_time,2022.2.4,119.95484897920988,
1,-500,0.5,none,68,red,green,no_Expectation,,,,,,0,2,2,3,train_doubleStim,,,,,,red,0.8299004910019837,0.8333333333333334,2.299484699993627,0.9979197000066051,6e-05,6e-05,0.03319,0.8331742000009399,0.8663521999988006,1.9994530999974813,2.0327931999927387,2.299484699993627,2.299484699993627,2.4998644000006607,2.574840300003416,0.27535560000978876,3.149783100001514,0.8502984000078868,0.574942799998098,0.4616,0.14674939164463396,0.017787805047834417,,,,None,,-0.5,-0.5,0.29657049100198374,0.3,training_double_stim.csv,0.2997536000038963,0.33324500000162516,p7_high_01,001,2023-05-03_11h30.45.717,expectation_shapes_perceived_time,2022.2.4,119.95484897920988,
1,-500,0.5,none,77,green,red,no_Expectation,,,,,,0,3,3,1,train_doubleStim,,,,,,green,0.9233706610481595,0.9249999999999999,2.300169800000731,0.9977455999905942,6e-05,6e-05,0.03334,0.9249541000026511,0.9581900000048336,1.9998287000053097,2.0331163000082597,2.300169800000731,2.300169800000731,2.4999305000092136,2.300169800000731,0.0,3.7230785000137985,1.4229087000130676,1.4229087000130676,0.38414,0.1381392565479771,0.05262447868494365,,,,None,,-0.5,-0.5,0.3900406610481595,0.39166666666666666,training_double_stim.csv,0.3915109000081429,0.4247546000115108,p7_high_01,001,2023-05-03_11h30.45.717,expectation_shapes_perceived_time,2022.2.4,119.95484897920988,
1,-500,0.5,none,23,green,red,no_Expectation,,,,,,0,4,4,2,train_doubleStim,,,,,,green,1.55979278409466,1.5583333333333333,2.300086999995983,0.9988856999989366,3e-05,3e-05,0.03359,1.5584024999989197,1.5918171999946935,1.999996699989424,2.03355969999393,2.300086999995983,2.300086999995983,2.5000959999888437,2.366640299995197,0.06655329999921378,2.86654639999324,0.5664593999972567,0.4999060999980429,0.29985,0.11955020622893084,0.08694560453013153,,,,None,,-0.5,-0.5,1.02646278409466,1.025,training_double_stim.csv,1.025015399995027,1.0586311999941245,p7_high_01,001,2023-05-03_11h30.45.717,expectation_shapes_perceived_time,2022.2.4,119.95484897920988,
1,-500,0.5,none,59,green,red,no_Expectation,,,,,,0,5,5,0,train_doubleStim,,,,,,green,1.1875285265072795,1.1833333333333333,2.3000608000002103,0.9979672999907052,6e-05,6e-05,0.0333,1.1834273000131361,1.2168358000053558,1.9999911000049906,2.0335078000061912,2.3000608000002103,2.3000608000002103,2.500014100005501,2.3000608000002103,0.0,4.149871100002201,1.849810300001991,1.849810300001991,0.97556,0.011337545630361491,-0.1473880931946994,,,,None,,-0.5,-0.5,0.6541985265072793,0.65,training_double_stim.csv,0.6500559000123758,0.6835533000121359,p7_high_01,001,2023-05-03_11h30.45.717,expectation_shapes_perceived_time,2022.2.4,119.95484897920988,
1,500,0.5,none,88,red,green,no_Expectation,,,,,,0,6,6,9,train_doubleStim,,,,,,red,0.310958076638904,0.30833333333333335,2.299848700000439,0.9979977000039071,3e-05,3e-05,0.03313,0.3082213000016054,0.34146290000353474,1.9997495999996318,2.0331552999996347,2.299848700000439,2.299848700000439,2.4997918000008212,2.299848700000439,0.0,3.8165656000055606,1.5167169000051217,1.5167169000051217,0.75,0.10452700597570448,-0.10452700597570448,,,,None,,0.5,0.5,0.844288076638904,0.8416666666666667,training_double_stim.csv,0.8415101999999024,0.8749249999964377,p7_high_01,001,2023-05-03_11h30.45.717,expectation_shapes_perceived_time,2022.2.4,119.95484897920988,
1,500,0.5,none,98,red,green,no_Expectation,,,,,,0,7,7,5,train_doubleStim,,,,,,red,0.35416712682677925,0.35,2.2995854999899166,0.9979422000033082,7e-05,7e-05,,0.35001319998991676,0.3834989999886602,1.999811999994563,,2.2995854999899166,2.2995854999899166,2.4998845999944024,2.31635149999056,0.016766000000643544,2.966315699988627,0.6667301999987103,0.6499641999980668,0.247,0.10353629490155976,0.10550841480444662,,,,None,,0.5,0.5,0.8874971268267793,0.8833333333333333,training_double_stim.csv,0.8836142999934964,0.916690899990499,p7_high_01,001,2023-05-03_11h30.45.717,expectation_shapes_perceived_time,2022.2.4,119.95484897920988,
1,500,0.5,none,33,green,red,no_Expectation,,,,,,0,8,8,7,train_doubleStim,,,,,,green,0.5284012761656663,0.525,2.2998940000106813,0.9979036999866366,6e-05,6e-05,0.03322,0.5245805000013206,0.5578854000050342,1.9998297999991337,2.033198300006916,2.2998940000106813,2.2998940000106813,2.5000047000066843,2.2998940000106813,0.0,5.616180000011809,3.316286000001128,3.316286000001128,0.70986,0.11684192696238889,-0.09055249339585139,,,,None,,0.5,0.5,1.0617312761656663,1.0583333333333333,training_double_stim.csv,1.0583626000006916,1.0917099000071175,p7_high_01,001,2023-05-03_11h30.45.717,expectation_shapes_perceived_time,2022.2.4,119.95484897920988,
1,500,0.5,none,60,red,green,no_Expectation,,,,,,0,9,9,8,train_doubleStim,,,,,,red,1.2049347055716917,1.2083333333333333,2.2994844999921042,0.9912555000046268,0.00016,0.00016,0.03328,1.2077666999975918,1.2412277999974322,1.9993706999957794,2.0328739999968093,2.2994844999921042,2.2994844999921042,2.4994720999966376,2.6998694999929285,0.4003850000008242,3.283410299991374,0.9839257999992697,0.5835407999984454,0.70483,0.11825880758807587,-0.0886941056910569,,,,None,,0.5,0.5,1.7382647055716915,1.7416666666666667,training_double_stim.csv,1.741078999999445,1.774454300000798,p7_high_01,001,2023-05-03_11h30.45.717,expectation_shapes_perceived_time,2022.2.4,119.95484897920988,
,,,,,,,,,0,0,0,0,0,-1,-1,0,fam,0.564265199995134,0.564265199995134,270.0,2.5637974999990547,2.5637974999990547,,,,,,,,,,,,,,,,,,,,,,,,,,,,,,,,,,,,p7_high_01,001,2023-05-03_11h30.45.717,expectation_shapes_perceived_time,2022.2.4,119.95484897920988,
,,,,,,,,,1,0,1,0,0,-1,-1,0,fam,0.49721830000635237,0.49721830000635237,270.0,2.497167100009392,2.497167100009392,,,,,,,,,,,,,,,,,,,,,,,,,,,,,,,,,,,,p7_high_01,001,2023-05-03_11h30.45.717,expectation_shapes_perceived_time,2022.2.4,119.95484897920988,
,,,,,,,,,2,0,2,0,0,-1,-1,0,fam,0.4974942999979248,0.4974942999979248,270.0,2.497467199995299,2.497467199995299,,,,,,,,,,,,,,,,,,,,,,,,,,,,,,,,,,,,p7_high_01,001,2023-05-03_11h30.45.717,expectation_shapes_perceived_time,2022.2.4,119.95484897920988,
,,,,,,,,,3,0,3,0,0,-1,-1,0,fam,0.49711959999694955,0.49711959999694955,270.0,2.4968743000063114,2.4968743000063114,,,,,,,,,,,,,,,,,,,,,,,,,,,,,,,,,,,,p7_high_01,001,2023-05-03_11h30.45.717,expectation_shapes_perceived_time,2022.2.4,119.95484897920988,
,167,0.1999999999999999,unmet,,red,green,,1215.8935190491177,,,,,0,0,0,159,trial,,,,,,red,1.2158935190491176,1.2166666666666666,2.301811400000588,0.9986031000007642,9e-05,9e-05,0.03326,1.2165795000037178,1.2499057999957586,2.00015120000171,2.033812699999544,2.301811400000588,2.301811400000588,2.500088400003733,2.4751955999963684,0.17338419999578036,3.12490959999559,0.8230981999950018,0.6497139999992214,1.17325,-0.07654340929054673,-0.12646302404525114,,,,None,,0.167,0.16666666666666666,1.4162235190491177,1.4166666666666667,trial_list_0.8_green.csv,1.4166751000011573,1.449981600002502,p7_high_01,001,2023-05-03_11h30.45.717,expectation_shapes_perceived_time,2022.2.4,119.95484897920988,
,100,0.8,met,,green,red,,368.4798186352342,,,,,0,1,1,352,trial,,,,,,green,0.3684798186352342,0.36666666666666664,2.308045300000231,0.9953963000007207,0.00015,0.00015,0.03303,0.36654149999958463,0.39979379999567755,1.999660200002836,2.0329012000001967,2.308045300000231,2.308045300000231,2.530109300001641,2.32486809999682,0.01682279999658931,3.019155000001774,0.7111097000015434,0.6942869000049541,0.31094,0.12250759556702182,0.08272653132385606,,,,None,,0.1,0.1,0.5018098186352342,0.5,trial_list_0.8_green.csv,0.49964559999352787,0.5330955999961589,p7_high_01,001,2023-05-03_11h30.45.717,expectation_shapes_perceived_time,2022.2.4,119.95484897920988,
,-167,0.8,met,,green,red,,1404.5972968748013,,,,,0,2,2,476,trial,,,,,,green,1.4045972968748013,1.4,2.2998271000105888,0.9923334999912186,6e-05,6e-05,,1.3997700000036275,1.4330808000086108,1.999929500001599,,2.2998271000105888,2.2998271000105888,2.4999620000016876,2.2998271000105888,0.0,2.8746028000023216,0.5747756999917328,0.5747756999917328,1.0696,-0.032067421588962086,-0.14430339715032942,,,,None,,-0.167,-0.16666666666666666,1.2042672968748014,1.2,trial_list_0.8_green.csv,1.1997507000050973,1.2332831000094302,p7_high_01,001,2023-05-03_11h30.45.717,expectation_shapes_perceived_time,2022.2.4,119.95484897920988,
,100,0.8,met,,green,red,,917.3604580690048,,,,,0,3,3,223,trial,,,,,,green,0.9173604580690048,0.9166666666666666,2.3002696000039577,0.9979744000011124,3e-05,3e-05,0.03309,0.9168383000069298,0.9502943999978015,2.0003566999948816,2.034055099997204,2.3002696000039577,2.3002696000039577,2.5172741999995196,2.3002696000039577,0.0,2.8806360000016866,0.5803663999977289,0.5803663999977289,0.40194,0.14086483308038183,0.044820628707394214,,,,None,,0.1,0.1,1.0506904580690049,1.05,trial_list_0.8_green.csv,1.0502768000005744,1.083654200003366,p7_high_01,001,2023-05-03_11h30.45.717,expectation_shapes_perceived_time,2022.2.4,119.95484897920988,
,-33,0.8,met,,green,red,,442.890573985721,,,,,0,4,4,362,trial,,,,,,green,0.442890573985721,0.44166666666666665,2.29994810000062,0.9917254000029061,6e-05,6e-05,,0.44163689999550115,0.47510999999940395,1.9999853999906918,,2.29994810000062,2.29994810000062,2.5001475000026403,2.883677499994519,0.5837293999938993,3.358480299997609,1.0585321999969892,0.47480280000308994,0.8196,0.07936281941253046,-0.12471300193397643,,,,None,,-0.033,-0.03333333333333333,0.376560573985721,0.375,trial_list_0.8_green.csv,0.37505919999966864,0.40852430000086315,p7_high_01,001,2023-05-03_11h30.45.717,expectation_shapes_perceived_time,2022.2.4,119.95484897920988,
,-167,0.8,met,,green,red,,1833.2179602575509,,,,,0,5,5,450,trial,,,,,,green,1.833217960257551,1.8333333333333333,2.29979099999764,0.9974994999938644,3e-05,3e-05,0.03334,1.8335551000054693,1.8666378000052646,2.0001044000091497,2.033366000003298,2.29979099999764,2.29979099999764,2.499708200004534,2.29979099999764,0.0,2.841551600009552,0.5417606000119122,0.5417606000119122,0.6804,0.12471300193397641,-0.07936281941253043,,,,None,,-0.167,-0.16666666666666666,1.632887960257551,1.6333333333333333,trial_list_0.8_green.csv,1.6333772000070894,1.6667353000084404,p7_high_01,001,2023-05-03_11h30.45.717,expectation_shapes_perceived_time,2022.2.4,119.95484897920988,
,-300,0.1999999999999999,unmet,,red,green,,470.7552089788835,,,,,0,6,6,282,trial,,,,,,red,0.4707552089788835,0.4666666666666667,2.299961600001552,0.9980157999962103,0.00019,0.00019,,0.4665703999926336,0.5000959999888437,2.000062799997977,,2.299961600001552,2.299961600001552,2.500104199993075,2.299961600001552,0.0,4.050092399993446,1.7501307999918936,1.7501307999918936,1.0227,-0.010531988969672789,-0.147447845575419,,,,None,,-0.3,-0.3,0.13742520897888352,0.13333333333333333,trial_list_0.8_green.csv,0.13329009999870323,0.16663700000208337,p7_high_01,001,2023-05-03_11h30.45.717,expectation_shapes_perceived_time,2022.2.4,119.95484897920988,
,300,0.1999999999999999,unmet,,red,green,,992.2983237257596,,,,,0,7,7,167,trial,,,,,,red,0.9922983237257595,0.9916666666666667,2.3002581000037026,0.9975899999990361,3e-05,3e-05,,0.991825200006133,1.025014500002726,2.0002272999990964,,2.3002581000037026,2.3002581000037026,2.500090800007456,2.3002581000037026,0.0,3.7165678000019398,1.4163096999982372,1.4163096999982372,0.64549,0.13264942122827478,-0.06523742027620072,,,,None,,0.3,0.3,1.3256283237257593,1.325,trial_list_0.8_green.csv,1.325086900003953,1.3583854000025894,p7_high_01,001,2023-05-03_11h30.45.717,expectation_shapes_perceived_time,2022.2.4,119.95484897920988,
,-33,0.1999999999999999,unmet,,red,green,,1298.5548988997627,,,,,0,8,8,115,trial,,,,,,red,1.2985548988997628,1.3,2.2998040999955265,0.9964233000064269,3e-05,3e-05,0.03319,1.2999668999982532,1.333065799990436,1.9998663000005763,2.0331027999927755,2.2998040999955265,2.2998040999955265,2.499907199991867,2.2998040999955265,0.0,2.8163907999987714,0.5165867000032449,0.5165867000032449,0.72459,0.1125296459023166,-0.09585858725012156,,,,None,,-0.033,-0.03333333333333333,1.2322248988997628,1.2333333333333334,trial_list_0.8_green.csv,1.233111599998665,1.266399200001615,p7_high_01,001,2023-05-03_11h30.45.717,expectation_shapes_perceived_time,2022.2.4,119.95484897920988,
,-100,0.1999999999999999,unmet,,red,green,,1121.7655897607378,,,,,0,9,9,207,trial,,,,,,red,1.121765589760738,1.125,2.300790599998436,0.9955541999952402,5e-05,5e-05,0.03332,1.1258688999951119,1.1592903999990085,2.0011470000026748,2.0341964999970514,2.300790599998436,2.300790599998436,2.500748400008888,2.300790599998436,0.0,3.616806000005454,1.3160154000070179,1.3160154000070179,1.48822,-0.14772222580791766,-0.005471193548441396,,,,None,,-0.1,-0.1,0.9884355897607378,0.9916666666666667,trial_list_0.8_green.csv,0.9924214000056963,1.0258360000007087,p7_high_01,001,2023-05-03_11h30.45.717,expectation_shapes_perceived_time,2022.2.4,119.95484897920988,
,33,0.8,met,,green,red,,1532.8942421869897,,,,,0,10,10,58,trial,,,,,,green,1.5328942421869898,1.5333333333333332,2.300270499996259,0.9956798000057461,9e-05,9e-05,,1.5336582000018097,1.5666774999990594,2.000159999995958,,2.300270499996259,2.300270499996259,2.500035899996874,2.3999800000019604,0.09970950000570156,3.041625700003351,0.7413552000070922,0.6416457000013907,0.60072,0.14048435553009817,-0.04599930225321798,,,,None,,0.033,0.03333333333333333,1.5992242421869896,1.6,trial_list_0.8_green.csv,1.6002408000058495,1.633394699994824,p7_high_01,001,2023-05-03_11h30.45.717,expectation_shapes_perceived_time,2022.2.4,119.95484897920988,
,-167,0.1999999999999999,unmet,,red,green,,886.3757250680645,,,,,0,11,11,209,trial,,,,,,red,0.8863757250680645,0.8833333333333333,2.3067554000008386,0.9979299999977229,6e-05,6e-05,,0.8831214999954682,0.9165083999978378,2.00021199999901,,2.3067554000008386,2.3067554000008386,2.5001857000024756,2.7066825999936555,0.3999271999928169,3.327197199992952,1.0204417999921134,0.6205145999992965,0.25964,0.10764507852687052,0.10131301508411346,,,,None,,-0.167,-0.16666666666666666,0.6860457250680645,0.6833333333333333,trial_list_0.8_green.csv,0.6830540999944787,0.7166141999914544,p7_high_01,001,2023-05-03_11h30.45.717,expectation_shapes_perceived_time,2022.2.4,119.95484897920988,
,-233,0.1999999999999999,unmet,,red,green,,1560.0267578996636,,,,,0,12,12,9,trial,,,,,,red,1.5600267578996636,1.5583333333333333,2.3000565000111237,0.9937404999946011,6e-05,6e-05,0.03346,1.558400599999004,1.5919863000017358,1.9996198000008008,2.032980400006636,2.3000565000111237,2.3000565000111237,2.5000763999996707,3.4416323000041302,1.1415757999930065,3.958206600000267,1.6581500999891432,0.5165742999961367,0.91809,0.03762009263995751,-0.1429563520318385,,,,None,,-0.233,-0.23333333333333334,1.2936967578996637,1.2916666666666667,trial_list_0.8_green.csv,1.2915601999993669,1.3249625000025844,p7_high_01,001,2023-05-03_11h30.45.717,expectation_shapes_perceived_time,2022.2.4,119.95484897920988,
,-33,0.8,met,,green,red,,464.8173949688779,,,,,0,13,13,57,trial,,,,,,green,0.4648173949688779,0.4666666666666667,2.299891300004674,0.9979733000072883,3e-05,3e-05,0.03324,0.4665164000034565,0.4999199000012595,1.9995723000029102,2.032891299997573,2.299891300004674,2.299891300004674,2.5001833999995142,2.299891300004674,0.0,3.283058999993955,0.9831676999892807,0.9831676999892807,0.17682,0.07795662900014806,0.1255967911669052,,,,None,,-0.033,-0.03333333333333333,0.3984873949688779,0.4,trial_list_0.8_green.csv,0.39995180000551045,0.4333033000002615,p7_high_01,001,2023-05-03_11h30.45.717,expectation_shapes_perceived_time,2022.2.4,119.95484897920988,
,-167,0.8,met,,green,red,,1808.6028053574264,,,,,0,14,14,448,trial,,,,,,green,1.8086028053574263,1.8083333333333333,2.3001332999992883,0.9978165999928024,4e-05,4e-05,0.03349,1.808378999994602,1.841673599992646,2.000052199990023,2.033391999997548,2.3001332999992883,2.3001332999992883,2.499727399990661,2.3001332999992883,0.0,3.2833253999997396,0.9831921000004513,0.9831921000004513,1.20182,-0.087569235375043,-0.1190941601100585,,,,None,,-0.167,-0.16666666666666666,1.6082728053574264,1.6083333333333334,trial_list_0.8_green.csv,1.6086603000003379,1.6416745999886189,p7_high_01,001,2023-05-03_11h30.45.717,expectation_shapes_perceived_time,2022.2.4,119.95484897920988,
,-300,0.1999999999999999,unmet,,red,green,,1529.9918865461473,,,,,0,15,15,286,trial,,,,,,red,1.5299918865461473,1.5333333333333332,2.3000849000090966,0.996228499992867,3e-05,3e-05,,1.5332075000042096,1.5667088000045624,2.0001336999994237,,2.3000849000090966,2.3000849000090966,2.4999856000067666,2.6169227000063984,0.31683779999730177,3.100058000010904,0.7999731000018073,0.48313530000450555,1.26026,-0.10784274981593145,-0.10110257795243571,,,,None,,-0.3,-0.3,1.1966618865461474,1.2,trial_list_0.8_green.csv,1.1998700000112876,1.2334624000068288,p7_high_01,001,2023-05-03_11h30.45.717,expectation_shapes_perceived_time,2022.2.4,119.95484897920988,
,233,0.8,met,,green,red,,365.8081071517896,,,,,0,16,16,102,trial,,,,,,green,0.36580810715178963,0.36666666666666664,2.3001489999878686,0.9975632999994559,6e-05,6e-05,,0.36662639999121893,0.39983829999982845,1.9998973999900045,,2.3001489999878686,2.3001489999878686,2.4998233999940567,2.6915253999904962,0.39137640000262763,3.2416289999964647,0.9414800000085961,0.5501036000059685,0.68717,0.1229965945771262,-0.08199772971808414,,,,None,,0.233,0.23333333333333334,0.6321381071517896,0.6333333333333333,trial_list_0.8_green.csv,0.6332628999953158,0.6665291999961482,p7_high_01,001,2023-05-03_11h30.45.717,expectation_shapes_perceived_time,2022.2.4,119.95484897920988,
,-233,0.8,met,,green,red,,1596.822850227017,,,,,0,17,17,355,trial,,,,,,green,1.596822850227017,1.6,2.308984999996028,0.9973576000047615,3e-05,3e-05,0.03333,1.6006405999942217,1.6341356999910204,2.000719499992556,2.033996800004388,2.308984999996028,2.308984999996028,2.5469099000038113,2.308984999996028,0.0,2.985077799996361,0.6760928000003332,0.6760928000003332,1.17174,-0.07594285798985248,-0.12682457284305365,,,,None,,-0.233,-0.23333333333333334,1.330492850227017,1.3333333333333333,trial_list_0.8_green.csv,1.3340972000005422,1.3674518000043463,p7_high_01,001,2023-05-03_11h30.45.717,expectation_shapes_perceived_time,2022.2.4,119.95484897920988,
,100,0.8,met,,green,red,,278.65706775328454,,,,,0,18,18,178,trial,,,,,,green,0.2786570677532845,0.275,2.2998635999974795,0.9951314999925671,6e-05,6e-05,0.03327,0.2748023999884026,0.3081579999998212,1.9997959999891464,2.033180300000822,2.2998635999974795,2.2998635999974795,2.4999523000005865,2.2998635999974795,0.0,3.2832720000005793,0.9834084000030998,0.9834084000030998,0.66877,0.1275270415655032,-0.07475723126253635,,,,None,,0.1,0.1,0.41198706775328453,0.4083333333333333,trial_list_0.8_green.csv,0.4081497000006493,0.4415967999957502,p7_high_01,001,2023-05-03_11h30.45.717,expectation_shapes_perceived_time,2022.2.4,119.95484897920988,
,-233,0.8,met,,green,red,,1618.6327444934373,,,,,0,19,19,368,trial,,,,,,green,1.6186327444934372,1.6166666666666667,2.3006636000063736,0.9977857999911066,3e-05,3e-05,,1.6164796000084607,1.649832700000843,1.9994699000089895,,2.3006636000063736,2.3006636000063736,2.521668600005796,2.3006636000063736,0.0,3.426732499996433,1.1260688999900594,1.1260688999900594,0.96378,0.01678485559544864,-0.1468674864601756,,,,None,,-0.233,-0.23333333333333334,1.3523027444934372,1.35,trial_list_0.8_green.csv,1.3497923999966588,1.383182500008843,p7_high_01,001,2023-05-03_11h30.45.717,expectation_shapes_perceived_time,2022.2.4,119.95484897920988,
,33,0.8,met,,green,red,,444.7101100354956,,,,,0,20,20,397,trial,,,,,,green,0.4447101100354956,0.44166666666666665,2.299821199994767,0.9945019000006141,4e-05,4e-05,0.03332,0.4417710999987321,0.4750787999946624,1.999948199998471,2.0334195000032196,2.299821199994767,2.299821199994767,2.4996779000066454,2.299821199994767,0.0,3.724976900004549,1.4251557000097819,1.4251557000097819,0.54059,0.1466234286677805,-0.018797875470228268,,,,None,,0.033,0.03333333333333333,0.5110401100354955,0.5083333333333333,trial_list_0.8_green.csv,0.5082604000053834,0.541655000008177,p7_high_01,001,2023-05-03_11h30.45.717,expectation_shapes_perceived_time,2022.2.4,119.95484897920988,
,-100,0.8,met,,green,red,,1471.4013106172763,,,,,0,21,21,361,trial,,,,,,green,1.4714013106172763,1.475,2.2999220000056084,0.9977581999992253,0.00018,0.00018,,1.474898899992695,1.5083560999919428,2.0000962000049185,,2.2999220000056084,2.2999220000056084,2.499885600002017,2.2999220000056084,0.0,2.8496916000003694,0.5497695999947609,0.5497695999947609,0.6712,0.12695371323842852,-0.07572677631765913,,,,None,,-0.1,-0.1,1.3380713106172764,1.3416666666666666,trial_list_0.8_green.csv,1.3417456000024686,1.3749467000016011,p7_high_01,001,2023-05-03_11h30.45.717,expectation_shapes_perceived_time,2022.2.4,119.95484897920988,
,-167,0.8,met,,green,red,,615.3463160635883,,,,,0,22,22,369,trial,,,,,,green,0.6153463160635884,0.6166666666666667,2.2996123999910196,0.998527700008708,7e-05,7e-05,,0.6164524999912828,0.6498964999918826,1.9998099999938859,,2.2996123999910196,2.2996123999910196,2.4998239999986254,2.332959399995161,0.03334700000414159,2.8746523000008892,0.5750399000098696,0.541692900005728,0.23383,0.0990840670125752,0.10970021704963684,,,,None,,-0.167,-0.16666666666666666,0.41501631606358835,0.4166666666666667,trial_list_0.8_green.csv,0.41661619998922106,0.44982100000197534,p7_high_01,001,2023-05-03_11h30.45.717,expectation_shapes_perceived_time,2022.2.4,119.95484897920988,
,233,0.8,met,,green,red,,1308.4611992047044,,,,,0,23,23,23,trial,,,,,,green,1.3084611992047044,1.3083333333333333,2.3085431000072276,0.9979567999980645,7e-05,7e-05,0.0332,1.3086042000068119,1.3419515999994474,2.000222999995458,2.0336149000067962,2.3085431000072276,2.3085431000072276,2.51726829999825,2.4764667999988887,0.16792369999166112,2.9888599999976577,0.6803168999904301,0.512393199998769,1.26674,-0.10987634927798347,-0.0988887143501851,,,,None,,0.233,0.23333333333333334,1.5747911992047043,1.575,trial_list_0.8_green.csv,1.5763443000032566,1.6085643999977037,p7_high_01,001,2023-05-03_11h30.45.717,expectation_shapes_perceived_time,2022.2.4,119.95484897920988,
,-33,0.8,met,,green,red,,649.3362313288164,,,,,0,24,24,146,trial,,,,,,green,0.6493362313288165,0.65,2.300416199999745,0.9922465999989072,3e-05,3e-05,0.03333,0.6501004000019748,0.683715300008771,1.9999470000038855,2.0332839000038803,2.300416199999745,2.300416199999745,2.500372399998014,2.300416199999745,0.0,3.1635026000003563,0.8630864000006113,0.8630864000006113,1.00964,-0.004477444999276975,-0.14775568497614017,,,,None,,-0.033,-0.03333333333333333,0.5830062313288163,0.5833333333333334,trial_list_0.8_green.csv,0.5834381000022404,0.6167131999973208,p7_high_01,001,2023-05-03_11h30.45.717,expectation_shapes_perceived_time,2022.2.4,119.95484897920988,
,-233,0.8,met,,green,red,,1492.118559455468,0,0,0,0,0,25,25,6,fam,0.55626779999875,0.55626779999875,270.0,2.556331700005103,2.556331700005103,,,,,,,,,,,,,,,,,,,,,,,,,,,,,,,,,,,,p7_high_01,001,2023-05-03_11h30.45.717,expectation_shapes_perceived_time,2022.2.4,119.95484897920988,
,-233,0.8,met,,green,red,,1492.118559455468,1,0,1,0,0,25,25,6,fam,0.4972649999981513,0.4972649999981513,270.0,2.497306799996295,2.497306799996295,,,,,,,,,,,,,,,,,,,,,,,,,,,,,,,,,,,,p7_high_01,001,2023-05-03_11h30.45.717,expectation_shapes_perceived_time,2022.2.4,119.95484897920988,
,-233,0.8,met,,green,red,,1492.118559455468,2,0,2,0,0,25,25,6,fam,0.4991020000015851,0.4991020000015851,270.0,2.498919299992849,2.498919299992849,,,,,,,,,,,,,,,,,,,,,,,,,,,,,,,,,,,,p7_high_01,001,2023-05-03_11h30.45.717,expectation_shapes_perceived_time,2022.2.4,119.95484897920988,
,-233,0.8,met,,green,red,,1492.118559455468,3,0,3,0,0,25,25,6,fam,0.497612899998785,0.497612899998785,270.0,2.4975328000000445,2.4975328000000445,,,,,,,,,,,,,,,,,,,,,,,,,,,,,,,,,,,,p7_high_01,001,2023-05-03_11h30.45.717,expectation_shapes_perceived_time,2022.2.4,119.95484897920988,
,-233,0.8,met,,green,red,,1492.118559455468,,,,,0,25,25,6,trial,,,,,,green,1.492118559455468,1.4916666666666667,2.2994748999917647,0.9983549999888055,7e-05,7e-05,0.0332,1.4915173999906983,1.524691399987205,1.999695899998187,2.033064299990656,2.2994748999917647,2.2994748999917647,2.499449699986144,2.2994748999917647,0.0,3.048433499992825,0.7489586000010604,0.7489586000010604,0.97664,0.01084011126519584,-0.14742551320666347,,,,None,,-0.233,-0.23333333333333334,1.225788559455468,1.225,trial_list_0.8_green.csv,1.224762699988787,1.2582630999968387,p7_high_01,001,2023-05-03_11h30.45.717,expectation_shapes_perceived_time,2022.2.4,119.95484897920988,
,233,0.1999999999999999,unmet,,red,green,,1082.2425224044596,,,,,0,26,26,312,trial,,,,,,red,1.0822425224044596,1.0833333333333333,2.299737000008463,0.9987785999983316,6e-05,6e-05,0.03315,1.0830759000091348,1.1164113999984693,1.9998208000033628,2.0333422999974573,2.299737000008463,2.299737000008463,2.499845700003789,2.299737000008463,0.0,2.8747163000080036,0.5749792999995407,0.5749792999995407,1.20781,-0.0897954067382136,-0.11742476265766395,,,,None,,0.233,0.23333333333333334,1.3485725224044596,1.35,trial_list_0.8_green.csv,1.3499477000004845,1.3833045000064885,p7_high_01,001,2023-05-03_11h30.45.717,expectation_shapes_perceived_time,2022.2.4,119.95484897920988,
,-100,0.1999999999999999,unmet,,red,green,,1578.869296972504,,,,,0,27,27,30,trial,,,,,,red,1.578869296972504,1.575,2.2997178999939933,0.998143800010439,3e-05,3e-05,,1.5749084999988554,1.6080450000008568,1.9997332999919308,,2.2997178999939933,2.2997178999939933,2.499883799988311,2.9580909999931464,0.658373099999153,3.4248626999906264,1.125144799996633,0.46677169999748,1.51539,-0.14765076235273808,0.007144391726745391,,,,None,,-0.1,-0.1,1.445539296972504,1.4416666666666667,trial_list_0.8_green.csv,1.4413944999978412,1.474693500000285,p7_high_01,001,2023-05-03_11h30.45.717,expectation_shapes_perceived_time,2022.2.4,119.95484897920988,
,33,0.1999999999999999,unmet,,red,green,,902.792998604336,,,,,0,28,28,406,trial,,,,,,red,0.902792998604336,0.9,2.300390200005495,0.9972145999927307,2e-05,2e-05,0.03337,0.9004930000082823,0.9338310000021011,2.000473200008855,2.0338181000115583,2.300390200005495,2.300390200005495,2.5002871000033338,2.5669567000004463,0.2665664999949513,3.5754138000047533,1.2750235999992583,1.008457100004307,1.64165,-0.13342604382965984,0.0636339593649147,,,,None,,0.033,0.03333333333333333,0.969122998604336,0.9666666666666667,trial_list_0.8_green.csv,0.9671094000077574,1.0003075000131503,p7_high_01,001,2023-05-03_11h30.45.717,expectation_shapes_perceived_time,2022.2.4,119.95484897920988,
,-33,0.8,met,,green,red,,1507.0861748339228,,,,,0,29,29,366,trial,,,,,,green,1.5070861748339228,1.5083333333333333,2.3001048999867635,0.9977949000021908,6e-05,6e-05,,1.5083906999934698,1.5416480999992928,2.000023299988243,,2.3001048999867635,2.3001048999867635,2.500027999994927,3.3915968999936013,1.0914920000068378,3.9830347999959486,1.682929900009185,0.5914379000023473,1.74036,-0.10764507852687052,0.10131301508411346,,,,None,,-0.033,-0.03333333333333333,1.4407561748339228,1.4416666666666667,trial_list_0.8_green.csv,1.4416000999917742,1.475022099999478,p7_high_01,001,2023-05-03_11h30.45.717,expectation_shapes_perceived_time,2022.2.4,119.95484897920988,
,167,0.8,met,,green,red,,292.97782228428576,,,,,0,30,30,425,trial,,,,,,green,0.29297782228428576,0.2916666666666667,2.3002521000016714,0.9978755000047386,3e-05,3e-05,0.03332,0.2912598000111757,0.324621500010835,2.0000206000113394,2.033457700003055,2.3002521000016714,2.3002521000016714,2.4999305000092136,2.399945299999672,0.09969319999800064,3.025043800007552,0.7247917000058806,0.6250985000078799,0.50909,0.14776321027414824,-0.004221806007832807,,,,None,,0.167,0.16666666666666666,0.49330782228428577,0.49166666666666664,trial_list_0.8_green.csv,0.49126860000251327,0.5246047999971779,p7_high_01,001,2023-05-03_11h30.45.717,expectation_shapes_perceived_time,2022.2.4,119.95484897920988,
,-33,0.8,met,,green,red,,456.30902755801526,,,,,0,31,31,112,trial,,,,,,green,0.4563090275580153,0.4583333333333333,2.3000806999916676,0.9977095000067493,3e-05,3e-05,0.0332,0.45814099999552127,0.4915935000026366,2.000034400000004,2.0331915999995545,2.3000806999916676,2.3000806999916676,2.499969399999827,2.6665703000035137,0.36648960001184605,3.2079633999965154,0.9078827000048477,0.5413930999930017,0.71343,0.11581937659644151,-0.09185674695579844,,,,None,,-0.033,-0.03333333333333333,0.3899790275580153,0.39166666666666666,trial_list_0.8_green.csv,0.39150119999249,0.42488579999189824,p7_high_01,001,2023-05-03_11h30.45.717,expectation_shapes_perceived_time,2022.2.4,119.95484897920988,
,-100,0.1999999999999999,unmet,,red,green,,1045.079683570363,,,,,0,32,32,287,trial,,,,,,red,1.0450796835703628,1.0416666666666667,2.299549000003026,0.9981336000055308,5e-05,5e-05,0.03322,1.0415176000096835,1.0747571000101743,1.9995439000049373,2.0328467000072123,2.299549000003026,2.299549000003026,2.4998754000116605,2.766696900012903,0.46714790000987705,3.2164754000114044,0.9169264000083786,0.4497784999985015,0.75,0.10452700597570448,-0.10452700597570448,,,,None,,-0.1,-0.1,0.9117496835703629,0.9083333333333333,trial_list_0.8_green.csv,0.9083282000065083,0.9414537000120617,p7_high_01,001,2023-05-03_11h30.45.717,expectation_shapes_perceived_time,2022.2.4,119.95484897920988,
,300,0.8,met,,green,red,,1056.5850620548372,,,,,0,33,33,274,trial,,,,,,green,1.0565850620548372,1.0583333333333333,2.299803800007794,0.9979781000001822,6e-05,6e-05,0.03313,1.0583842000050936,1.0916492999967886,1.9999806999985594,2.033223699996597,2.299803800007794,2.299803800007794,2.4998406000086106,2.7579533999960404,0.45814959998824634,3.241525100005674,0.9417212999978801,0.4835717000096338,1.31653,-0.12394167786693444,-0.08056209061350739,,,,None,,0.3,0.3,1.389915062054837,1.3916666666666666,trial_list_0.8_green.csv,1.3915331000025617,1.424848499998916,p7_high_01,001,2023-05-03_11h30.45.717,expectation_shapes_perceived_time,2022.2.4,119.95484897920988,
,-300,0.1999999999999999,unmet,,red,green,,1461.7606285746142,,,,,0,34,34,316,trial,,,,,,red,1.4617606285746143,1.4583333333333333,2.3002357999939704,0.9978974999976344,7e-05,7e-05,0.03343,1.4585144000011496,1.4919674999982817,2.000821599998744,2.0336957999970764,2.3002357999939704,2.3002357999939704,2.5170387999969535,2.480251100001624,0.18001530000765342,2.9793236999976216,0.6790879000036512,0.49907259999599773,1.57219,-0.14403792615895655,0.033239521421297664,,,,None,,-0.3,-0.3,1.1284306285746142,1.125,trial_list_0.8_green.csv,1.1251205000007758,1.1585911000001943,p7_high_01,001,2023-05-03_11h30.45.717,expectation_shapes_perceived_time,2022.2.4,119.95484897920988,
,-167,0.8,met,,green,red,,1197.523080502047,,,,,0,35,35,320,trial,,,,,,green,1.197523080502047,1.2,2.300218999997014,0.9934950000024401,6e-05,6e-05,,1.2004988999979105,1.2336266999918735,2.000704799997038,,2.300218999997014,2.300218999997014,2.50725959999545,2.50725959999545,0.20704059999843594,2.9793862999940757,0.6791672999970615,0.47212669999862555,1.55966,-0.1452346060448672,0.027544494249888606,,,,None,,-0.167,-0.16666666666666666,0.9971930805020469,1.0,trial_list_0.8_green.csv,1.0002827999996953,1.0335847999958787,p7_high_01,001,2023-05-03_11h30.45.717,expectation_shapes_perceived_time,2022.2.4,119.95484897920988,
,33,0.8,met,,green,red,,1154.7798665633134,,,,,0,36,36,267,trial,,,,,,green,1.1547798665633133,1.1583333333333332,2.299807500006864,0.9934329000097932,6e-05,6e-05,0.0332,1.1581915999995545,1.1916681000002427,1.999948199998471,2.033365800001775,2.299807500006864,2.299807500006864,2.4998234000086086,2.5834183000115445,0.28361080000468064,3.1081071000080556,0.8082996000011917,0.5246887999965111,1.65332,-0.13100495532142498,0.0684798630089267,,,,None,,0.033,0.03333333333333333,1.2211098665633133,1.2166666666666666,trial_list_0.8_green.csv,1.2165151000081096,1.2498852999997325,p7_high_01,001,2023-05-03_11h30.45.717,expectation_shapes_perceived_time,2022.2.4,119.95484897920988,
,-300,0.8,met,,green,red,,977.4110519594682,,,,,0,37,37,29,trial,,,,,,green,0.9774110519594682,0.975,2.3000965999963228,0.9955489999993006,7e-05,7e-05,0.03332,0.9750096000061603,1.0083891999966,2.0001578999945195,2.0336534999951255,2.3000965999963228,2.3000965999963228,2.499960300003295,2.5916435999970417,0.291547000000719,3.091467999998713,0.7913714000023901,0.49982440000167117,1.11164,-0.05078942774563815,-0.1388244358380776,,,,None,,-0.3,-0.3,0.6440810519594682,0.6416666666666666,trial_list_0.8_green.csv,0.6416514000011375,0.6751070000027539,p7_high_01,001,2023-05-03_11h30.45.717,expectation_shapes_perceived_time,2022.2.4,119.95484897920988,
,300,0.8,met,,green,red,,945.0559630786048,,,,,0,38,38,237,trial,,,,,,green,0.9450559630786048,0.9416666666666667,2.299544599998626,0.9981489999918267,9e-05,9e-05,0.03323,0.9415175000031013,0.9749478000012459,1.999819499993464,2.033383000001777,2.299544599998626,2.299544599998626,2.499525099992752,2.299544599998626,0.0,3.1915574000013294,0.8920128000027034,0.8920128000027034,1.01952,-0.009059818701265984,-0.14754561884918888,,,,None,,0.3,0.3,1.2783859630786045,1.275,trial_list_0.8_green.csv,1.2748826000024565,1.3083178999950178,p7_high_01,001,2023-05-03_11h30.45.717,expectation_shapes_perceived_time,2022.2.4,119.95484897920988,
,300,0.8,met,,green,red,,1008.5725837277836,,,,,0,39,39,372,trial,,,,,,green,1.0085725837277837,1.0083333333333333,2.299984900004347,0.997579399991082,6e-05,6e-05,0.03348,1.0084434000018518,1.0417844000039622,1.9999236000003293,2.033536200004164,2.299984900004347,2.299984900004347,2.500112800000352,2.3170140000001993,0.017029099995852448,2.8165412999951513,0.5165563999908045,0.49952729999495205,1.245,-0.10287253180368902,-0.1061556977123174,,,,None,,0.3,0.3,1.3419025837277836,1.3416666666666666,trial_list_0.8_green.csv,1.3416661999945063,1.3751885999954538,p7_high_01,001,2023-05-03_11h30.45.717,expectation_shapes_perceived_time,2022.2.4,119.95484897920988,
,-300,0.1999999999999999,unmet,,red,green,,1388.5694312303751,,,,,0,40,40,279,trial,,,,,,red,1.3885694312303751,1.3916666666666666,2.2995245000056457,0.9981284999958007,4e-05,4e-05,0.0331,1.3916454999998678,1.4248819000058575,1.9997796999959974,2.0332371999975294,2.2995245000056457,2.2995245000056457,2.5001052000006894,2.2995245000056457,0.0,2.907965599995805,0.6084410999901593,0.6084410999901593,0.70871,0.11716845977151755,-0.09012958443962889,,,,None,,-0.3,-0.3,1.0552394312303752,1.0583333333333333,trial_list_0.8_green.csv,1.058011200002511,1.0915971000067657,p7_high_01,001,2023-05-03_11h30.45.717,expectation_shapes_perceived_time,2022.2.4,119.95484897920988,
,233,0.1999999999999999,unmet,,red,green,,647.0392103999707,,,,,0,41,41,230,trial,,,,,,red,0.6470392103999707,0.65,2.3005733999889344,0.9978826999868033,5e-05,5e-05,,0.6499908999976469,0.6832622999936575,2.0003023999888683,,2.3005733999889344,2.3005733999889344,2.5002098999975715,2.757969400001457,0.45739600001252256,3.2308742999885,0.9303008999995654,0.4729048999870429,1.04739,-0.02192820635075728,-0.14618804233838187,,,,None,,0.233,0.23333333333333334,0.9133692103999708,0.9166666666666666,trial_list_0.8_green.csv,0.9165045999980066,0.9498771999933524,p7_high_01,001,2023-05-03_11h30.45.717,expectation_shapes_perceived_time,2022.2.4,119.95484897920988,
,-100,0.1999999999999999,unmet,,red,green,,1564.6122858810436,,,,,0,42,42,69,trial,,,,,,red,1.5646122858810436,1.5666666666666667,2.299753800005419,0.9917076000128873,3e-05,3e-05,0.03311,1.566161499998998,1.5994737000000896,1.9999595999979647,2.033072100006393,2.299753800005419,2.299753800005419,2.499859000003198,2.299753800005419,0.0,3.1080804000084754,0.8083266000030562,0.8083266000030562,1.48114,-0.1475640908454589,-0.008753801999306886,,,,None,,-0.1,-0.1,1.4312822858810437,1.4333333333333333,trial_list_0.8_green.csv,1.4328321000066353,1.4661688000051072,p7_high_01,001,2023-05-03_11h30.45.717,expectation_shapes_perceived_time,2022.2.4,119.95484897920988,
,-100,0.8,met,,green,red,,1546.7400211367485,,,,,0,43,43,246,trial,,,,,,green,1.5467400211367486,1.55,2.299580799997784,0.9978543999895919,0.00012,0.00012,0.0334,1.5498986000020523,1.5838300000032177,2.0000287000002572,2.0334440000005998,2.299580799997784,2.299580799997784,2.499607699995977,2.35794590000296,0.05836510000517592,2.841551499994239,0.5419706999964546,0.4836055999912787,1.69617,-0.12062760262220011,0.08544455185739175,,,,None,,-0.1,-0.1,1.4134100211367486,1.4166666666666667,trial_list_0.8_green.csv,1.41667019999295,1.4498696999944514,p7_high_01,001,2023-05-03_11h30.45.717,expectation_shapes_perceived_time,2022.2.4,119.95484897920988,
,-300,0.8,met,,green,red,,613.9206386193509,,,,,0,44,44,88,trial,,,,,,green,0.613920638619351,0.6166666666666667,2.3000870999967447,0.9953340999927605,6e-05,6e-05,0.03348,0.6168400000024121,0.6500743999931728,2.0000848999916343,2.0337050999951316,2.3000870999967447,2.3000870999967447,2.4999326999968616,2.3832892999926116,0.08320219999586698,2.9164783000014722,0.6163912000047276,0.5331890000088606,0.76344,0.10002112487701935,-0.10884651824852105,,,,None,,-0.3,-0.3,0.28059063861935096,0.2833333333333333,trial_list_0.8_green.csv,0.2832988000009209,0.3167124000028707,p7_high_01,001,2023-05-03_11h30.45.717,expectation_shapes_perceived_time,2022.2.4,119.95484897920988,
,300,0.8,met,,green,red,,1126.8730798159652,,,,,0,45,45,254,trial,,,,,,green,1.1268730798159652,1.125,2.2994974000030197,0.9965209999936633,7e-05,7e-05,0.03331,1.1250620000064373,1.1584026000055019,1.9999507000029553,2.033209400004125,2.2994974000030197,2.2994974000030197,2.49978430000192,2.4164779000129784,0.11698050000995863,2.841406300009112,0.5419089000060922,0.4249283999961335,0.67862,0.12515278596272092,-0.07866746546228173,,,,None,,0.3,0.3,1.460203079815965,1.4583333333333333,trial_list_0.8_green.csv,1.4582374000019627,1.4916278000018792,p7_high_01,001,2023-05-03_11h30.45.717,expectation_shapes_perceived_time,2022.2.4,119.95484897920988,
,-100,0.8,met,,green,red,,339.8717789246724,,,,,0,46,46,241,trial,,,,,,green,0.3398717789246724,0.3416666666666667,2.2998431000014534,0.997852000000421,3e-05,3e-05,0.03333,0.34156839999195654,0.3747430999937933,1.9998730999941472,2.0332080999942264,2.2998431000014534,2.2998431000014534,2.499889200000325,2.6415560000023106,0.3417129000008572,3.174756599997636,0.8749134999961825,0.5332005999953253,0.49021,0.14775358350696974,0.004546264107906762,,,,None,,-0.1,-0.1,0.20654177892467243,0.20833333333333334,trial_list_0.8_green.csv,0.20815540000330657,0.24136820000421721,p7_high_01,001,2023-05-03_11h30.45.717,expectation_shapes_perceived_time,2022.2.4,119.95484897920988,
,-233,0.8,met,,green,red,,403.3398531612008,,,,,0,47,47,307,trial,,,,,,green,0.4033398531612008,0.4,2.2996242999943206,0.998016400000779,6e-05,6e-05,,0.3997205000050599,0.43305390000750776,1.9998469999991357,,2.2996242999943206,2.2996242999943206,2.499654200000805,2.2996242999943206,0.0,3.0495308999961708,0.7499066000018502,0.7499066000018502,0.34762,0.13120584450673597,0.06809417246552121,,,,None,,-0.233,-0.23333333333333334,0.1370098531612008,0.13333333333333333,trial_list_0.8_green.csv,0.13312179999775253,0.1662575999944238,p7_high_01,001,2023-05-03_11h30.45.717,expectation_shapes_perceived_time,2022.2.4,119.95484897920988,
,-100,0.8,met,,green,red,,373.58239112836617,,,,,0,48,48,191,trial,,,,,,green,0.37358239112836616,0.375,2.316580399987288,0.9977908000000753,6e-05,6e-05,,0.3747193999879528,0.4082629999902565,2.002848099989933,2.0393089999997756,2.316580399987288,2.316580399987288,2.516376199986553,2.4748127999919234,0.15823240000463556,3.0161565999878803,0.6995762000005925,0.5413437999959569,0.57131,0.1441296177231439,-0.03283965973438722,,,,None,,-0.1,-0.1,0.2402523911283662,0.24166666666666667,trial_list_0.8_green.csv,0.2415933999873232,0.27492709999205545,p7_high_01,001,2023-05-03_11h30.45.717,expectation_shapes_perceived_time,2022.2.4,119.95484897920988,
,-100,0.8,met,,green,red,,1600.7795214461944,,,,,0,49,49,144,trial,,,,,,green,1.6007795214461944,1.6,2.3081368999992264,0.9910989000054542,0.00012,0.00012,,1.6000371999980416,1.6332988000067417,2.003966800009948,2.0379433000052813,2.3081368999992264,2.3081368999992264,2.5081150000041816,2.551145400007954,0.24300850000872742,3.0327424999995856,0.7246056000003591,0.4815970999916317,1.24626,-0.10329012863517166,-0.10574941741219954,,,,None,,-0.1,-0.1,1.4674495214461944,1.4666666666666666,trial_list_0.8_green.csv,1.4667740000004414,1.4998071000009077,p7_high_01,001,2023-05-03_11h30.45.717,expectation_shapes_perceived_time,2022.2.4,119.95484897920988,
,233,0.8,met,,green,red,,376.2938874994856,0,0,0,0,0,50,50,475,fam,0.6045584999956191,0.6045584999956191,270.0,2.604548999996041,2.604548999996041,,,,,,,,,,,,,,,,,,,,,,,,,,,,,,,,,,,,p7_high_01,001,2023-05-03_11h30.45.717,expectation_shapes_perceived_time,2022.2.4,119.95484897920988,
,233,0.8,met,,green,red,,376.2938874994856,1,0,1,0,0,50,50,475,fam,0.497765399995842,0.497765399995842,270.0,2.4977223000023514,2.4977223000023514,,,,,,,,,,,,,,,,,,,,,,,,,,,,,,,,,,,,p7_high_01,001,2023-05-03_11h30.45.717,expectation_shapes_perceived_time,2022.2.4,119.95484897920988,
,233,0.8,met,,green,red,,376.2938874994856,2,0,2,0,0,50,50,475,fam,0.49689199999556877,0.49689199999556877,270.0,2.497118799990858,2.497118799990858,,,,,,,,,,,,,,,,,,,,,,,,,,,,,,,,,,,,p7_high_01,001,2023-05-03_11h30.45.717,expectation_shapes_perceived_time,2022.2.4,119.95484897920988,
,233,0.8,met,,green,red,,376.2938874994856,3,0,3,0,0,50,50,475,fam,0.49742159999732394,0.49742159999732394,270.0,2.497021200004383,2.497021200004383,,,,,,,,,,,,,,,,,,,,,,,,,,,,,,,,,,,,p7_high_01,001,2023-05-03_11h30.45.717,expectation_shapes_perceived_time,2022.2.4,119.95484897920988,
,233,0.8,met,,green,red,,376.2938874994856,,,,,0,50,50,475,trial,,,,,,green,0.3762938874994856,0.375,2.2999702999950387,0.9978993000113405,3e-05,3e-05,0.03345,0.3751691000070423,0.40833910000219475,2.000281400003587,2.033374799997546,2.2999702999950387,2.2999702999950387,2.499875900000916,2.3499325000011595,0.04996220000612084,3.1334533000044758,0.8334830000094371,0.7835208000033163,0.23065,0.09798314153096298,0.1106846598775693,,,,None,,0.233,0.23333333333333334,0.6426238874994857,0.6416666666666666,trial_list_0.8_green.csv,0.6416996000043582,0.6751124000002164,p7_high_01,001,2023-05-03_11h30.45.717,expectation_shapes_perceived_time,2022.2.4,119.95484897920988,
,-300,0.8,met,,green,red,,1645.0720496247852,,,,,0,51,51,299,trial,,,,,,green,1.6450720496247853,1.6416666666666666,2.2997508000116795,0.99781190000067,6e-05,6e-05,,1.6413680000114255,1.6745626000047196,1.999590999999782,,2.2997508000116795,2.2997508000116795,2.4998179000103846,2.3747960000036983,0.07504519999201875,2.907965900012641,0.6082151000009617,0.5331699000089429,0.441,0.14529161604792165,0.027242178008985308,,,,None,,-0.3,-0.3,1.3117420496247854,1.3083333333333333,trial_list_0.8_green.csv,1.308243700012099,1.3415375000040513,p7_high_01,001,2023-05-03_11h30.45.717,expectation_shapes_perceived_time,2022.2.4,119.95484897920988,
,300,0.8,met,,green,red,,1057.614631869665,,,,,0,52,52,444,trial,,,,,,green,1.0576146318696649,1.0583333333333333,2.30014070001198,0.997861700001522,4e-05,4e-05,0.03317,1.058147400006419,1.0915347000118345,2.000005300011253,2.0330667000089306,2.30014070001198,2.30014070001198,2.499845700003789,2.624983000001521,0.32484229998954106,3.1579547000001185,0.8578139999881387,0.5329716999985976,0.78022,0.0941460506209372,-0.11396627180429239,,,,None,,0.3,0.3,1.3909446318696648,1.3916666666666666,trial_list_0.8_green.csv,1.3915606000082335,1.4251072000042768,p7_high_01,001,2023-05-03_11h30.45.717,expectation_shapes_perceived_time,2022.2.4,119.95484897920988,
,-100,0.1999999999999999,unmet,,red,green,,892.0024385205684,,,,,0,53,53,296,trial,,,,,,red,0.8920024385205684,0.8916666666666666,2.3003507999965223,0.9977465999982087,4e-05,4e-05,0.0333,0.8918182000052184,0.9252114999981131,2.000039699996705,2.033550499996636,2.3003507999965223,2.3003507999965223,2.500330299997586,2.7417409000045154,0.44139010000799317,3.241868199998862,0.9415174000023399,0.5001272999943467,0.41629,0.14274071023863727,0.03843019121809465,,,,None,,-0.1,-0.1,0.7586724385205683,0.7583333333333333,trial_list_0.8_green.csv,0.7587139000097523,0.7919120000005933,p7_high_01,001,2023-05-03_11h30.45.717,expectation_shapes_perceived_time,2022.2.4,119.95484897920988,
,300,0.8,met,,green,red,,754.1957914915804,,,,,0,54,54,329,trial,,,,,,green,0.7541957914915804,0.75,2.299648200001684,0.997699300001841,4e-05,4e-05,0.03334,0.74951229999715,0.7829562999977497,1.999776099997689,2.0331635999900755,2.299648200001684,2.299648200001684,2.499629300000379,2.5746396999893477,0.2749914999876637,2.9998519999935525,0.7002037999918684,0.42521230000420474,0.47881,0.1474961037465033,0.009833073583100219,,,,None,,0.3,0.3,1.0875257914915804,1.0833333333333333,trial_list_0.8_green.csv,1.0828153999900678,1.116128800000297,p7_high_01,001,2023-05-03_11h30.45.717,expectation_shapes_perceived_time,2022.2.4,119.95484897920988,
,-167,0.8,met,,green,red,,933.6797511382462,,,,,0,55,55,349,trial,,,,,,green,0.9336797511382462,0.9333333333333333,2.299659199998132,0.997883299991372,5e-05,5e-05,0.03344,0.9333485999959521,0.9666694000043208,1.999544899998,2.032895099997404,2.299659199998132,2.299659199998132,2.5003033999964828,2.65150980000908,0.35185060001094826,3.1603793000103906,0.8607201000122586,0.5088695000013104,0.44743,0.1458122115556408,0.02430203525927347,,,,None,,-0.167,-0.16666666666666666,0.7333497511382461,0.7333333333333333,trial_list_0.8_green.csv,0.7331265000102576,0.7668724999966798,p7_high_01,001,2023-05-03_11h30.45.717,expectation_shapes_perceived_time,2022.2.4,119.95484897920988,
,167,0.8,met,,green,red,,1228.5317116907734,,,,,0,56,56,195,trial,,,,,,green,1.2285317116907735,1.225,2.299806399998488,0.9938342999957968,4e-05,4e-05,0.03317,1.2246920999896247,1.258012599995709,1.9999259999895003,2.0330763999954797,2.299806399998488,2.299806399998488,2.500002599990694,2.299806399998488,0.0,2.874490699992748,0.5746842999942601,0.5746842999942601,0.78398,0.09279657042274424,-0.11506774732420286,,,,None,,0.167,0.16666666666666666,1.4288617116907734,1.425,trial_list_0.8_green.csv,1.4247969999996712,1.4582164000021294,p7_high_01,001,2023-05-03_11h30.45.717,expectation_shapes_perceived_time,2022.2.4,119.95484897920988,
,-233,0.8,met,,green,red,,859.954728131526,,,,,0,57,57,10,trial,,,,,,green,0.8599547281315261,0.8583333333333333,2.3000234000064665,0.9979472999984864,6e-05,6e-05,,0.8581369000021368,0.8913530999998329,1.9999184000043897,,2.3000234000064665,2.3000234000064665,2.499975300001097,2.3000234000064665,0.0,2.9916245000058552,0.6916010999993887,0.6916010999993887,0.39758,0.14023769450772117,0.046745898169240394,,,,None,,-0.233,-0.23333333333333334,0.593624728131526,0.5916666666666667,trial_list_0.8_green.csv,0.5915501999988919,0.6249114999955054,p7_high_01,001,2023-05-03_11h30.45.717,expectation_shapes_perceived_time,2022.2.4,119.95484897920988,
,-167,0.8,met,,green,red,,1236.1005186348175,,,,,0,58,58,378,trial,,,,,,green,1.2361005186348175,1.2333333333333334,2.309824399999343,0.9978273999877274,7e-05,7e-05,0.03322,1.2336688000068534,1.267310000010184,2.001749800008838,2.0344304000027478,2.309824399999343,2.309824399999343,2.5839970000088215,2.309824399999343,0.0,2.946315900000627,0.6364915000012843,0.6364915000012843,0.99064,0.004345870983325183,-0.14775961343305624,,,,None,,-0.167,-0.16666666666666666,1.0357705186348176,1.0333333333333332,trial_list_0.8_green.csv,1.0333901000121841,1.0668327000021236,p7_high_01,001,2023-05-03_11h30.45.717,expectation_shapes_perceived_time,2022.2.4,119.95484897920988,
,233,0.1999999999999999,unmet,,red,green,,214.9065442018329,,,,,0,59,59,269,trial,,,,,,red,0.2149065442018329,0.21666666666666667,2.3007645000034245,0.9931555000075605,6e-05,6e-05,0.03331,0.21675900000263937,0.2501302000018768,1.9998414000001503,2.033368000003975,2.3007645000034245,2.3007645000034245,2.5977107000071555,2.3156367000046885,0.014872200001263991,3.0914818000019295,0.790717299998505,0.775845099997241,0.17262,0.07629314779562503,0.12661416017146282,,,,None,,0.233,0.23333333333333334,0.48123654420183287,0.48333333333333334,trial_list_0.8_green.csv,0.4832541000068886,0.5166737000108697,p7_high_01,001,2023-05-03_11h30.45.717,expectation_shapes_perceived_time,2022.2.4,119.95484897920988,
,233,0.8,met,,green,red,,777.3750830381058,,,,,0,60,60,416,trial,,,,,,green,0.7773750830381058,0.775,2.299822300003143,0.9979939000040758,7e-05,7e-05,0.03334,0.7749795999989146,0.8082568000099855,1.9997943000053056,2.033209100001841,2.299822300003143,2.299822300003143,2.4995329000084894,2.299822300003143,0.0,3.1831902999983868,0.8833679999952437,0.8833679999952437,1.50482,-0.1478065446018709,0.0022394931000283467,,,,None,,0.233,0.23333333333333334,1.0437050830381058,1.0416666666666667,trial_list_0.8_green.csv,1.0416776000056416,1.0751281999982893,p7_high_01,001,2023-05-03_11h30.45.717,expectation_shapes_perceived_time,2022.2.4,119.95484897920988,
,233,0.1999999999999999,unmet,,red,green,,598.0053702209204,,,,,0,61,61,447,trial,,,,,,red,0.5980053702209205,0.6,2.300196700001834,0.9955883000075119,6e-05,6e-05,,0.5999413999961689,0.6336065000068629,1.9999908000027062,,2.300196700001834,2.300196700001834,2.500157799993758,2.425234199996339,0.1250374999945052,3.0330114999960642,0.7328147999942303,0.6077772999997251,0.34247,0.13008796598872852,0.07020620386693285,,,,None,,0.233,0.23333333333333334,0.8643353702209204,0.8666666666666667,trial_list_0.8_green.csv,0.8669420000078389,0.9001566999941133,p7_high_01,001,2023-05-03_11h30.45.717,expectation_shapes_perceived_time,2022.2.4,119.95484897920988,
,233,0.8,met,,green,red,,964.6779152021916,,,,,0,62,62,174,trial,,,,,,green,0.9646779152021916,0.9666666666666667,2.299999700000626,0.998765899988939,6e-05,6e-05,0.03345,0.9667795999994269,1.0000479000009364,2.000101600002381,2.0332991000032052,2.299999700000626,2.299999700000626,2.500159999995958,2.899886900006095,0.5998872000054689,2.983257700005197,0.6832580000045709,0.08337079999910202,0.88209,0.05351351190394081,-0.1377972931526476,,,,None,,0.233,0.23333333333333334,1.2310079152021915,1.2333333333333334,trial_list_0.8_green.csv,1.2331228999973973,1.2667226000048686,p7_high_01,001,2023-05-03_11h30.45.717,expectation_shapes_perceived_time,2022.2.4,119.95484897920988,
,100,0.1999999999999999,unmet,,red,green,,590.8064049903237,,,,,0,63,63,125,trial,,,,,,red,0.5908064049903237,0.5916666666666667,2.3002057999983663,0.9973076000023866,3e-05,3e-05,0.03332,0.5920424000069033,0.625430400003097,2.0002244000061182,2.0338120000087656,2.3002057999983663,2.3002057999983663,2.5004964000108885,2.3002057999983663,0.0,2.9170311000052607,0.6168253000068944,0.6168253000068944,0.86756,0.05974491846580308,-0.13521218389629117,,,,None,,0.1,0.1,0.7241364049903237,0.725,trial_list_0.8_green.csv,0.7252816000109306,0.7587925000116229,p7_high_01,001,2023-05-03_11h30.45.717,expectation_shapes_perceived_time,2022.2.4,119.95484897920988,
,-167,0.8,met,,green,red,,1037.777927176072,,,,,0,64,64,131,trial,,,,,,green,1.0377779271760719,1.0333333333333332,2.300018399997498,0.9977061000099638,8e-05,8e-05,0.03338,1.0328896999999415,1.066238200000953,1.9998262000008253,2.0332195999944815,2.300018399997498,2.300018399997498,2.4999485000007553,2.483144700003322,0.1831263000058243,3.0997045999974944,0.7996861999999965,0.6165598999941722,0.51479,0.14766387281921273,-0.006868087107870359,,,,None,,-0.167,-0.16666666666666666,0.8374479271760719,0.8333333333333334,trial_list_0.8_green.csv,0.8328693999937968,0.866180600001826,p7_high_01,001,2023-05-03_11h30.45.717,expectation_shapes_perceived_time,2022.2.4,119.95484897920988,
,-300,0.1999999999999999,unmet,,red,green,,1561.1173592427426,,,,,0,65,65,138,trial,,,,,,red,1.5611173592427425,1.5583333333333333,2.2997183999978006,0.998162499992759,4e-05,4e-05,0.03317,1.5578722999925958,1.5912798999925144,1.9993482999998378,2.0328902000037488,2.2997183999978006,2.2997183999978006,2.499662599992007,2.4663523999915924,0.1666339999937918,3.0496952999965288,0.7499768999987282,0.5833429000049364,0.81762,0.08013909648327096,-0.12421559954906998,,,,None,,-0.3,-0.3,1.2277873592427426,1.225,trial_list_0.8_green.csv,1.2248944000020856,1.257986600001459,p7_high_01,001,2023-05-03_11h30.45.717,expectation_shapes_perceived_time,2022.2.4,119.95484897920988,
,233,0.8,met,,green,red,,378.0178947378125,,,,,0,66,66,87,trial,,,,,,green,0.3780178947378125,0.375,2.29995320001035,0.9978556999994908,0.00015,0.00015,0.0333,0.37493770000583027,0.4082242000004044,1.9998739000002388,2.033116100006737,2.29995320001035,2.29995320001035,2.4997522000048775,3.0583553000033135,0.7584020999929635,3.658196800010046,1.358243599999696,0.5998415000067325,0.58542,0.1425322250287107,-0.03919636188289544,,,,None,,0.233,0.23333333333333334,0.6443478947378126,0.6416666666666666,trial_list_0.8_green.csv,0.641824300008011,0.6749229000124615,p7_high_01,001,2023-05-03_11h30.45.717,expectation_shapes_perceived_time,2022.2.4,119.95484897920988,
,-100,0.8,met,,green,red,,1814.526736584696,,,,,0,67,67,154,trial,,,,,,green,1.814526736584696,1.8166666666666667,2.3001189999922644,0.9975373000052059,3e-05,3e-05,,1.8168705999996746,1.8502548999967985,1.9999260999902617,,2.3001189999922644,2.3001189999922644,2.500042999992729,2.3916812999959802,0.09156230000371579,3.2330060999956913,0.9328871000034269,0.8413247999997111,1.28522,-0.11543076785931652,-0.0923446142874532,,,,None,,-0.1,-0.1,1.681196736584696,1.6833333333333333,trial_list_0.8_green.csv,1.683579299991834,1.7167871999990894,p7_high_01,001,2023-05-03_11h30.45.717,expectation_shapes_perceived_time,2022.2.4,119.95484897920988,
,100,0.1999999999999999,unmet,,red,green,,1521.793259198837,,,,,0,68,68,402,trial,,,,,,red,1.521793259198837,1.525,2.3283203999890247,0.9987974000105169,6e-05,6e-05,0.03326,1.5330829999875277,1.5666290999943158,1.999716799997259,2.0349140999896917,2.3283203999890247,2.3283203999890247,2.560949899998377,2.4092601999873295,0.0809397999983048,3.132734699989669,0.8044143000006443,0.7234745000023395,1.51097,-0.14773570222490573,0.005094334559479508,,,,None,,0.1,0.1,1.655123259198837,1.6583333333333332,trial_list_0.8_green.csv,1.666816299999482,1.7103670999931637,p7_high_01,001,2023-05-03_11h30.45.717,expectation_shapes_perceived_time,2022.2.4,119.95484897920988,
,-300,0.8,met,,green,red,,949.4031534690508,,,,,0,69,69,295,trial,,,,,,green,0.9494031534690508,0.95,2.3008150000096066,0.9945048000081442,2e-05,2e-05,0.03358,0.9509135999978753,0.9843728999985615,2.000887500005774,,2.3008150000096066,2.3008150000096066,2.5125073000090197,2.313001400005305,0.012186399995698594,3.0678887000103714,0.7670737000007648,0.7548873000050662,1.21315,-0.09175448758384883,-0.1159004053690722,,,,None,,-0.3,-0.3,0.6160731534690508,0.6166666666666667,trial_list_0.8_green.csv,0.617717500004801,0.6510739000077592,p7_high_01,001,2023-05-03_11h30.45.717,expectation_shapes_perceived_time,2022.2.4,119.95484897920988,
,100,0.8,met,,green,red,,1744.0522353192798,,,,,0,70,70,145,trial,,,,,,green,1.7440522353192798,1.7416666666666667,2.3000417000002926,0.9955617999949027,6e-05,6e-05,0.03339,1.7417254999891156,1.7749424999929033,2.00014679999731,2.033319299996947,2.3000417000002926,2.3000417000002926,2.501141299988376,2.393397799998638,0.0933560999983456,3.033130199997686,0.7330884999973932,0.6397323999990476,1.68373,-0.12387581782324833,0.08066332323374309,,,,None,,0.1,0.1,1.8773822353192797,1.875,trial_list_0.8_green.csv,1.8749365999974543,1.9083746999967843,p7_high_01,001,2023-05-03_11h30.45.717,expectation_shapes_perceived_time,2022.2.4,119.95484897920988,
,-33,0.1999999999999999,unmet,,red,green,,1575.2570612892494,,,,,0,71,71,196,trial,,,,,,red,1.5752570612892494,1.575,2.2997439000027953,0.998013100004755,4e-05,4e-05,0.03325,1.5743677999998908,1.6077783000073396,1.9997808000043733,2.033114799996838,2.2997439000027953,2.2997439000027953,2.4999824999977136,2.2997439000027953,0.0,3.2664237999997567,0.9666798999969615,0.9666798999969615,1.90785,-0.04220015090706199,0.14167193518799379,,,,None,,-0.033,-0.03333333333333333,1.5089270612892494,1.5083333333333333,trial_list_0.8_green.csv,1.5078761000040686,1.5410833000059938,p7_high_01,001,2023-05-03_11h30.45.717,expectation_shapes_perceived_time,2022.2.4,119.95484897920988,
,100,0.8,met,,green,red,,1271.4588733589412,,,,,0,72,72,83,trial,,,,,,green,1.2714588733589411,1.275,2.2994508999981917,0.9978787000000011,7e-05,7e-05,0.03314,1.2747801999939838,1.3082407000038074,1.9997881000017514,2.033299699993222,2.2994508999981917,2.2994508999981917,2.4994376999966335,2.624501899990719,0.32505099999252707,3.1747919999907026,0.8753410999925109,0.5502900999999838,1.81567,-0.08089632139958569,0.1237237856699546,,,,None,,0.1,0.1,1.404788873358941,1.4083333333333332,trial_list_0.8_green.csv,1.408198099990841,1.4415694999916013,p7_high_01,001,2023-05-03_11h30.45.717,expectation_shapes_perceived_time,2022.2.4,119.95484897920988,
,233,0.1999999999999999,unmet,,red,green,,974.7158803941048,,,,,0,73,73,203,trial,,,,,,red,0.9747158803941048,0.975,2.2999991000106093,0.9962301999912597,5e-05,5e-05,,0.975177000000258,1.008490799998981,2.000180300005013,,2.2999991000106093,2.2999991000106093,2.5002661000035005,2.58326530001068,0.28326620000007097,3.1332820000097854,0.8332828999991762,0.5500166999991052,1.77192,-0.0970876346591916,0.11147098794203478,,,,None,,0.233,0.23333333333333334,1.2410458803941047,1.2416666666666667,trial_list_0.8_green.csv,1.2418002000049455,1.2751442000007955,p7_high_01,001,2023-05-03_11h30.45.717,expectation_shapes_perceived_time,2022.2.4,119.95484897920988,
,-33,0.8,met,,green,red,,920.135604125051,,,,,0,74,74,79,trial,,,,,,green,0.920135604125051,0.9166666666666666,2.3002371000038693,0.9972598000022117,9e-05,9e-05,0.03322,0.9168272999959299,0.9501771000068402,2.000017200000002,2.033503099999507,2.3002371000038693,2.3002371000038693,2.5193464000039967,2.3999089999997523,0.099671899995883,3.2748844000016106,0.9746472999977414,0.8749754000018584,0.58075,0.14309269865755464,-0.03709810705936602,,,,None,,-0.033,-0.03333333333333333,0.853805604125051,0.85,trial_list_0.8_green.csv,0.8502912999974797,0.8834640999994008,p7_high_01,001,2023-05-03_11h30.45.717,expectation_shapes_perceived_time,2022.2.4,119.95484897920988,
,-300,0.8,met,,green,red,,458.9808236344039,0,0,0,0,0,75,75,151,fam,0.6294330000091577,0.6294330000091577,270.0,2.6294074000034016,2.6294074000034016,,,,,,,,,,,,,,,,,,,,,,,,,,,,,,,,,,,,p7_high_01,001,2023-05-03_11h30.45.717,expectation_shapes_perceived_time,2022.2.4,119.95484897920988,
,-300,0.8,met,,green,red,,458.9808236344039,1,0,1,0,0,75,75,151,fam,0.49703389999922365,0.49703389999922365,270.0,2.496999199996935,2.496999199996935,,,,,,,,,,,,,,,,,,,,,,,,,,,,,,,,,,,,p7_high_01,001,2023-05-03_11h30.45.717,expectation_shapes_perceived_time,2022.2.4,119.95484897920988,
,-300,0.8,met,,green,red,,458.9808236344039,2,0,2,0,0,75,75,151,fam,0.49752750000334345,0.49752750000334345,270.0,2.497508200001903,2.497508200001903,,,,,,,,,,,,,,,,,,,,,,,,,,,,,,,,,,,,p7_high_01,001,2023-05-03_11h30.45.717,expectation_shapes_perceived_time,2022.2.4,119.95484897920988,
,-300,0.8,met,,green,red,,458.9808236344039,3,0,3,0,0,75,75,151,fam,0.49730849999468774,0.49730849999468774,270.0,2.497486200009007,2.497486200009007,,,,,,,,,,,,,,,,,,,,,,,,,,,,,,,,,,,,p7_high_01,001,2023-05-03_11h30.45.717,expectation_shapes_perceived_time,2022.2.4,119.95484897920988,
,-300,0.8,met,,green,red,,458.9808236344039,,,,,0,75,75,151,trial,,,,,,green,0.4589808236344039,0.4583333333333333,2.2999962999892887,0.9982203999970807,5e-05,5e-05,0.03342,0.45837399999436457,0.49157879999256693,1.9999705999944126,2.033299699993222,2.2999962999892887,2.2999962999892887,2.4997677999926964,2.3250543999893125,0.025058100000023842,3.8951786999969045,1.5951824000076158,1.570124300007592,0.27744,0.11313850956538227,0.0951392012254351,,,,None,,-0.3,-0.3,0.1256508236344039,0.125,trial_list_0.8_green.csv,0.12493619999440853,0.15840629999001976,p7_high_01,001,2023-05-03_11h30.45.717,expectation_shapes_perceived_time,2022.2.4,119.95484897920988,
,100,0.8,met,,green,red,,880.5366574874749,,,,,0,76,76,225,trial,,,,,,green,0.8805366574874749,0.8833333333333333,2.3001625000033528,0.9939499000029173,3e-05,3e-05,0.0334,0.8832785000122385,0.916658300004201,2.0001169000024674,2.0334127000096487,2.3001625000033528,2.3001625000033528,2.4999340000067605,2.3001625000033528,0.0,3.366454300004989,1.0662918000016361,1.0662918000016361,0.71478,0.11543076785931652,-0.0923446142874532,,,,None,,0.1,0.1,1.013866657487475,1.0166666666666666,trial_list_0.8_green.csv,1.0167442000092706,1.050083900001482,p7_high_01,001,2023-05-03_11h30.45.717,expectation_shapes_perceived_time,2022.2.4,119.95484897920988,
,-100,0.8,met,,green,red,,1205.3870276206485,,,,,0,77,77,440,trial,,,,,,green,1.2053870276206484,1.2083333333333333,2.2999260000069626,0.9979066999949282,7e-05,7e-05,0.03331,1.2083153999992646,1.2415887999959523,1.9998787000076845,2.0332707000052324,2.2999260000069626,2.2999260000069626,2.5000885000044946,2.316703899996355,0.01677789998939261,3.7166224000102375,1.416696400003275,1.3999185000138823,1.07029,-0.03237901647157686,-0.14423380064611513,,,,None,,-0.1,-0.1,1.0720570276206485,1.075,trial_list_0.8_green.csv,1.0749490000016522,1.1081622000056086,p7_high_01,001,2023-05-03_11h30.45.717,expectation_shapes_perceived_time,2022.2.4,119.95484897920988,
,-167,0.8,met,,green,red,,1040.170950775493,,,,,0,78,78,327,trial,,,,,,green,1.040170950775493,1.0416666666666667,2.300121299995226,0.9978315000043949,0.0001,0.0001,,1.0416074999957345,1.0750641000049654,1.9999417000071844,,2.300121299995226,2.300121299995226,2.50000070000533,2.7498958999931347,0.4497745999979088,3.3167210999963572,1.0165998000011314,0.5668252000032226,1.1142,-0.051904299398080764,-0.13841146506154872,,,,None,,-0.167,-0.16666666666666666,0.839840950775493,0.8416666666666667,trial_list_0.8_green.csv,0.841555499995593,0.8750793000072008,p7_high_01,001,2023-05-03_11h30.45.717,expectation_shapes_perceived_time,2022.2.4,119.95484897920988,
,33,0.8,met,,green,red,,663.5538983046649,,,,,0,79,79,68,trial,,,,,,green,0.6635538983046649,0.6666666666666666,2.299822500004666,0.997740499995416,6e-05,6e-05,0.03326,0.6665981999976793,0.6999435000034282,1.9999946000025375,2.033257600007346,2.299822500004666,2.299822500004666,2.499939800007269,2.8080546999990474,0.5082321999943815,3.3249594000080833,1.0251369000034174,0.5169047000090359,1.35242,-0.13221736635250278,-0.06610868317625139,,,,None,,0.033,0.03333333333333333,0.7298838983046649,0.7333333333333333,trial_list_0.8_green.csv,0.7330479999945965,0.7665993999980856,p7_high_01,001,2023-05-03_11h30.45.717,expectation_shapes_perceived_time,2022.2.4,119.95484897920988,
,33,0.8,met,,green,red,,1185.0526131860183,,,,,0,80,80,419,trial,,,,,,green,1.1850526131860184,1.1833333333333333,2.300487800006522,0.9972861999995075,2e-05,2e-05,0.03334,1.1836654999933671,1.2171317000029376,2.0005200000014156,2.033748999994714,2.300487800006522,2.300487800006522,2.5002527000033297,2.7420355000067502,0.44154770000022836,3.217142800000147,0.9166549999936251,0.47510729999339674,1.69218,-0.12169020306700265,0.0839242779772432,,,,None,,0.033,0.03333333333333333,1.2513826131860182,1.25,trial_list_0.8_green.csv,1.2504992000031052,1.2839061999984551,p7_high_01,001,2023-05-03_11h30.45.717,expectation_shapes_perceived_time,2022.2.4,119.95484897920988,
,233,0.8,met,,green,red,,402.8306160290907,,,,,0,81,81,113,trial,,,,,,green,0.4028306160290907,0.4,2.300050799996825,0.9961417000013171,7e-05,7e-05,,0.40002390000154264,0.4333978000067873,2.000250600001891,,2.300050799996825,2.300050799996825,2.4998137000075076,2.300050799996825,0.0,2.950030899999547,0.6499801000027219,0.6499801000027219,0.62888,0.13587124406305215,-0.05823053316987949,,,,None,,0.233,0.23333333333333334,0.6691606160290907,0.6666666666666666,trial_list_0.8_green.csv,0.6665615999954753,0.7000321999948937,p7_high_01,001,2023-05-03_11h30.45.717,expectation_shapes_perceived_time,2022.2.4,119.95484897920988,
,300,0.8,met,,green,red,,1412.1405754620328,,,,,0,82,82,426,trial,,,,,,green,1.4121405754620329,1.4083333333333332,2.299500499997521,0.9977550000039628,8e-05,8e-05,,1.4081584999948973,1.4416713999962667,1.99970270000631,,2.299500499997521,2.299500499997521,2.499979300002451,2.299500499997521,0.0,3.491438199998811,1.19193770000129,1.19193770000129,1.60559,-0.13976484683231913,0.048141225020021036,,,,None,,0.3,0.3,1.7454705754620328,1.7416666666666667,trial_list_0.8_green.csv,1.7413662000035401,1.7748429000057513,p7_high_01,001,2023-05-03_11h30.45.717,expectation_shapes_perceived_time,2022.2.4,119.95484897920988,
,-300,0.8,met,,green,red,,506.96741851815375,,,,,0,83,83,157,trial,,,,,,green,0.5069674185181537,0.5083333333333333,2.2997654999926453,0.997937300009653,4e-05,4e-05,,0.5080994000018109,0.5414923000062117,1.9998668000043835,,2.2997654999926453,2.2997654999926453,2.499441599997226,2.2997654999926453,0.0,2.874828300002264,0.5750628000096185,0.5750628000096185,0.71458,0.11548736455486464,-0.0922738239408215,,,,None,,-0.3,-0.3,0.17363741851815376,0.175,trial_list_0.8_green.csv,0.17501659999834374,0.20809889999509323,p7_high_01,001,2023-05-03_11h30.45.717,expectation_shapes_perceived_time,2022.2.4,119.95484897920988,
,-233,0.8,met,,green,red,,462.6626894670381,,,,,0,84,84,331,trial,,,,,,green,0.4626626894670381,0.4583333333333333,2.300240100012161,0.9975960000010673,3e-05,3e-05,0.0334,0.45839100000739563,0.4916943000134779,2.00021860000561,2.0335092000022996,2.300240100012161,2.300240100012161,2.5000513000122737,2.5417119000048842,0.2414717999927234,3.066839900013292,0.7665998000011314,0.525128000008408,0.28602,0.11566069404181636,0.09205647076797627,,,,None,,-0.233,-0.23333333333333334,0.1963326894670381,0.2,trial_list_0.8_green.csv,0.20013810000091325,0.23341060000529978,p7_high_01,001,2023-05-03_11h30.45.717,expectation_shapes_perceived_time,2022.2.4,119.95484897920988,
,-233,0.8,met,,green,red,,1411.053020353983,,,,,0,85,85,55,trial,,,,,,green,1.4110530203539828,1.4083333333333332,2.3085970999964047,0.9979038999881595,0.0001,0.0001,0.03356,1.408572100001038,1.4417749999993248,2.000044499989599,2.033363599999575,2.3085970999964047,2.3085970999964047,2.5082682999927783,2.658391999997548,0.3497949000011431,3.0764739000005648,0.76787680000416,0.4180819000030169,0.28022,0.11396627180429239,0.0941460506209372,,,,None,,-0.233,-0.23333333333333334,1.1447230203539829,1.1416666666666666,trial_list_0.8_green.csv,1.1420486999995774,1.1753226000000723,p7_high_01,001,2023-05-03_11h30.45.717,expectation_shapes_perceived_time,2022.2.4,119.95484897920988,
,-33,0.8,met,,green,red,,395.4486643755168,,,,,0,86,86,338,trial,,,,,,green,0.3954486643755168,0.39166666666666666,2.2999782000115374,0.9946321999887004,3e-05,3e-05,0.03348,0.3913839000015287,0.4247087000112515,2.000164800003404,2.0333293000003323,2.2999782000115374,2.2999782000115374,2.5001746000052663,2.5001746000052663,0.20019639999372885,3.008524100005161,0.7085458999936236,0.5083494999998948,0.51898,0.14756077031364662,-0.008809598227680395,,,,None,,-0.033,-0.03333333333333333,0.3291186643755168,0.325,trial_list_0.8_green.csv,0.32470170001033694,0.3580205000034766,p7_high_01,001,2023-05-03_11h30.45.717,expectation_shapes_perceived_time,2022.2.4,119.95484897920988,
,-167,0.8,met,,green,red,,1720.6922981816476,,,,,0,87,87,127,trial,,,,,,green,1.7206922981816477,1.7166666666666666,2.300143799991929,0.9977574999938952,7e-05,7e-05,0.03321,1.7163336999947205,1.749839800002519,2.0002433999907225,2.034888399997726,2.300143799991929,2.300143799991929,2.5003690000012284,2.5971453999954974,0.29700160000356846,3.0594527999928687,0.7593090000009397,0.46230739999737125,0.47278,0.14728345832506573,0.012624296427862777,,,,None,,-0.167,-0.16666666666666666,1.5203622981816478,1.5166666666666666,trial_list_0.8_green.csv,1.5160560999938753,1.5494096000038553,p7_high_01,001,2023-05-03_11h30.45.717,expectation_shapes_perceived_time,2022.2.4,119.95484897920988,
,167,0.8,met,,green,red,,1063.230756768136,,,,,0,88,88,106,trial,,,,,,green,1.063230756768136,1.0666666666666667,2.2998301000043284,0.9951137000025483,4e-05,4e-05,0.03324,1.0663664000021527,1.1000086999993073,2.0000571999989916,2.033715099998517,2.2998301000043284,2.2998301000043284,2.499511700007133,2.574481300005573,0.27465120000124443,3.0498894000047585,0.7500593000004301,0.47540809999918565,1.00692,-0.0032127954765231856,-0.14778859192006655,,,,None,,0.167,0.16666666666666666,1.263560756768136,1.2666666666666666,trial_list_0.8_green.csv,1.2665286999981618,1.2998175000102492,p7_high_01,001,2023-05-03_11h30.45.717,expectation_shapes_perceived_time,2022.2.4,119.95484897920988,
,300,0.8,met,,green,red,,701.1799475163515,,,,,0,89,89,164,trial,,,,,,green,0.7011799475163515,0.7,2.2999238000047626,0.9976897000015015,3e-05,3e-05,0.03322,0.6998375999974087,0.733112700007041,2.0000319999962812,2.033467200002633,2.2999238000047626,2.2999238000047626,2.4999682000052417,2.2999238000047626,0.0,3.0996176000044215,0.799693799999659,0.799693799999659,1.374,-0.1363921658050049,-0.05699971108268861,,,,None,,0.3,0.3,1.0345099475163515,1.0333333333333332,trial_list_0.8_green.csv,1.0330998999997973,1.0665238000074169,p7_high_01,001,2023-05-03_11h30.45.717,expectation_shapes_perceived_time,2022.2.4,119.95484897920988,
,-300,0.8,met,,green,red,,1160.1254727535695,,,,,0,90,90,114,trial,,,,,,green,1.1601254727535695,1.1583333333333332,2.3001061999966623,0.9987868000025628,0.0001,0.0001,0.03316,1.1583321999933105,1.1914722999936203,2.000072099996032,2.0334505999926478,2.3001061999966623,2.3001061999966623,2.499954800005071,2.5249822000041604,0.22487600000749808,3.2499281999917002,0.9498219999950379,0.7249459999875398,1.5,-0.14782350948509485,0.0,,,,None,,-0.3,-0.3,0.8267954727535695,0.825,trial_list_0.8_green.csv,0.824863899993943,0.8583526000002166,p7_high_01,001,2023-05-03_11h30.45.717,expectation_shapes_perceived_time,2022.2.4,119.95484897920988,
,233,0.1999999999999999,unmet,,red,green,,1132.6684173494705,,,,,0,91,91,7,trial,,,,,,red,1.1326684173494705,1.1333333333333333,2.300472799994168,0.9974760000040988,3e-05,3e-05,0.03332,1.1336344000010286,1.167243399992003,2.0005160000000615,2.0337621999933617,2.300472799994168,2.300472799994168,2.500554199999897,2.5255206000001635,0.22504780000599567,3.0754431999957887,0.7749704000016209,0.5499225999956252,1.20169,-0.08752281635148945,-0.11912827781174953,,,,None,,0.233,0.23333333333333334,1.3989984173494705,1.4,trial_list_0.8_green.csv,1.4003338999900734,1.4336486999964109,p7_high_01,001,2023-05-03_11h30.45.717,expectation_shapes_perceived_time,2022.2.4,119.95484897920988,
,33,0.8,met,,green,red,,862.091182491117,,,,,0,92,92,37,trial,,,,,,green,0.862091182491117,0.8583333333333333,2.2998109000036493,0.9977683000033721,5e-05,5e-05,,0.8578312000026926,0.8911805000097957,1.9997121000051266,,2.2998109000036493,2.2998109000036493,2.4995246000034967,2.2998109000036493,0.0,3.724657400001888,1.4248464999982389,1.4248464999982389,1.1996,-0.08673917649589111,-0.11970006356432975,,,,None,,0.033,0.03333333333333333,0.928421182491117,0.9249999999999999,trial_list_0.8_green.csv,0.9245229000080144,0.9578492000000551,p7_high_01,001,2023-05-03_11h30.45.717,expectation_shapes_perceived_time,2022.2.4,119.95484897920988,
,-33,0.1999999999999999,unmet,,red,green,,1547.5368952517415,,,,,0,93,93,181,trial,,,,,,red,1.5475368952517414,1.55,2.300344299990684,0.9979420000017853,3e-05,3e-05,0.03343,1.5500318999984302,1.5834479999903124,2.000268899995717,2.0335179999965476,2.300344299990684,2.300344299990684,2.500265799986664,2.300344299990684,0.0,3.0250548999902094,0.7247105999995256,0.7247105999995256,1.75,-0.10452700597570448,0.10452700597570448,,,,None,,-0.033,-0.03333333333333333,1.4812068952517417,1.4833333333333334,trial_list_0.8_green.csv,1.4831962999887764,1.516722899992601,p7_high_01,001,2023-05-03_11h30.45.717,expectation_shapes_perceived_time,2022.2.4,119.95484897920988,
,-233,0.8,met,,green,red,,822.4256095933736,,,,,0,94,94,418,trial,,,,,,green,0.8224256095933735,0.825,2.2995968000032008,0.997464600004605,3e-05,3e-05,,0.8249004000099376,0.8582978000049479,1.9998721000010846,,2.2995968000032008,2.2995968000032008,2.4996291999996174,2.5749519000091823,0.2753551000059815,3.133358999999473,0.8337621999962721,0.5584070999902906,0.74478,0.1062262905194431,-0.10279963598655784,,,,None,,-0.233,-0.23333333333333334,0.5560956095933736,0.5583333333333333,trial_list_0.8_green.csv,0.5583581000100821,0.5916303999983938,p7_high_01,001,2023-05-03_11h30.45.717,expectation_shapes_perceived_time,2022.2.4,119.95484897920988,
,100,0.8,met,,green,red,,855.6047385014143,,,,,0,95,95,111,trial,,,,,,green,0.8556047385014143,0.8583333333333333,2.2999854999943636,0.9976110999996308,6e-05,6e-05,0.03353,0.8584527000057278,0.8916110999998637,1.9999659000022803,2.0334481000027154,2.2999854999943636,2.2999854999943636,2.50012890000653,2.383445600004052,0.08346010000968818,2.9330370999959996,0.633051600001636,0.5495914999919478,0.83534,0.07310231005036467,-0.1284828479673076,,,,None,,0.1,0.1,0.9889347385014143,0.9916666666666667,trial_list_0.8_green.csv,0.9918179999949643,1.0250493000057759,p7_high_01,001,2023-05-03_11h30.45.717,expectation_shapes_perceived_time,2022.2.4,119.95484897920988,
,-33,0.8,met,,green,red,,345.53191020587894,,,,,0,96,96,405,trial,,,,,,green,0.3455319102058789,0.3416666666666667,2.2997185999993235,0.9910915999935241,8e-05,8e-05,,0.3414695999963442,0.37469399999827147,1.9997130999981891,,2.2997185999993235,2.2997185999993235,2.499727799993707,2.6639431999938097,0.3642245999944862,3.158398400002625,0.8586798000033014,0.49445520000881515,0.36586,0.13489033078767337,0.0604680793186122,,,,None,,-0.033,-0.03333333333333333,0.279201910205879,0.275,trial_list_0.8_green.csv,0.27475029999914113,0.30813029999262653,p7_high_01,001,2023-05-03_11h30.45.717,expectation_shapes_perceived_time,2022.2.4,119.95484897920988,
,-33,0.8,met,,green,red,,1561.8430699969,,,,,0,97,97,50,trial,,,,,,green,1.5618430699969001,1.5583333333333333,2.3006828999932623,0.9955022999929497,4e-05,4e-05,0.03329,1.5587085000006482,1.5921684999921126,2.0007187000010163,2.0340144999936456,2.3006828999932623,2.3006828999932623,2.5432497000001604,2.3006828999932623,0.0,2.961558099996182,0.6608752000029199,0.6608752000029199,0.79296,0.08951036234752155,-0.11764219051388544,,,,None,,-0.033,-0.03333333333333333,1.4955130699969001,1.4916666666666667,trial_list_0.8_green.csv,1.4921262999996543,1.5255013999994844,p7_high_01,001,2023-05-03_11h30.45.717,expectation_shapes_perceived_time,2022.2.4,119.95484897920988,
,33,0.8,met,,green,red,,292.40890859331057,,,,,0,98,98,373,trial,,,,,,green,0.2924089085933106,0.2916666666666667,2.309393600007752,0.9926944000035292,4e-05,4e-05,0.03334,0.2913919000129681,0.32494900000165217,2.0007485000096494,2.036594500008505,2.309393600007752,2.309393600007752,2.5448422000044957,2.42656830001215,0.11717470000439789,2.9578784000041196,0.6484847999963677,0.5313100999919698,0.38127,0.13765957587875952,0.05386679056125373,,,,None,,0.033,0.03333333333333333,0.35873890859331053,0.35833333333333334,trial_list_0.8_green.csv,0.3581068000057712,0.39180140000826214,p7_high_01,001,2023-05-03_11h30.45.717,expectation_shapes_perceived_time,2022.2.4,119.95484897920988,
,-233,0.1999999999999999,unmet,,red,green,,1754.4258983679606,,,,,0,99,99,351,trial,,,,,,red,1.7544258983679606,1.75,2.2988192999910098,0.9994315000076313,0.00012,0.00012,0.03292,1.749654899991583,1.7829149999888614,1.9990933999943081,2.0324094999959925,2.2988192999910098,2.2988192999910098,2.4991210000007413,2.2988192999910098,0.0,3.1026617000025,0.8038424000114901,0.8038424000114901,0.38858,0.13885909567632668,0.05069459048500815,,,,None,,-0.233,-0.23333333333333334,1.4880958983679606,1.4916666666666667,trial_list_0.8_green.csv,1.491289500001585,1.5246652999921935,p7_high_01,001,2023-05-03_11h30.45.717,expectation_shapes_perceived_time,2022.2.4,119.95484897920988,
,300,0.1999999999999999,unmet,,red,green,,1358.250395274833,0,0,0,0,0,100,100,252,fam,0.5562192000070354,0.5562192000070354,270.0,2.5558137000043644,2.5558137000043644,,,,,,,,,,,,,,,,,,,,,,,,,,,,,,,,,,,,p7_high_01,001,2023-05-03_11h30.45.717,expectation_shapes_perceived_time,2022.2.4,119.95484897920988,
,300,0.1999999999999999,unmet,,red,green,,1358.250395274833,1,0,1,0,0,100,100,252,fam,0.49732600001152605,0.49732600001152605,270.0,2.497335700012627,2.497335700012627,,,,,,,,,,,,,,,,,,,,,,,,,,,,,,,,,,,,p7_high_01,001,2023-05-03_11h30.45.717,expectation_shapes_perceived_time,2022.2.4,119.95484897920988,
,300,0.1999999999999999,unmet,,red,green,,1358.250395274833,2,0,2,0,0,100,100,252,fam,0.4990086000034353,0.4990086000034353,270.0,2.4988965000084136,2.4988965000084136,,,,,,,,,,,,,,,,,,,,,,,,,,,,,,,,,,,,p7_high_01,001,2023-05-03_11h30.45.717,expectation_shapes_perceived_time,2022.2.4,119.95484897920988,
,300,0.1999999999999999,unmet,,red,green,,1358.250395274833,3,0,3,0,0,100,100,252,fam,0.4971211000083713,0.4971211000083713,270.0,2.4970974000025308,2.4970974000025308,,,,,,,,,,,,,,,,,,,,,,,,,,,,,,,,,,,,p7_high_01,001,2023-05-03_11h30.45.717,expectation_shapes_perceived_time,2022.2.4,119.95484897920988,
,300,0.1999999999999999,unmet,,red,green,,1358.250395274833,,,,,0,100,100,252,trial,,,,,,red,1.358250395274833,1.3583333333333334,2.299642500001937,0.9980884000106016,8e-05,8e-05,,1.3583003000094322,1.3920467999996617,1.9999767999979667,,2.299642500001937,2.299642500001937,2.5001819000026444,2.299642500001937,0.0,3.1083157999964897,0.8086732999945525,0.8086732999945525,0.63382,0.13495156735604702,-0.06033128893564456,,,,None,,0.3,0.3,1.691580395274833,1.6916666666666667,trial_list_0.8_green.csv,1.691833700009738,1.7250806000083685,p7_high_01,001,2023-05-03_11h30.45.717,expectation_shapes_perceived_time,2022.2.4,119.95484897920988,
,300,0.1999999999999999,unmet,,red,green,,1436.2347879119334,,,,,0,101,101,129,trial,,,,,,red,1.4362347879119335,1.4333333333333333,2.301242799992906,0.997478700010106,6e-05,6e-05,,1.433908999999403,1.4671223999903305,2.0004407999949763,,2.301242799992906,2.301242799992906,2.5174008999892976,2.4011261999985436,0.09988340000563767,2.9998021999927005,0.6985593999997946,0.5986759999941569,0.82069,0.07893671802741549,-0.12498313687674119,,,,None,,0.3,0.3,1.7695647879119334,1.7666666666666666,trial_list_0.8_green.csv,1.7669491999986349,1.8012234999914654,p7_high_01,001,2023-05-03_11h30.45.717,expectation_shapes_perceived_time,2022.2.4,119.95484897920988,
,100,0.8,met,,green,red,,433.762332968813,,,,,0,102,102,363,trial,,,,,,green,0.433762332968813,0.43333333333333335,2.300071699995897,0.9968880999949761,4e-05,4e-05,,0.43342879999545403,0.46676350000780076,2.0002080999984173,,2.300071699995897,2.300071699995897,2.500231199999689,2.300071699995897,0.0,3.1751966000010725,0.8751249000051757,0.8751249000051757,0.30435,0.12076705668433615,0.08524733413011963,,,,None,,0.1,0.1,0.567092332968813,0.5666666666666667,trial_list_0.8_green.csv,0.5666919000068447,0.6001749999995809,p7_high_01,001,2023-05-03_11h30.45.717,expectation_shapes_perceived_time,2022.2.4,119.95484897920988,
,-233,0.8,met,,green,red,,956.5767189890691,,,,,0,103,103,132,trial,,,,,,green,0.9565767189890692,0.9583333333333334,2.3005141999892658,0.9974040999950375,2e-05,2e-05,0.03331,0.9588178999983938,0.9919367999973474,2.000202700000955,2.0337864000030095,2.3005141999892658,2.3005141999892658,2.500337599994964,3.092028400002164,0.7915142000128981,3.6004359999933513,1.2999218000040855,0.5084075999911875,1.12112,-0.05490027316870664,-0.1372506829217666,,,,None,,-0.233,-0.23333333333333334,0.6902467189890691,0.6916666666666667,trial_list_0.8_green.csv,0.6919834000000264,0.7254302999936044,p7_high_01,001,2023-05-03_11h30.45.717,expectation_shapes_perceived_time,2022.2.4,119.95484897920988,
,-33,0.8,met,,green,red,,514.7137577150683,,,,,0,104,104,35,trial,,,,,,green,0.5147137577150682,0.5166666666666666,2.3004751999978907,0.9977116999943973,7e-05,7e-05,0.03319,0.5162411999917822,0.5495721000042977,2.0001596999936737,2.0334337999956915,2.3004751999978907,2.3004751999978907,2.500053600000683,2.4004184999939753,0.09994329999608453,2.9915101999940816,0.6910349999961909,0.5910917000001064,0.55725,0.14543910298775306,-0.02644347327050056,,,,None,,-0.033,-0.03333333333333333,0.4483837577150683,0.45,trial_list_0.8_green.csv,0.44961229999898933,0.48290350000024773,p7_high_01,001,2023-05-03_11h30.45.717,expectation_shapes_perceived_time,2022.2.4,119.95484897920988,
,167,0.8,met,,green,red,,947.7811992467916,,,,,0,105,105,288,trial,,,,,,green,0.9477811992467916,0.95,2.2999955999985104,0.996389599997201,6e-05,6e-05,0.03325,0.9500914999953238,0.9833657999988645,2.000373999995645,2.033323099996778,2.2999955999985104,2.2999955999985104,2.500017400001525,2.3165698000084376,0.016574200009927154,2.899847499997122,0.5998518999986118,0.5832776999886846,1.35557,-0.13286610203282886,-0.0647949757858727,,,,None,,0.167,0.16666666666666666,1.1481111992467916,1.15,trial_list_0.8_green.csv,1.1496983999968506,1.1830825000070035,p7_high_01,001,2023-05-03_11h30.45.717,expectation_shapes_perceived_time,2022.2.4,119.95484897920988,
,300,0.1999999999999999,unmet,,red,green,,911.9753132013304,,,,,0,106,106,155,trial,,,,,,red,0.9119753132013304,0.9083333333333333,2.2999410000047646,0.9978816999937408,8e-05,8e-05,0.03322,0.9086287999962224,0.94160780000675,2.0003167999966536,2.0332663000008324,2.2999410000047646,2.2999410000047646,2.4997672000026796,2.2999410000047646,0.0,3.000011199997971,0.7000701999932062,0.7000701999932062,0.82029,0.07909327639797373,-0.12488412062837957,,,,None,,0.3,0.3,1.2453053132013303,1.2416666666666667,trial_list_0.8_green.csv,1.2416924999997718,1.2753344000084326,p7_high_01,001,2023-05-03_11h30.45.717,expectation_shapes_perceived_time,2022.2.4,119.95484897920988,
,-233,0.8,met,,green,red,,839.2775841043631,,,,,0,107,107,449,trial,,,,,,green,0.839277584104363,0.8416666666666667,2.299832399992738,0.9977695999987191,6e-05,6e-05,0.03319,0.8416813999938313,0.8748559999949066,2.000008599992725,2.033185799999046,2.299832399992738,2.299832399992738,2.5000845000031404,2.299832399992738,0.0,3.1246992999949725,0.8248669000022346,0.8248669000022346,1.19145,-0.08364482370940199,-0.1218824574051286,,,,None,,-0.233,-0.23333333333333334,0.5729475841043631,0.575,trial_list_0.8_green.csv,0.5748220999957994,0.6082728000037605,p7_high_01,001,2023-05-03_11h30.45.717,expectation_shapes_perceived_time,2022.2.4,119.95484897920988,
,-233,0.8,met,,green,red,,1430.396286244168,,,,,0,108,108,423,trial,,,,,,green,1.4303962862441681,1.4333333333333333,2.2999692000012146,0.9978394000063417,6e-05,6e-05,,1.4331810000003316,1.4664620999974431,1.9995866999961436,,2.2999692000012146,2.2999692000012146,2.4997583999938797,2.2999692000012146,0.0,3.0997808999964036,0.799811699995189,0.799811699995189,1.58123,-0.14303658104409644,0.03731389070715559,,,,None,,-0.233,-0.23333333333333334,1.1640662862441682,1.1666666666666667,trial_list_0.8_green.csv,1.166649899998447,1.199703699996462,p7_high_01,001,2023-05-03_11h30.45.717,expectation_shapes_perceived_time,2022.2.4,119.95484897920988,
,-167,0.8,met,,green,red,,1381.573897107873,,,,,0,109,109,266,trial,,,,,,green,1.381573897107873,1.3833333333333333,2.30907910001406,0.9976648000010755,3e-05,3e-05,,1.38390800000343,1.417395000011311,2.001082500006305,2.036048200010555,2.30907910001406,2.30907910001406,2.537286300008418,2.30907910001406,0.0,3.3332631000084803,1.0241839999944204,1.0241839999944204,1.52761,-0.14726778003858101,0.012805893916398348,,,,None,,-0.167,-0.16666666666666666,1.1812438971078731,1.1833333333333333,trial_list_0.8_green.csv,1.1832874000101583,1.2166751000040676,p7_high_01,001,2023-05-03_11h30.45.717,expectation_shapes_perceived_time,2022.2.4,119.95484897920988,
,300,0.8,met,,green,red,,1147.085761228764,,,,,0,110,110,441,trial,,,,,,green,1.1470857612287642,1.15,2.304963399990811,0.9985237999935634,5e-05,5e-05,,1.1465027999947779,1.1798220999917248,2.0062750999932177,2.038942599989241,2.304963399990811,2.304963399990811,2.5048906999872997,2.4215444999863394,0.11658109999552835,2.9798743999999715,0.6749110000091605,0.5583299000136321,1.34641,-0.13094672635768217,-0.06859114237783351,,,,None,,0.3,0.3,1.480415761228764,1.4833333333333334,trial_list_0.8_green.csv,1.4805628999893088,1.514001699993969,p7_high_01,001,2023-05-03_11h30.45.717,expectation_shapes_perceived_time,2022.2.4,119.95484897920988,
,-33,0.1999999999999999,unmet,,red,green,,1514.5348609005812,,,,,0,111,111,370,trial,,,,,,red,1.514534860900581,1.5166666666666666,2.29994149999402,0.9985639999940759,3e-05,3e-05,0.03327,1.5166066999954637,1.5499958000000333,1.9999301999923773,2.0332924999966053,2.29994149999402,2.29994149999402,2.4999658999877283,2.416624799996498,0.11668330000247806,3.02492299998994,0.7249814999959199,0.6082981999934418,1.60242,-0.1402376945077212,0.046745898169240394,,,,None,,-0.033,-0.03333333333333333,1.4482048609005813,1.45,trial_list_0.8_green.csv,1.4499320999893826,1.4832925999944564,p7_high_01,001,2023-05-03_11h30.45.717,expectation_shapes_perceived_time,2022.2.4,119.95484897920988,
,-300,0.8,met,,green,red,,1461.2631030677644,,,,,0,112,112,96,trial,,,,,,green,1.4612631030677643,1.4583333333333333,2.300065100003849,0.9986391999991611,1e-05,1e-05,0.03332,1.4583779999957187,1.4917835999949602,2.0000093999988167,2.033382599998731,2.300065100003849,2.300065100003849,2.500059700003476,2.300065100003849,0.0,3.1083854000025894,0.8083202999987407,0.8083202999987407,1.73663,-0.10882288072913957,0.10004684196066056,,,,None,,-0.3,-0.3,1.1279331030677644,1.125,trial_list_0.8_green.csv,1.125042300001951,1.1585129000013694,p7_high_01,001,2023-05-03_11h30.45.717,expectation_shapes_perceived_time,2022.2.4,119.95484897920988,
,-100,0.8,met,,green,red,,1248.1757557868236,,,,,0,113,113,218,trial,,,,,,green,1.2481757557868236,1.25,2.2998758999892743,0.9976912999991328,4e-05,4e-05,,1.2499364999966929,1.2831814999954076,1.999886499994318,,2.2998758999892743,2.2998758999892743,2.499909899997874,2.708267399997567,0.4083915000082925,3.266492800001288,0.9666169000120135,0.558225400003721,1.29945,-0.11944250880696872,-0.08709349600508136,,,,None,,-0.1,-0.1,1.1148457557868237,1.1166666666666667,trial_list_0.8_green.csv,1.1165112999879057,1.1499244000006001,p7_high_01,001,2023-05-03_11h30.45.717,expectation_shapes_perceived_time,2022.2.4,119.95484897920988,
,300,0.1999999999999999,unmet,,red,green,,346.7447719932246,,,,,0,114,114,260,trial,,,,,,red,0.3467447719932246,0.35,2.3002691000001505,0.9986564999999246,2e-05,2e-05,0.03334,0.34997359999397304,0.3832576999993762,2.000506199998199,,2.3002691000001505,2.3002691000001505,2.500282899985905,2.3002691000001505,0.0,3.225426199991489,0.9251570999913383,0.9251570999913383,0.89126,0.04952230478416862,-0.13928148220547426,,,,None,,0.3,0.3,0.6800747719932246,0.6833333333333333,trial_list_0.8_green.csv,0.6833543999964604,0.7166298999945866,p7_high_01,001,2023-05-03_11h30.45.717,expectation_shapes_perceived_time,2022.2.4,119.95484897920988,
,167,0.8,met,,green,red,,591.9704159199944,,,,,0,115,115,27,trial,,,,,,green,0.5919704159199943,0.5916666666666667,2.3002206000091974,0.9976164999970933,3e-05,3e-05,0.03328,0.5913021000014851,0.6249266000086209,2.0003025000041816,2.0334576000022935,2.3002206000091974,2.3002206000091974,2.5000638000055915,2.9250302000000374,0.6248095999908401,3.4499535000068136,1.1497328999976162,0.5249233000067761,0.79912,0.08721832289100627,-0.11935138921927176,,,,None,,0.167,0.16666666666666666,0.7923004159199944,0.7916666666666666,trial_list_0.8_green.csv,0.7917359999992186,0.8251543000078527,p7_high_01,001,2023-05-03_11h30.45.717,expectation_shapes_perceived_time,2022.2.4,119.95484897920988,
,-300,0.8,met,,green,red,,715.3419557314487,,,,,0,116,116,333,trial,,,,,,green,0.7153419557314487,0.7166666666666667,2.2999353999912273,0.9979882999905385,4e-05,4e-05,0.03327,0.7161387999949511,0.749653799997759,1.999957699998049,2.033041000002413,2.2999353999912273,2.2999353999912273,2.4999960999994073,2.6082574000029126,0.3083220000116853,3.0745219999953406,0.7745866000041133,0.466264599992428,0.44275,0.14543910298775306,0.02644347327050056,,,,None,,-0.3,-0.3,0.38201195573144875,0.3833333333333333,trial_list_0.8_green.csv,0.38310599999385886,0.41641039999376517,p7_high_01,001,2023-05-03_11h30.45.717,expectation_shapes_perceived_time,2022.2.4,119.95484897920988,
,-33,0.8,met,,green,red,,359.64045938880497,,,,,0,117,117,51,trial,,,,,,green,0.35964045938880496,0.35833333333333334,2.2999591999978293,0.9942446000059135,4e-05,4e-05,0.03324,0.3583141999988584,0.39175690000411123,2.0000372000067728,,2.2999591999978293,2.2999591999978293,2.5000100000033854,2.2999591999978293,0.0,3.6166931000043405,1.3167339000065112,1.3167339000065112,0.39542,0.1399164577799493,0.04769879242498272,,,,None,,-0.033,-0.03333333333333333,0.293310459388805,0.2916666666666667,trial_list_0.8_green.csv,0.2918567000015173,0.3252080000092974,p7_high_01,001,2023-05-03_11h30.45.717,expectation_shapes_perceived_time,2022.2.4,119.95484897920988,
,-300,0.8,met,,green,red,,660.2700632299208,,,,,0,118,118,100,trial,,,,,,green,0.6602700632299208,0.6583333333333333,2.2999908000056166,0.9979153000022052,3e-05,3e-05,0.03308,0.6583716000022832,0.6914783000102034,1.9995905999967363,2.0329606000013882,2.2999908000056166,2.2999908000056166,2.499697200008086,2.2999908000056166,0.0,2.7996327000000747,0.49964189999445807,0.49964189999445807,0.64758,0.13221736635250278,-0.06610868317625139,,,,None,,-0.3,-0.3,0.3269400632299208,0.325,trial_list_0.8_green.csv,0.324792500003241,0.358416600007331,p7_high_01,001,2023-05-03_11h30.45.717,expectation_shapes_perceived_time,2022.2.4,119.95484897920988,
,167,0.8,met,,green,red,,860.9241319043391,,,,,0,119,119,139,trial,,,,,,green,0.8609241319043391,0.8583333333333333,2.315472600006615,0.9909308000060264,7e-05,7e-05,,0.865668900005403,0.8988858000084292,2.0072867999988375,2.041036800001166,2.315472600006615,2.315472600006615,2.537619499998982,2.315472600006615,0.0,3.4980901000089943,1.1826175000023795,1.1826175000023795,0.7903,0.0904935898006875,-0.11688755349255467,,,,None,,0.167,0.16666666666666666,1.061254131904339,1.0583333333333333,trial_list_0.8_green.csv,1.0654513000044972,1.098879900004249,p7_high_01,001,2023-05-03_11h30.45.717,expectation_shapes_perceived_time,2022.2.4,119.95484897920988,
,-300,0.8,met,,green,red,,1477.9410794341393,,,,,0,120,120,103,trial,,,,,,green,1.4779410794341392,1.475,2.2999413999932585,0.9981490000063786,4e-05,4e-05,0.03341,1.4750588000024436,1.5081855000025826,2.000086399988504,2.033538999996381,2.2999413999932585,2.2999413999932585,2.49997550000262,2.4755824000021676,0.17564100000890903,2.958135399996536,0.6581940000032773,0.4825529999943683,0.91763,0.037826936317079195,-0.14290175942007696,,,,None,,-0.3,-0.3,1.1446110794341393,1.1416666666666666,trial_list_0.8_green.csv,1.1418617000017548,1.1751051999890478,p7_high_01,001,2023-05-03_11h30.45.717,expectation_shapes_perceived_time,2022.2.4,119.95484897920988,
,233,0.8,met,,green,red,,1115.134629780723,,,,,0,121,121,403,trial,,,,,,green,1.115134629780723,1.1166666666666667,2.300289300008444,0.9959226000064518,2e-05,2e-05,0.03333,1.1173437999968883,1.1505546999978833,2.0004843000060646,2.0338128000003053,2.300289300008444,2.300289300008444,2.5002287999959663,2.300289300008444,0.0,2.925331999998889,0.6250426999904448,0.6250426999904448,1.20214,-0.08768876362771115,-0.11900617920903656,,,,None,,0.233,0.23333333333333334,1.3814646297807227,1.3833333333333333,trial_list_0.8_green.csv,1.3839213000028394,1.4173142000072403,p7_high_01,001,2023-05-03_11h30.45.717,expectation_shapes_perceived_time,2022.2.4,119.95484897920988,
,167,0.8,met,,green,red,,338.2652123606146,,,,,0,122,122,412,trial,,,,,,green,0.33826521236061463,0.3416666666666667,2.2998592000076314,0.9977462000097148,5e-05,5e-05,,0.3417446999956155,0.3749180000013439,1.9999506000021938,,2.2998592000076314,2.2998592000076314,2.499979500003974,2.2998592000076314,0.0,3.2917324000009103,0.9918731999932788,0.9918731999932788,1.40127,-0.1407697098388753,-0.04511849674322925,,,,None,,0.167,0.16666666666666666,0.5385952123606146,0.5416666666666666,trial_list_0.8_green.csv,0.5416489000053843,0.5748425000056159,p7_high_01,001,2023-05-03_11h30.45.717,expectation_shapes_perceived_time,2022.2.4,119.95484897920988,
,-33,0.1999999999999999,unmet,,red,green,,710.692054529364,,,,,0,123,123,180,trial,,,,,,red,0.710692054529364,0.7083333333333334,2.299346699990565,0.9978656000021147,6e-05,6e-05,0.03302,0.707972799995332,0.7413258000015048,1.9996144999895478,2.033039899994037,2.299346699990565,2.299346699990565,2.4995877999899676,2.299346699990565,0.0,2.780773099992075,0.48142640000151005,0.48142640000151005,1.15498,-0.0691648048773223,-0.13064463143494212,,,,None,,-0.033,-0.03333333333333333,0.6443620545293639,0.6416666666666666,trial_list_0.8_green.csv,0.6416674999927636,0.6748908000008669,p7_high_01,001,2023-05-03_11h30.45.717,expectation_shapes_perceived_time,2022.2.4,119.95484897920988,
