id,delay,expectation,congruency,trial_num,stim_color,distractor_color,block,targetTimeMs,famLoop.thisRepN,famLoop.thisTrialN,famLoop.thisN,famLoop.thisIndex,trialss.thisRepN,trialss.thisTrialN,trialss.thisN,trialss.thisIndex,isTrial,handMove.started,audioCue2Start.started,handOri,handMove.ended,audioCue2End.started,target_color,expected_target_onset,expected_target_onset_in_frames,fixationPoint.started,fixationPoint.stopped,audCueStart.started,placeholder.started,audCueStart.stopped,target.started,target.stopped,audCueEnd.started,audCueEnd.stopped,responsePointer.started,cueForRep.started,space2pass.started,responseStarted,rtUntillMotionTreshold,responsePointer.stopped,rTAfterMotionTreshold,rtDurationBtwRespMotion,perceivedTime,resp_x_coord,resp_y_coord,feedbackPointer.stopped,actualTime_x_coord,actualTime_y_coord,space2pass.keys,space2pass.rt,expected_delay,expected_delays_frame,expected_distractor,expected_distractor_frame,expBlockFiles,distractor.started,distractor.stopped,participant,session,date,expName,psychopyVersion,frameRate,
,,,,,,,,,0,0,0,0,,,,,fam,0.6320525999908568,0.6320525999908568,270.0000000000009,2.6239659999992,2.6239659999992,,,,,,,,,,,,,,,,,,,,,,,,,,,,,,,,,,,,p8_base_01,001,2023-05-03_15h15.37.064,expectation_shapes_perceived_time,2022.2.4,119.72405998998663,
,,,,,,,,,1,0,1,0,,,,,fam,0.49821459999657236,0.49821459999657236,270.0000000000009,2.4903075999900466,2.4903075999900466,,,,,,,,,,,,,,,,,,,,,,,,,,,,,,,,,,,,p8_base_01,001,2023-05-03_15h15.37.064,expectation_shapes_perceived_time,2022.2.4,119.72405998998663,
,,,,,,,,,2,0,2,0,,,,,fam,0.4985389999928884,0.4985389999928884,270.0000000000009,2.490005799991195,2.490005799991195,,,,,,,,,,,,,,,,,,,,,,,,,,,,,,,,,,,,p8_base_01,001,2023-05-03_15h15.37.064,expectation_shapes_perceived_time,2022.2.4,119.72405998998663,
,,,,,,,,,3,0,3,0,,,,,fam,0.49882209999486804,0.49882209999486804,270.0000000000009,2.490386599994963,2.490386599994963,,,,,,,,,,,,,,,,,,,,,,,,,,,,,,,,,,,,p8_base_01,001,2023-05-03_15h15.37.064,expectation_shapes_perceived_time,2022.2.4,119.72405998998663,
,,,,,,,,,4,0,4,0,,,,,fam,0.4983317000005627,0.4983317000005627,270.0000000000009,2.4903271999937715,2.4903271999937715,,,,,,,,,,,,,,,,,,,,,,,,,,,,,,,,,,,,p8_base_01,001,2023-05-03_15h15.37.064,expectation_shapes_perceived_time,2022.2.4,119.72405998998663,
,,,,,,,,,,,,,0,0,0,0,test,,,,,,red,1.6381096375639868,1.6333333333333333,2.2915605000016512,0.9907669999956852,1.3999990187585354e-05,1e-05,0.032921099991654046,1.6331344999925932,1.666649699996924,1.9999431000032928,2.0332285999902524,2.2915605000016512,2.2915605000016512,2.5915343999949982,2.89128699999128,0.5997264999896288,5.316381600001478,3.0248210999998264,2.4250946000101976,0.83231,0.07432178139452125,-0.1277813083625102,5.316381600001478,-0.1341261354716141,0.06214474828929754,space,2.7231171000166796,,,,,,,,p8_base_01,001,2023-05-03_15h15.37.064,expectation_shapes_perceived_time,2022.2.4,119.72405998998663,
,,,,,,,,,,,,,1,0,1,0,test,,,,,,red,1.4379222573818982,1.4333333333333333,2.291111999991699,0.9989831000129925,0.00011690000246744603,0.00012,0.03313789999810979,1.4328335000027437,1.4660341999988304,1.999198499994236,,2.291111999991699,2.291111999991699,2.590879600000335,2.416082900002948,0.12497090001124889,4.515819599997485,2.224707600005786,2.099736699994537,1.60474,-0.1398927569246854,0.047768258462087695,4.515819599997485,-0.14502125122023668,-0.028646581838099296,space,1.9181980000139447,,,,,,,,p8_base_01,001,2023-05-03_15h15.37.064,expectation_shapes_perceived_time,2022.2.4,119.72405998998663,
,,,,,,,,,,,,,2,0,2,0,test,,,,,,green,0.21698599665027274,0.21666666666666667,2.2915815000014845,0.9984690999990562,2.3300002794712782e-05,2e-05,0.033312400002614595,0.21650090000184719,0.25009380000119563,1.9998179999965942,2.033388899988495,2.2915815000014845,2.2915815000014845,2.591484999997192,2.4833166000025813,0.19173510000109673,4.274886200000765,1.9833046999992803,1.7915695999981835,0.75749,0.10203930474566947,-0.10695686160088244,4.274886200000765,0.09314355056768221,0.11478705913183573,space,1.6835424000164494,,,,,,,,p8_base_01,001,2023-05-03_15h15.37.064,expectation_shapes_perceived_time,2022.2.4,119.72405998998663,
,,,,,,,,,,,,,3,0,3,0,test,,,,,,red,0.1965276176291247,0.2,2.2912782999919727,0.9981794000050286,1.4199991710484028e-05,1e-05,0.03330239999922924,0.19954999999026768,0.23333159998583142,1.9995108999864897,2.0332257999980357,2.2912782999919727,2.2912782999919727,2.5913159999909112,2.3081516999955056,0.01687340000353288,4.316298199992161,2.0250199000001885,2.0081464999966556,0.22762,0.09692590253060782,0.11161164533827568,4.316298199992161,0.08557873119750471,0.12053244676482408,space,1.7187980000016978,,,,,,,,p8_base_01,001,2023-05-03_15h15.37.064,expectation_shapes_perceived_time,2022.2.4,119.72405998998663,
,,,,,,,,,,,,,4,0,4,0,test,,,,,,red,1.6120958168887403,1.6083333333333334,2.291381500006537,0.9986449999996694,1.4000004739500582e-05,1e-05,,1.6081682000076398,1.6414464999979828,1.9994984000077238,,2.291381500006537,2.291381500006537,2.591386300002341,2.399437600004603,0.1080560999980662,4.949632899995777,2.65825139998924,2.5501952999911737,1.91616,-0.03848769845293552,0.14272521509630254,4.949632899995777,-0.13875159128153233,0.05098809540797267,space,2.3539127000112785,,,,,,,,p8_base_01,001,2023-05-03_15h15.37.064,expectation_shapes_perceived_time,2022.2.4,119.72405998998663,
,,,,,,,,,0,0,0,0,0,-1,-1,0,fam,0.5477184000046691,0.5477184000046691,270.0000000000009,2.539177300001029,2.539177300001029,,,,,,,,,,,,,,,,,,,,,,,,,,,,,,,,,,,,p8_base_01,001,2023-05-03_15h15.37.064,expectation_shapes_perceived_time,2022.2.4,119.72405998998663,
,,,,,,,,,1,0,1,0,0,-1,-1,0,fam,0.499001699994551,0.499001699994551,270.0000000000009,2.4904208999942057,2.4904208999942057,,,,,,,,,,,,,,,,,,,,,,,,,,,,,,,,,,,,p8_base_01,001,2023-05-03_15h15.37.064,expectation_shapes_perceived_time,2022.2.4,119.72405998998663,
,,,,,,,,,2,0,2,0,0,-1,-1,0,fam,0.4987980999867432,0.4987980999867432,270.0000000000009,2.4903331999958027,2.4903331999958027,,,,,,,,,,,,,,,,,,,,,,,,,,,,,,,,,,,,p8_base_01,001,2023-05-03_15h15.37.064,expectation_shapes_perceived_time,2022.2.4,119.72405998998663,
,,,,,,,,,3,0,3,0,0,-1,-1,0,fam,0.4982644999981858,0.4982644999981858,270.0000000000009,2.4901387999998406,2.4901387999998406,,,,,,,,,,,,,,,,,,,,,,,,,,,,,,,,,,,,p8_base_01,001,2023-05-03_15h15.37.064,expectation_shapes_perceived_time,2022.2.4,119.72405998998663,
1,-500,0.5,none,59,green,red,no_Expectation,,,,,,0,0,0,0,train_doubleStim,,,,,,green,1.4246127018097974,1.425,2.2916382999974303,0.9992842999927234,1e-05,1e-05,0.03294,1.4246969999949215,1.4583883000013884,2.000041599996621,2.032930999994278,2.2916382999974303,2.2916382999974303,2.491450600005919,2.8750424000027124,0.5834041000052821,4.207949400006328,1.9163111000088975,1.3329070000036154,1.69347,-0.12134908788250065,0.08441675678782654,,,,None,,-0.5,-0.5,0.8912827018097972,0.8916666666666666,training_double_stim.csv,0.8914887999999337,0.924653699999908,p8_base_01,001,2023-05-03_15h15.37.064,expectation_shapes_perceived_time,2022.2.4,119.72405998998663,
1,500,0.5,none,33,green,red,no_Expectation,,,,,,0,1,1,7,train_doubleStim,,,,,,green,1.3001620557950673,1.3,2.292020799999591,0.9969341999967583,1e-05,1e-05,0.03334,1.300065799994627,1.333512299999711,2.0000906999921426,2.0335989000013797,2.292020799999591,2.292020799999591,2.4918727000040235,2.4918727000040235,0.19985190000443254,3.466697900003055,1.1746771000034641,0.9748251999990316,1.33599,-0.1286318852572826,-0.0728397422541239,,,,None,,0.5,0.5,1.8334920557950674,1.8333333333333333,training_double_stim.csv,1.8333267999987584,1.8668715999956476,p8_base_01,001,2023-05-03_15h15.37.064,expectation_shapes_perceived_time,2022.2.4,119.72405998998663,
1,-500,0.5,none,46,red,green,no_Expectation,,,,,,0,2,2,4,train_doubleStim,,,,,,red,1.3311763730066857,1.325,2.2919014999934006,0.9985556000028737,2e-05,2e-05,,1.3252959999954328,1.3584086999908322,2.0002266999945277,,2.2919014999934006,2.2919014999934006,2.4917452999943634,2.816934599992237,0.5250330999988364,3.9672177999891574,1.6753162999957567,1.1502831999969203,1.55679,-0.14547710949783343,0.026233577122560126,,,,None,,-0.5,-0.5,0.7978463730066857,0.8,training_double_stim.csv,0.800731099996483,0.8341045999986818,p8_base_01,001,2023-05-03_15h15.37.064,expectation_shapes_perceived_time,2022.2.4,119.72405998998663,
1,500,0.5,none,88,red,green,no_Expectation,,,,,,0,3,3,9,train_doubleStim,,,,,,red,1.0965155873430017,1.0916666666666666,2.2916783999971813,0.9981943000020692,1e-05,1e-05,0.03375,1.0920770000084303,1.125859899999341,2.000326399996993,2.03365009999834,2.2916783999971813,2.2916783999971813,2.491954600001918,2.525025499999174,0.23334710000199266,4.158360700006597,1.8666823000094155,1.6333352000074228,1.27703,-0.11301437283241207,-0.09528662807438663,,,,None,,0.5,0.5,1.6298455873430016,1.625,training_double_stim.csv,1.6251874000008684,1.6587538000021596,p8_base_01,001,2023-05-03_15h15.37.064,expectation_shapes_perceived_time,2022.2.4,119.72405998998663,
1,-500,0.5,none,68,red,green,no_Expectation,,,,,,0,4,4,3,train_doubleStim,,,,,,red,0.6994877656429219,0.7,2.291479299994535,0.9987057999969693,3e-05,3e-05,0.03346,0.7005866999970749,0.7334153999981936,1.999867999998969,2.0331193000019994,2.291479299994535,2.291479299994535,2.491855200001737,2.7498845999944024,0.45840529999986757,4.81646180000098,2.5249825000064448,2.066577200006577,1.58344,-0.14277427781106988,0.03830529404687241,,,,None,,-0.5,-0.5,0.1661577656429219,0.16666666666666666,training_double_stim.csv,0.16645129999960773,0.1999387999967439,p8_base_01,001,2023-05-03_15h15.37.064,expectation_shapes_perceived_time,2022.2.4,119.72405998998663,
1,500,0.5,none,98,red,green,no_Expectation,,,,,,0,5,5,5,train_doubleStim,,,,,,red,0.17118083691801933,0.16666666666666666,2.2913861999986693,0.9990911999921082,8e-05,8e-05,0.03319,0.16689939999196213,0.2002786999946693,1.9999284999939846,2.0330377999925986,2.2913861999986693,2.2913861999986693,2.491257299989229,2.3912198999896646,0.09983369999099523,3.4917163999925833,1.200330199993914,1.1004965000029188,0.12567,0.05685519595580572,0.1364524702939337,,,,None,,0.5,0.5,0.7045108369180194,0.7,training_double_stim.csv,0.6995478000026196,0.73300670000026,p8_base_01,001,2023-05-03_15h15.37.064,expectation_shapes_perceived_time,2022.2.4,119.72405998998663,
1,-500,0.5,none,23,green,red,no_Expectation,,,,,,0,6,6,2,train_doubleStim,,,,,,green,1.3167345401849087,1.3166666666666667,2.2917140000063227,0.9978707999980543,1e-05,1e-05,0.03337,1.3168423000024632,1.3502558000036515,2.000285600006464,2.033362500005751,2.2917140000063227,2.2917140000063227,2.491951300005894,2.6918443000031402,0.4001302999968175,4.066894500007038,1.7751805000007153,1.3750502000038978,0.65744,0.13010735768115989,-0.07017026032242331,,,,None,,-0.5,-0.5,0.7834045401849086,0.7833333333333333,training_double_stim.csv,0.7834896999993362,0.8170304000086617,p8_base_01,001,2023-05-03_15h15.37.064,expectation_shapes_perceived_time,2022.2.4,119.72405998998663,
1,500,0.5,none,60,red,green,no_Expectation,,,,,,0,7,7,8,train_doubleStim,,,,,,red,0.24823751515953965,0.25,2.2919937999977265,0.9984609000093769,2e-05,2e-05,,0.24985809999634512,0.2832514000037918,1.9999857999937376,,2.2919937999977265,2.2919937999977265,2.491948199996841,2.7749252999929013,0.4829314999951748,4.841571199998725,2.5495774000009988,2.066645900005824,0.54342,0.1464504625846457,-0.020101043884167055,,,,None,,0.5,0.5,0.7815675151595397,0.7833333333333333,training_double_stim.csv,0.7835058999917237,0.8166275999974459,p8_base_01,001,2023-05-03_15h15.37.064,expectation_shapes_perceived_time,2022.2.4,119.72405998998663,
1,-500,0.5,none,77,green,red,no_Expectation,,,,,,0,8,8,1,train_doubleStim,,,,,,green,0.7151187383487466,0.7166666666666667,2.2915703000035137,0.9985992000001715,0.00012,0.00012,0.03327,0.7166111999977147,0.7494227999995928,1.9999310999992304,2.032927499996731,2.2915703000035137,2.2915703000035137,2.4910843999969075,2.2915703000035137,0.0,3.7493714000011096,1.4578010999975959,1.4578010999975959,0.12937,0.05843790207828177,0.1357821842407135,,,,None,,-0.5,-0.5,0.18178873834874668,0.18333333333333332,training_double_stim.csv,0.183168100003968,0.21667120000347495,p8_base_01,001,2023-05-03_15h15.37.064,expectation_shapes_perceived_time,2022.2.4,119.72405998998663,
1,500,0.5,none,25,green,red,no_Expectation,,,,,,0,9,9,6,train_doubleStim,,,,,,green,0.9979482537014769,0.9916666666666667,2.29177750000963,0.9971826999972109,3e-05,3e-05,0.03326,0.9916951000050176,1.02492809999967,2.0000892999960342,2.0331586000102106,2.29177750000963,2.29177750000963,2.4917099000012968,2.29177750000963,0.0,4.058316700000432,1.7665391999908024,1.7665391999908024,0.79233,0.08974641070849877,-0.11746221401553514,,,,None,,0.5,0.5,1.5312782537014769,1.525,training_double_stim.csv,1.52505550000933,1.558242800005246,p8_base_01,001,2023-05-03_15h15.37.064,expectation_shapes_perceived_time,2022.2.4,119.72405998998663,
,,,,,,,,,0,0,0,0,0,-1,-1,0,fam,0.5407717000052799,0.5407717000052799,270.0000000000009,2.5320825000089826,2.5320825000089826,,,,,,,,,,,,,,,,,,,,,,,,,,,,,,,,,,,,p8_base_01,001,2023-05-03_15h15.37.064,expectation_shapes_perceived_time,2022.2.4,119.72405998998663,
,,,,,,,,,1,0,1,0,0,-1,-1,0,fam,0.4984507999906782,0.4984507999906782,270.0000000000009,2.490341600001557,2.490341600001557,,,,,,,,,,,,,,,,,,,,,,,,,,,,,,,,,,,,p8_base_01,001,2023-05-03_15h15.37.064,expectation_shapes_perceived_time,2022.2.4,119.72405998998663,
,,,,,,,,,2,0,2,0,0,-1,-1,0,fam,0.4989300000015646,0.4989300000015646,270.0000000000009,2.4902090999967186,2.4902090999967186,,,,,,,,,,,,,,,,,,,,,,,,,,,,,,,,,,,,p8_base_01,001,2023-05-03_15h15.37.064,expectation_shapes_perceived_time,2022.2.4,119.72405998998663,
,,,,,,,,,3,0,3,0,0,-1,-1,0,fam,0.49812289999681525,0.49812289999681525,270.0000000000009,2.490049700005329,2.490049700005329,,,,,,,,,,,,,,,,,,,,,,,,,,,,,,,,,,,,p8_base_01,001,2023-05-03_15h15.37.064,expectation_shapes_perceived_time,2022.2.4,119.72405998998663,
,-33,0.5,none,,green,red,,309.406431751549,,,,,0,0,0,357,trial,,,,,,green,0.309406431751549,0.30833333333333335,2.2919220000039786,0.9982560999924317,1e-05,1e-05,0.03369,0.30839090001245495,0.34181230000103824,2.000252100013313,2.0335328000073787,2.2919220000039786,2.2919220000039786,2.4917508000071393,2.5921024000126636,0.30018040000868496,3.2251653999992413,0.9332433999952627,0.6330629999865778,0.09899,0.04523535098332503,0.14073220305923345,,,,None,,-0.033,-0.03333333333333333,0.24307643175154903,0.24166666666666667,trial_list_0.5_red.csv,0.24200890000793152,0.27498830000695307,p8_base_01,001,2023-05-03_15h15.37.064,expectation_shapes_perceived_time,2022.2.4,119.72405998998663,
,167,0.5,none,,green,red,,954.4442034124986,,,,,0,1,1,207,trial,,,,,,green,0.9544442034124986,0.95,2.2916841999976896,0.9964087999978801,2e-05,2e-05,,0.9501703999994788,0.9833461999951396,2.000031700008549,,2.2916841999976896,2.2916841999976896,2.4918976000044495,2.2916841999976896,0.0,3.916513500007568,1.6248293000098784,1.6248293000098784,1.17266,-0.07630945921595378,-0.12660433006283242,,,,None,,0.167,0.16666666666666666,1.1547742034124986,1.15,trial_list_0.5_red.csv,1.14974280000024,1.183352299995022,p8_base_01,001,2023-05-03_15h15.37.064,expectation_shapes_perceived_time,2022.2.4,119.72405998998663,
,33,0.5,none,,green,red,,219.0847614904108,,,,,0,2,2,267,trial,,,,,,green,0.2190847614904108,0.21666666666666667,2.291444299989962,0.9982491999980994,2e-05,2e-05,0.03313,0.2165678999881493,0.2500246999989031,1.999855399990338,2.03340409998782,2.291444299989962,2.291444299989962,2.491461999990861,2.291444299989962,0.0,3.2664125000010245,0.9749682000110624,0.9749682000110624,0.12335,0.055862060383481585,0.13686204793952989,,,,None,,0.033,0.03333333333333333,0.2854147614904108,0.2833333333333333,trial_list_0.5_red.csv,0.28321159999177326,0.31665999999677297,p8_base_01,001,2023-05-03_15h15.37.064,expectation_shapes_perceived_time,2022.2.4,119.72405998998663,
,300,0.5,none,,red,green,,572.3589745004157,,,,,0,3,3,196,trial,,,,,,red,0.5723589745004157,0.575,2.2920026000065263,0.9986355000000913,1e-05,1e-05,0.03333,0.5752415000024484,0.6086247000057483,2.0000296000071103,2.0333384000114165,2.2920026000065263,2.2920026000065263,2.4919443000108004,2.2920026000065263,0.0,3.55852109999978,1.2665184999932535,1.2665184999932535,0.49323,0.14779006146803922,0.003144469392937004,,,,None,,0.3,0.3,0.9056889745004157,0.9,trial_list_0.5_red.csv,0.9004098000004888,0.9334722000057809,p8_base_01,001,2023-05-03_15h15.37.064,expectation_shapes_perceived_time,2022.2.4,119.72405998998663,
,33,0.5,none,,green,red,,1332.797118953852,,,,,0,4,4,107,trial,,,,,,green,1.3327971189538521,1.3333333333333333,2.2913008000032278,0.9987414000061108,2e-05,2e-05,,1.3333255000034114,1.3663416000053985,1.9998665000020992,,2.2913008000032278,2.2913008000032278,2.491649599993252,2.516541999997571,0.22524119999434333,4.216400000004796,1.9250992000015685,1.6998580000072252,1.15359,-0.06859114237783351,-0.13094672635768217,,,,None,,0.033,0.03333333333333333,1.3991271189538521,1.4,trial_list_0.5_red.csv,1.3998571999982232,1.4329565999942133,p8_base_01,001,2023-05-03_15h15.37.064,expectation_shapes_perceived_time,2022.2.4,119.72405998998663,
,-300,0.5,none,,red,green,,1441.5653414181347,,,,,0,5,5,448,trial,,,,,,red,1.4415653414181346,1.4416666666666667,2.291661999988719,0.998095299990382,2e-05,2e-05,0.03311,1.4416536999924574,1.474932400000398,2.0000370999914594,2.0334824999881675,2.291661999988719,2.291661999988719,2.4916634999972302,2.600133999992977,0.308472000004258,3.733084299994516,1.4414223000057973,1.1329503000015393,1.36385,-0.13450574449252273,-0.06131879528335595,,,,None,,-0.3,-0.3,1.1082353414181347,1.1083333333333334,trial_list_0.5_red.csv,1.108241599999019,1.1416327999904752,p8_base_01,001,2023-05-03_15h15.37.064,expectation_shapes_perceived_time,2022.2.4,119.72405998998663,
,-167,0.5,none,,red,green,,466.532260698285,,,,,0,6,6,494,trial,,,,,,red,0.46653226069828496,0.4666666666666667,2.2918482999957632,0.9985094000003301,2e-05,2e-05,,0.4666304999991553,0.4999187999928836,2.000043199994252,,2.2918482999957632,2.2918482999957632,2.491875699997763,2.45017789999838,0.15832960000261664,3.8754071000003023,1.583558800004539,1.4252292000019224,0.45859,0.14657420250802425,0.019177933038433077,,,,None,,-0.167,-0.16666666666666666,0.266202260698285,0.26666666666666666,trial_list_0.5_red.csv,0.2668353999906685,0.2999695999897085,p8_base_01,001,2023-05-03_15h15.37.064,expectation_shapes_perceived_time,2022.2.4,119.72405998998663,
,-100,0.5,none,,red,green,,738.6828622871778,,,,,0,7,7,278,trial,,,,,,red,0.7386828622871778,0.7333333333333333,2.2914526000095066,0.9984929999918677,1e-05,1e-05,0.03322,0.7330514000059338,0.7664013000030536,1.999969800002873,2.0330460999975912,2.2914526000095066,2.2914526000095066,2.4915829000092344,2.758251100007328,0.46679849999782164,4.20026389999839,1.9088112999888835,1.442012799991062,0.6678,0.12775593223829992,-0.07436539339244325,,,,None,,-0.1,-0.1,0.6053528622871778,0.6,trial_list_0.5_red.csv,0.5996824000030756,0.6330349000054412,p8_base_01,001,2023-05-03_15h15.37.064,expectation_shapes_perceived_time,2022.2.4,119.72405998998663,
,167,0.5,none,,red,green,,593.0839424783057,,,,,0,8,8,488,trial,,,,,,red,0.5930839424783058,0.5916666666666667,2.291968799996539,0.9975362000113819,2e-05,2e-05,0.03349,0.5918844999978319,0.6249529999913648,2.0003196000034222,2.033643699993263,2.291968799996539,2.291968799996539,2.4916789999988396,2.5836555999994744,0.29168680000293534,3.758547399993404,1.4665785999968648,1.1748917999939295,0.79014,0.09055249339585139,-0.11684192696238889,,,,None,,0.167,0.16666666666666666,0.7934139424783058,0.7916666666666666,trial_list_0.5_red.csv,0.7916580000019167,0.8252178999973694,p8_base_01,001,2023-05-03_15h15.37.064,expectation_shapes_perceived_time,2022.2.4,119.72405998998663,
,33,0.5,none,,green,red,,1187.3099494634296,,,,,0,9,9,49,trial,,,,,,green,1.1873099494634296,1.1833333333333333,2.2918779000028735,0.9982840000011493,1e-05,1e-05,0.03359,1.183390700010932,1.2168258000019705,2.0000396000104956,2.0335475000028964,2.2918779000028735,2.2918779000028735,2.4920371000043815,2.7169507000071462,0.4250728000042727,4.108723600002122,1.8168456999992486,1.3917728999949759,1.10539,-0.04805443224390533,-0.13979471198227006,,,,None,,0.033,0.03333333333333333,1.2536399494634296,1.25,trial_list_0.5_red.csv,1.250233600003412,1.2836450000031618,p8_base_01,001,2023-05-03_15h15.37.064,expectation_shapes_perceived_time,2022.2.4,119.72405998998663,
,167,0.5,none,,green,red,,870.3394017849505,,,,,0,10,10,497,trial,,,,,,green,0.8703394017849505,0.8666666666666667,2.291380399998161,0.9985880000022007,2e-05,2e-05,0.03323,0.8667847000033362,0.9003167000046233,1.9998720000003232,2.0332794999994803,2.291380399998161,2.291380399998161,2.4915838000015356,2.516355500003556,0.22497510000539478,3.7164423000067472,1.4250619000085862,1.2000868000031915,0.57318,0.1439340037338379,-0.033686681724940784,,,,None,,0.167,0.16666666666666666,1.0706694017849505,1.0666666666666667,trial_list_0.5_red.csv,1.0664490000053775,1.100066600003629,p8_base_01,001,2023-05-03_15h15.37.064,expectation_shapes_perceived_time,2022.2.4,119.72405998998663,
,300,0.5,none,,green,red,,932.0154241996752,,,,,0,11,11,251,trial,,,,,,green,0.9320154241996752,0.9333333333333333,2.2911453999986406,0.9991168999986257,1e-05,1e-05,,0.9327448999974877,0.9661494999891147,1.9998132999899099,,2.2911453999986406,2.2911453999986406,2.4911222999944584,2.6660883000004105,0.3749429000017699,4.041303399993922,1.750157999995281,1.375215099993511,0.80418,0.08531051818861039,-0.12072243139897698,,,,None,,0.3,0.3,1.265345424199675,1.2583333333333333,trial_list_0.5_red.csv,1.258134899995639,1.2918500999949174,p8_base_01,001,2023-05-03_15h15.37.064,expectation_shapes_perceived_time,2022.2.4,119.72405998998663,
,-100,0.5,none,,green,red,,714.9083557577244,,,,,0,12,12,345,trial,,,,,,green,0.7149083557577244,0.7166666666666667,2.291884000005666,0.9985967999964487,1e-05,1e-05,,0.7167373999982374,0.7499720000050729,2.000063900006353,,2.291884000005666,2.291884000005666,2.491769000000204,2.5501293999986956,0.2582453999930294,3.5837771000078646,1.2918931000021985,1.033647700009169,1.24768,-0.10376127099977886,-0.10528717204389323,,,,None,,-0.1,-0.1,0.5815783557577243,0.5833333333333334,trial_list_0.5_red.csv,0.5836567000078503,0.6167506000056164,p8_base_01,001,2023-05-03_15h15.37.064,expectation_shapes_perceived_time,2022.2.4,119.72405998998663,
,-33,0.5,none,,red,green,,822.9756608455026,,,,,0,13,13,460,trial,,,,,,red,0.8229756608455026,0.825,2.292216899993946,0.9983885000110604,1e-05,1e-05,0.03351,0.8251533000002382,0.8583437000052072,2.000186399993254,2.033880799994222,2.292216899993946,2.292216899993946,2.4916411000012886,2.6754123999999138,0.3831955000059679,4.233440800002427,1.941223900008481,1.558028400002513,0.85483,0.06510516822700943,-0.13271438138582692,,,,None,,-0.033,-0.03333333333333333,0.7566456608455026,0.7583333333333333,trial_list_0.5_red.csv,0.7581191999925068,0.7919278000044869,p8_base_01,001,2023-05-03_15h15.37.064,expectation_shapes_perceived_time,2022.2.4,119.72405998998663,
,100,0.5,none,,green,red,,1203.1702607461684,,,,,0,14,14,409,trial,,,,,,green,1.2031702607461685,1.2,2.2917999000055715,0.9984402999980375,3e-05,3e-05,0.03311,1.1999084999988554,1.2340132000099402,2.0000233000027947,,2.2917999000055715,2.2917999000055715,2.491827400008333,2.6667582000081893,0.37495830000261776,3.8167209000093862,1.5249210000038147,1.149962700001197,1.41401,-0.14246195403000572,-0.03945100265446312,,,,None,,0.1,0.1,1.3365002607461685,1.3333333333333333,trial_list_0.5_red.csv,1.3336285000114003,1.3669613000092795,p8_base_01,001,2023-05-03_15h15.37.064,expectation_shapes_perceived_time,2022.2.4,119.72405998998663,
,-100,0.5,none,,green,red,,334.97301809814473,,,,,0,15,15,163,trial,,,,,,green,0.3349730180981447,0.3333333333333333,2.292093500000192,0.9982296000089264,2e-05,2e-05,0.03361,0.3334578999929363,0.3669033999904059,2.00042109999049,2.033394700003555,2.292093500000192,2.292093500000192,2.4923806000006152,2.425274499997613,0.13318099999742117,3.8919644999987213,1.5998709999985294,1.4666900000011083,0.11984,0.05434862732022664,0.1374700573393968,,,,None,,-0.1,-0.1,0.20164301809814475,0.2,trial_list_0.5_red.csv,0.20004250000056345,0.23355289999744855,p8_base_01,001,2023-05-03_15h15.37.064,expectation_shapes_perceived_time,2022.2.4,119.72405998998663,
,-300,0.5,none,,red,green,,1321.4275562239256,,,,,0,16,16,402,trial,,,,,,red,1.3214275562239257,1.3166666666666667,2.291693999999552,0.9986424000089755,2e-05,2e-05,0.03341,1.3164707999967504,1.3497889999998733,2.0000483999901917,2.0331736999942223,2.291693999999552,2.291693999999552,2.491357599996263,2.574860799999442,0.2831667999998899,4.416434099999606,2.1247401000000536,1.8415733000001637,0.8986,0.04629761813034124,-0.1403863259436154,,,,None,,-0.3,-0.3,0.9880975562239256,0.9833333333333333,trial_list_0.5_red.csv,0.983053399992059,1.0167259999871021,p8_base_01,001,2023-05-03_15h15.37.064,expectation_shapes_perceived_time,2022.2.4,119.72405998998663,
,167,0.5,none,,green,red,,1610.6430926965284,,,,,0,17,17,57,trial,,,,,,green,1.6106430926965283,1.6083333333333334,2.291884000005666,0.9981380999961402,1e-05,1e-05,0.03366,1.608152600005269,1.6417504999990342,2.00004140000965,2.0332300000009127,2.291884000005666,2.291884000005666,2.49191620000056,2.60019420000026,0.30831019999459386,3.483547299998463,1.191663299992797,0.8833530999982031,1.21529,-0.09252948067478468,-0.11528263166038748,,,,None,,0.167,0.16666666666666666,1.8109730926965282,1.8083333333333333,trial_list_0.5_red.csv,1.8085322000115411,1.8418879000091692,p8_base_01,001,2023-05-03_15h15.37.064,expectation_shapes_perceived_time,2022.2.4,119.72405998998663,
,-100,0.5,none,,green,red,,343.0087953595006,,,,,0,18,18,235,trial,,,,,,green,0.3430087953595006,0.3416666666666667,2.2917053999990458,0.9984187000081874,1e-05,1e-05,0.03344,0.34167969999543857,0.375101600002381,2.0000163999939105,2.033293999993475,2.2917053999990458,2.2917053999990458,2.491603100002976,2.308321899996372,0.016616499997326173,4.017087700005504,1.7253823000064585,1.7087658000091324,0.05109,0.023625681388180605,0.14592332622111553,,,,None,,-0.1,-0.1,0.20967879535950062,0.20833333333333334,trial_list_0.5_red.csv,0.20837649999884889,0.24184970000351314,p8_base_01,001,2023-05-03_15h15.37.064,expectation_shapes_perceived_time,2022.2.4,119.72405998998663,
,-233,0.5,none,,green,red,,1395.46030578706,,,,,0,19,19,115,trial,,,,,,green,1.39546030578706,1.3916666666666666,2.291675000000396,0.998380700009875,1e-05,1e-05,0.03306,1.3914430000004359,1.4247686000016984,2.0005220000020927,2.0336338999914005,2.291675000000396,2.291675000000396,2.491731499991147,2.474846400000388,0.183171399999992,3.8751055000029737,1.583430500002578,1.400259100002586,0.81834,0.07985905017265789,-0.12439582815356325,,,,None,,-0.233,-0.23333333333333334,1.12913030578706,1.125,trial_list_0.5_red.csv,1.1250393999944208,1.1584238999930676,p8_base_01,001,2023-05-03_15h15.37.064,expectation_shapes_perceived_time,2022.2.4,119.72405998998663,
,233,0.5,none,,green,red,,1367.7788638588097,,,,,0,20,20,233,trial,,,,,,green,1.3677788638588098,1.3666666666666667,2.2919947000045795,0.9986449000134598,2e-05,2e-05,0.033,1.3665120999939973,1.3995544999925187,2.0002224999916507,,2.2919947000045795,2.2919947000045795,2.4914007000043057,2.574721500001033,0.28272679999645334,4.183150700002443,1.8911559999978635,1.6084292000014102,1.59947,-0.14066449717070922,0.04544545293207528,,,,None,,0.233,0.23333333333333334,1.6341088638588097,1.6333333333333333,trial_list_0.5_red.csv,1.6329139000008581,1.6663181000039913,p8_base_01,001,2023-05-03_15h15.37.064,expectation_shapes_perceived_time,2022.2.4,119.72405998998663,
,167,0.5,none,,green,red,,323.8018497496661,,,,,0,21,21,473,trial,,,,,,green,0.3238018497496661,0.325,2.29143810000096,0.9985486000077799,1e-05,1e-05,0.03337,0.3247785000130534,0.35796800001116935,2.000148500010255,,2.29143810000096,2.29143810000096,2.4914130000106525,2.5832590000063647,0.29182090000540484,3.98297630000161,1.6915382000006502,1.3997172999952454,1.20941,-0.09038631547491094,-0.1169705259087083,,,,None,,0.167,0.16666666666666666,0.5241318497496661,0.525,trial_list_0.5_red.csv,0.5247788000124274,0.5581602000020212,p8_base_01,001,2023-05-03_15h15.37.064,expectation_shapes_perceived_time,2022.2.4,119.72405998998663,
,-300,0.5,none,,green,red,,1016.1768403665544,,,,,0,22,22,97,trial,,,,,,green,1.0161768403665543,1.0166666666666666,2.291620800009696,0.9986141999979736,2e-05,2e-05,0.03357,1.0166369000071427,1.0502755000052275,1.9999660000030417,2.0335338000004413,2.291620800009696,2.291620800009696,2.491786600003252,2.6667159000062384,0.37509509999654256,4.716722800003481,2.4251019999937853,2.0500068999972427,1.09693,-0.044321419767137424,-0.14102269925907363,,,,None,,-0.3,-0.3,0.6828468403665544,0.6833333333333333,trial_list_0.5_red.csv,0.6835246999980882,0.7166529000096489,p8_base_01,001,2023-05-03_15h15.37.064,expectation_shapes_perceived_time,2022.2.4,119.72405998998663,
,-100,0.5,none,,green,red,,371.2799281397603,,,,,0,23,23,415,trial,,,,,,green,0.3712799281397603,0.36666666666666664,2.2913305000110995,0.9907297000027029,1e-05,1e-05,0.03324,0.36649640000541694,0.3995171999995364,1.9995629000040935,2.0331491000106325,2.2913305000110995,2.2913305000110995,2.4914626000099815,2.2913305000110995,0.0,3.5079052000073716,1.216574699996272,1.216574699996272,0.15307,0.06837813047816371,0.13105808341648045,,,,None,,-0.1,-0.1,0.2379499281397603,0.23333333333333334,trial_list_0.5_red.csv,0.2334067000047071,0.2665525000047637,p8_base_01,001,2023-05-03_15h15.37.064,expectation_shapes_perceived_time,2022.2.4,119.72405998998663,
,167,0.5,none,,green,red,,224.2022734683112,,,,,0,24,24,347,trial,,,,,,green,0.2242022734683112,0.225,2.2918917999922996,0.9985630999872228,2e-05,2e-05,,0.22512739998637699,0.25818509999953676,1.9999987999908626,2.033570499988855,2.2918917999922996,2.2918917999922996,2.4914988999953493,2.2918917999922996,0.0,3.9498621999955503,1.6579704000032507,1.6579704000032507,0.27926,0.11368208839631469,0.09448900853719663,,,,None,,0.167,0.16666666666666666,0.4245322734683112,0.425,trial_list_0.5_red.csv,0.4251093999919249,0.4582677999860607,p8_base_01,001,2023-05-03_15h15.37.064,expectation_shapes_perceived_time,2022.2.4,119.72405998998663,
,-233,0.5,none,,red,green,,1612.6687422279765,0,0,0,0,0,25,25,484,fam,0.532062300000689,0.532062300000689,270.0000000000009,2.523797400004696,2.523797400004696,,,,,,,,,,,,,,,,,,,,,,,,,,,,,,,,,,,,p8_base_01,001,2023-05-03_15h15.37.064,expectation_shapes_perceived_time,2022.2.4,119.72405998998663,
,-233,0.5,none,,red,green,,1612.6687422279765,1,0,1,0,0,25,25,484,fam,0.49869310000212863,0.49869310000212863,270.0000000000009,2.4903000999911455,2.4903000999911455,,,,,,,,,,,,,,,,,,,,,,,,,,,,,,,,,,,,p8_base_01,001,2023-05-03_15h15.37.064,expectation_shapes_perceived_time,2022.2.4,119.72405998998663,
,-233,0.5,none,,red,green,,1612.6687422279765,2,0,2,0,0,25,25,484,fam,0.498443500007852,0.498443500007852,270.0000000000009,2.490066200000001,2.490066200000001,,,,,,,,,,,,,,,,,,,,,,,,,,,,,,,,,,,,p8_base_01,001,2023-05-03_15h15.37.064,expectation_shapes_perceived_time,2022.2.4,119.72405998998663,
,-233,0.5,none,,red,green,,1612.6687422279765,3,0,3,0,0,25,25,484,fam,0.4986449999996694,0.4986449999996694,270.0000000000009,2.490180799999507,2.490180799999507,,,,,,,,,,,,,,,,,,,,,,,,,,,,,,,,,,,,p8_base_01,001,2023-05-03_15h15.37.064,expectation_shapes_perceived_time,2022.2.4,119.72405998998663,
,-233,0.5,none,,red,green,,1612.6687422279765,,,,,0,25,25,484,trial,,,,,,red,1.6126687422279764,1.6083333333333334,2.291688299999805,0.9910381999943638,2e-05,2e-05,0.03315,1.6081046000035712,1.6414218999998411,1.999765300002764,2.0332371999975294,2.291688299999805,2.291688299999805,2.4922426999983145,2.7000016999954823,0.4083133999956772,3.6581995000015013,1.3665112000016961,0.958197800006019,0.64904,0.13191272766574885,-0.06671448295739021,,,,None,,-0.233,-0.23333333333333334,1.3463387422279767,1.3416666666666666,trial_list_0.5_red.csv,1.3416788000031374,1.3747594000014942,p8_base_01,001,2023-05-03_15h15.37.064,expectation_shapes_perceived_time,2022.2.4,119.72405998998663,
,300,0.5,none,,green,red,,1187.416108657416,,,,,0,26,26,325,trial,,,,,,green,1.187416108657416,1.1833333333333333,2.2918350999971153,0.9970838000008371,1e-05,1e-05,0.03382,1.1838146000081906,1.2166608999978052,2.0003421000001254,2.0333477000094717,2.2918350999971153,2.2918350999971153,2.4916935000073863,2.59168490000593,0.2998498000088148,3.5003904000041075,1.2085553000069922,0.9087054999981774,0.43136,0.14439981144479308,0.03163043488790705,,,,None,,0.3,0.3,1.520746108657416,1.5166666666666666,trial_list_0.5_red.csv,1.5168609000102151,1.5505153999984032,p8_base_01,001,2023-05-03_15h15.37.064,expectation_shapes_perceived_time,2022.2.4,119.72405998998663,
,-233,0.5,none,,red,green,,828.8098760579487,,,,,0,27,27,108,trial,,,,,,red,0.8288098760579488,0.825,2.2918191000062507,0.9983781999908388,2e-05,2e-05,0.03361,0.8249625000025844,0.8584467000036966,1.9998966000130167,2.0332335000130115,2.2918191000062507,2.2918191000062507,2.4917272000020603,2.2918191000062507,0.0,3.533230700006243,1.2414115999999922,1.2414115999999922,0.88988,0.050127956587244185,-0.1390646537581613,,,,None,,-0.233,-0.23333333333333334,0.5624798760579487,0.5583333333333333,trial_list_0.5_red.csv,0.5586026000091806,0.591485000011744,p8_base_01,001,2023-05-03_15h15.37.064,expectation_shapes_perceived_time,2022.2.4,119.72405998998663,
,300,0.5,none,,red,green,,935.956049693788,,,,,0,28,28,4,trial,,,,,,red,0.935956049693788,0.9333333333333333,2.2916422999987844,0.9983972000045469,2e-05,2e-05,,0.9331130999926245,0.9667119999940041,1.9999279000039678,,2.2916422999987844,2.2916422999987844,2.4917380999977468,2.6498081000027014,0.35816580000391696,4.3500720000010915,2.058429700002307,1.7002638999983901,1.06567,-0.030283590406602418,-0.14468826527598933,,,,None,,0.3,0.3,1.2692860496937879,1.2666666666666666,trial_list_0.5_red.csv,1.2666362000018125,1.2999485000036657,p8_base_01,001,2023-05-03_15h15.37.064,expectation_shapes_perceived_time,2022.2.4,119.72405998998663,
,167,0.5,none,,red,green,,936.0647440324414,,,,,0,29,29,52,trial,,,,,,red,0.9360647440324413,0.9333333333333333,2.291316100003314,0.998583199994755,1e-05,1e-05,,0.9332487000065157,0.9663396000105422,2.000018300008378,,2.291316100003314,2.291316100003314,2.4912792000104673,2.5663933000032557,0.2750771999999415,3.624739500010037,1.3334234000067227,1.0583462000067811,0.70811,0.11733820010658871,-0.08990849099076277,,,,None,,0.167,0.16666666666666666,1.1363947440324413,1.1333333333333333,trial_list_0.5_red.csv,1.1333605000108946,1.1666786999994656,p8_base_01,001,2023-05-03_15h15.37.064,expectation_shapes_perceived_time,2022.2.4,119.72405998998663,
,-167,0.5,none,,red,green,,389.0797602007186,,,,,0,30,30,496,trial,,,,,,red,0.3890797602007186,0.39166666666666666,2.291759399988223,0.9982295999943744,2e-05,2e-05,0.03318,0.39148890000069514,0.42487529999925755,2.0000198999914574,2.0331635999900755,2.291759399988223,2.291759399988223,2.491842399991583,2.291759399988223,0.0,3.933220299993991,1.641460900005768,1.641460900005768,0.19968,0.08676760636729802,0.11967945705834208,,,,None,,-0.167,-0.16666666666666666,0.18874976020071865,0.19166666666666665,trial_list_0.5_red.csv,0.19178459999966435,0.22494639999058563,p8_base_01,001,2023-05-03_15h15.37.064,expectation_shapes_perceived_time,2022.2.4,119.72405998998663,
,-167,0.5,none,,red,green,,473.8706915270898,,,,,0,31,31,212,trial,,,,,,red,0.47387069152708977,0.475,2.2923656000057235,0.9968957000091905,2e-05,2e-05,0.03333,0.4749614000029396,0.5085166999924695,2.0002631999959704,2.033396200000425,2.2923656000057235,2.2923656000057235,2.492360899996129,2.766827600004035,0.4744619999983115,4.0083317999960855,1.715966199990362,1.2415041999920504,0.26363,0.10890676427084447,0.09995552337187094,,,,None,,-0.167,-0.16666666666666666,0.2735406915270898,0.275,trial_list_0.5_red.csv,0.27518359999521635,0.3083979999937583,p8_base_01,001,2023-05-03_15h15.37.064,expectation_shapes_perceived_time,2022.2.4,119.72405998998663,
,300,0.5,none,,green,red,,1437.057230752739,,,,,0,32,32,31,trial,,,,,,green,1.4370572307527392,1.4333333333333333,2.291561600010027,0.9984374999912689,2e-05,2e-05,0.03311,1.43343280001136,1.4664606000005733,2.0000781000126153,2.033142600004794,2.291561600010027,2.291561600010027,2.4917777000082424,2.5833044000028167,0.2917427999927895,3.758252600004198,1.4666909999941709,1.1749482000013813,1.64758,-0.13221736635250278,0.06610868317625139,,,,None,,0.3,0.3,1.770387230752739,1.7666666666666666,trial_list_0.5_red.csv,1.7664336000016192,1.7998404000099981,p8_base_01,001,2023-05-03_15h15.37.064,expectation_shapes_perceived_time,2022.2.4,119.72405998998663,
,300,0.5,none,,red,green,,1028.6599833148946,,,,,0,33,33,68,trial,,,,,,red,1.0286599833148946,1.025,2.291465000002063,0.9908818999974756,1e-05,1e-05,0.03292,1.0244667000079062,1.0581251999974484,1.9997605999960797,2.0331773000070825,2.291465000002063,2.291465000002063,2.4911217000044417,2.374511900008656,0.0830469000065932,3.716212200000882,1.4247471999988193,1.341700299992226,0.41787,0.14293060429356252,0.03771779835524566,,,,None,,0.3,0.3,1.3619899833148945,1.3583333333333334,trial_list_0.5_red.csv,1.3581078999995952,1.3914143000001786,p8_base_01,001,2023-05-03_15h15.37.064,expectation_shapes_perceived_time,2022.2.4,119.72405998998663,
,-300,0.5,none,,green,red,,1397.0835120390586,,,,,0,34,34,427,trial,,,,,,green,1.3970835120390586,1.3916666666666666,2.2916019999975106,0.9985742999997456,1e-05,1e-05,0.03294,1.391628999990644,1.4249146999936784,1.999635499989381,2.033275900001172,2.2916019999975106,2.2916019999975106,2.491492599991034,2.6665168999898015,0.3749148999922909,3.983055399992736,1.6914533999952255,1.3165385000029346,0.64174,0.13340791424893406,-0.0636719590733549,,,,None,,-0.3,-0.3,1.0637535120390587,1.0583333333333333,trial_list_0.5_red.csv,1.0579154000006383,1.0916261999955168,p8_base_01,001,2023-05-03_15h15.37.064,expectation_shapes_perceived_time,2022.2.4,119.72405998998663,
,-233,0.5,none,,red,green,,1388.1271228343662,,,,,0,35,35,372,trial,,,,,,red,1.3881271228343661,1.3833333333333333,2.291190200005076,0.9992230999923777,0.00014,0.00014,0.03326,1.382615300011821,1.4162002000084613,1.9995964000117965,2.032667899999069,2.291190200005076,2.291190200005076,2.4909769000078086,2.741225800011307,0.4500356000062311,3.7579326999984914,1.4667424999934155,1.0167068999871844,0.76719,0.09873276204879751,-0.11001650628294579,,,,None,,-0.233,-0.23333333333333334,1.1217971228343664,1.1166666666666667,trial_list_0.5_red.csv,1.1158077000000048,1.1493066000111867,p8_base_01,001,2023-05-03_15h15.37.064,expectation_shapes_perceived_time,2022.2.4,119.72405998998663,
,-33,0.5,none,,green,red,,495.512322985721,,,,,0,36,36,195,trial,,,,,,green,0.495512322985721,0.49166666666666664,2.291944600001443,0.9982695000071544,2e-05,2e-05,0.0337,0.4918767999915872,0.5253808999987086,2.0001376000000164,2.0335607000015443,2.291944600001443,2.291944600001443,2.491678399994271,2.5667993999959435,0.27485479999450035,3.2671553999971366,0.9752107999956934,0.700356000001193,0.21681,0.09307982234085285,0.11483874184910418,,,,None,,-0.033,-0.03333333333333333,0.42918232298572107,0.425,trial_list_0.5_red.csv,0.42537549999542534,0.45871859999897424,p8_base_01,001,2023-05-03_15h15.37.064,expectation_shapes_perceived_time,2022.2.4,119.72405998998663,
,167,0.5,none,,red,green,,768.8323120062184,,,,,0,37,37,314,trial,,,,,,red,0.7688323120062185,0.7666666666666666,2.2916285999963293,0.9982333999942057,3e-05,3e-05,,0.7669192000030307,0.8000832999969134,2.0000284999987343,2.0334780999983195,2.2916285999963293,2.2916285999963293,2.491945999994641,2.416756100006751,0.1251275000104215,3.4919466999999713,1.200318100003642,1.0751905999932205,0.482,0.14758726471273484,0.008353996115815181,,,,None,,0.167,0.16666666666666666,0.9691623120062185,0.9666666666666667,trial_list_0.5_red.csv,0.9668642000033287,1.0000696000060998,p8_base_01,001,2023-05-03_15h15.37.064,expectation_shapes_perceived_time,2022.2.4,119.72405998998663,
,-33,0.5,none,,red,green,,259.8014596535179,,,,,0,38,38,268,trial,,,,,,red,0.2598014596535179,0.2583333333333333,2.2916078999987803,0.9985569999989821,2e-05,2e-05,0.03301,0.2580186999985017,0.2916192999982741,1.9996974999958184,2.0332420999911847,2.2916078999987803,2.2916078999987803,2.4915616999933263,2.4331904999999097,0.14158260000112932,3.7496447999874363,1.458036899988656,1.3164542999875266,0.08788,0.04029706895511453,0.14222494925334536,,,,None,,-0.033,-0.03333333333333333,0.19347145965351792,0.19166666666666665,trial_list_0.5_red.csv,0.19165649999922607,0.2248772999882931,p8_base_01,001,2023-05-03_15h15.37.064,expectation_shapes_perceived_time,2022.2.4,119.72405998998663,
,-33,0.5,none,,red,green,,221.57305538548945,,,,,0,39,39,280,trial,,,,,,red,0.22157305538548946,0.225,2.2915615000092657,0.9989159999968251,1e-05,1e-05,0.03339,0.22490630000538658,0.25801200000569224,1.9997207000124035,2.0330250000115484,2.2915615000092657,2.2915615000092657,2.4914579000032973,2.7664050000021234,0.4748434999928577,4.324684800012619,2.0331233000033535,1.5582798000104958,0.04884,0.022590791470648318,0.1460871181768591,,,,None,,-0.033,-0.03333333333333333,0.15524305538548946,0.15833333333333333,trial_list_0.5_red.csv,0.1584016000124393,0.1913401000056183,p8_base_01,001,2023-05-03_15h15.37.064,expectation_shapes_perceived_time,2022.2.4,119.72405998998663,
,-233,0.5,none,,red,green,,1030.724376704948,,,,,0,40,40,254,trial,,,,,,red,1.030724376704948,1.025,2.2914346999896225,0.9984022999997251,1e-05,1e-05,0.03302,1.0253566000028513,1.0585903999890434,1.9999605999910273,,2.2914346999896225,2.2914346999896225,2.4914635000022827,2.2914346999896225,0.0,3.4583217999897897,1.1668871000001673,1.1668871000001673,0.63517,0.1346936410286464,-0.06090495072599662,,,,None,,-0.233,-0.23333333333333334,0.764394376704948,0.7666666666666666,trial_list_0.5_red.csv,0.766336799992132,0.7996493999962695,p8_base_01,001,2023-05-03_15h15.37.064,expectation_shapes_perceived_time,2022.2.4,119.72405998998663,
,233,0.5,none,,green,red,,289.7970442279933,,,,,0,41,41,367,trial,,,,,,green,0.2897970442279933,0.2916666666666667,2.291557999997167,0.9987056000099983,2e-05,2e-05,0.03328,0.291616200003773,0.3248295999947004,1.9997270000021672,2.0332005999953253,2.291557999997167,2.291557999997167,2.491400500002783,2.5247334000014234,0.23317540000425652,3.424710799998138,1.1331528000009712,0.8999773999967147,0.10002,0.04569018794590173,0.14058519367969763,,,,None,,0.233,0.23333333333333334,0.5561270442279933,0.5583333333333333,trial_list_0.5_red.csv,0.5579909999942174,0.5917038999905344,p8_base_01,001,2023-05-03_15h15.37.064,expectation_shapes_perceived_time,2022.2.4,119.72405998998663,
,167,0.5,none,,green,red,,1223.1918897811056,,,,,0,42,42,301,trial,,,,,,green,1.2231918897811056,1.2166666666666666,2.291360600007465,0.9906779000011738,1e-05,1e-05,0.0331,1.216435399997863,1.2496109000057913,1.9997166999964975,2.033107099996414,2.291360600007465,2.291360600007465,2.4914606000093045,2.5495389999996405,0.2581783999921754,3.7911476000008406,1.4997869999933755,1.2416086000012,1.18942,-0.08286489430761959,-0.12241404840898348,,,,None,,0.167,0.16666666666666666,1.4235218897811055,1.4166666666666667,trial_list_0.5_red.csv,1.416501400002744,1.4496132000058424,p8_base_01,001,2023-05-03_15h15.37.064,expectation_shapes_perceived_time,2022.2.4,119.72405998998663,
,233,0.5,none,,red,green,,945.3652270069952,,,,,0,43,43,130,trial,,,,,,red,0.9453652270069951,0.9416666666666667,2.292372699987027,0.9981833999918308,2e-05,2e-05,0.03361,0.941616799987969,0.9752879000006942,1.999942700000247,2.0332997999939835,2.292372699987027,2.292372699987027,2.4920390999905067,2.692032699997071,0.3996600000100443,4.616780500000459,2.3244078000134323,1.924747800003388,0.37041,0.13574208324411882,0.05853099002269344,,,,None,,0.233,0.23333333333333334,1.2116952270069952,1.2083333333333333,trial_list_0.5_red.csv,1.2086081999877933,1.2417934999975841,p8_base_01,001,2023-05-03_15h15.37.064,expectation_shapes_perceived_time,2022.2.4,119.72405998998663,
,-100,0.5,none,,red,green,,1119.4564356342314,,,,,0,44,44,140,trial,,,,,,red,1.1194564356342314,1.1166666666666667,2.2914090999984182,0.9988020000018878,3e-05,3e-05,0.03306,1.1164472000091337,1.1499070999998366,1.9999340000067605,2.033274400004302,2.2914090999984182,2.2914090999984182,2.4914607999962755,2.808225200002198,0.5168161000037799,4.174822500004666,1.8834134000062477,1.3665973000024678,1.46369,-0.14686254920175906,-0.016828000429368228,,,,None,,-0.1,-0.1,0.9861264356342314,0.9833333333333333,trial_list_0.5_red.csv,0.9830239000002621,1.016675100006978,p8_base_01,001,2023-05-03_15h15.37.064,expectation_shapes_perceived_time,2022.2.4,119.72405998998663,
,-300,0.5,none,,green,red,,1366.928480394548,,,,,0,45,45,393,trial,,,,,,green,1.3669284803945478,1.3666666666666667,2.292138699995121,0.9983788000099594,1e-05,1e-05,0.03375,1.3666756000020541,1.4001458999991883,2.0001264000020456,2.033781699996325,2.292138699995121,2.292138699995121,2.4919231999956537,2.733676200004993,0.441537500009872,4.267124999998487,1.9749863000033656,1.5334487999934936,0.90596,0.04304053187234891,-0.14141889043771785,,,,None,,-0.3,-0.3,1.033598480394548,1.0333333333333332,trial_list_0.5_red.csv,1.033362699992722,1.066960399999516,p8_base_01,001,2023-05-03_15h15.37.064,expectation_shapes_perceived_time,2022.2.4,119.72405998998663,
,-100,0.5,none,,green,red,,1035.340887520415,,,,,0,46,46,431,trial,,,,,,green,1.035340887520415,1.0333333333333332,2.291611100008595,0.9985520999907749,1e-05,1e-05,0.03299,1.0329981000104453,1.0672868000110611,2.000017000013031,2.0333100000134436,2.291611100008595,2.291611100008595,2.4914672000013525,2.624750100003439,0.3331389999948442,3.5248485000047367,1.233237399996142,0.9000984000012977,0.54563,0.14630748951735795,-0.02111654487879393,,,,None,,-0.1,-0.1,0.9020108875204149,0.9,trial_list_0.5_red.csv,0.8997244000056526,0.9330084000102943,p8_base_01,001,2023-05-03_15h15.37.064,expectation_shapes_perceived_time,2022.2.4,119.72405998998663,
,-167,0.5,none,,green,red,,507.0490698098407,,,,,0,47,47,317,trial,,,,,,green,0.5070490698098408,0.5083333333333333,2.2917605000111507,0.9978163999912795,1e-05,1e-05,0.03355,0.5084241000004113,0.5416868000029353,2.000118099997053,,2.2917605000111507,2.2917605000111507,2.491745200008154,2.608286600006977,0.31652609999582637,3.43342400000256,1.1416634999914095,0.8251373999955831,0.3421,0.1300067041149469,0.07035656928573598,,,,None,,-0.167,-0.16666666666666666,0.3067190698098407,0.30833333333333335,trial_list_0.5_red.csv,0.3083836000005249,0.3416995000006864,p8_base_01,001,2023-05-03_15h15.37.064,expectation_shapes_perceived_time,2022.2.4,119.72405998998663,
,-300,0.5,none,,red,green,,885.4852901396116,,,,,0,48,48,426,trial,,,,,,red,0.8854852901396116,0.8833333333333333,2.2918657999980496,0.9976699999970151,2e-05,2e-05,,0.8835974000103306,0.9168107000004966,2.0001251000066986,,2.2918657999980496,2.2918657999980496,2.4919549000042025,2.5752501000097254,0.2833843000116758,3.5587399000069126,1.266874100008863,0.9834897999971872,0.63648,0.13444170876820918,-0.06145906686546705,,,,None,,-0.3,-0.3,0.5521552901396116,0.55,trial_list_0.5_red.csv,0.5500158000068041,0.583593600007589,p8_base_01,001,2023-05-03_15h15.37.064,expectation_shapes_perceived_time,2022.2.4,119.72405998998663,
,33,0.5,none,,red,green,,493.1332066100536,,,,,0,49,49,428,trial,,,,,,red,0.4931332066100536,0.49166666666666664,2.2917519000038737,0.9971103999996558,1e-05,1e-05,,0.49169789999723434,0.5250314000004437,2.000115700007882,,2.2917519000038737,2.2917519000038737,2.491583700000774,2.5499494999967283,0.2581975999928545,4.283644499999355,1.9918925999954809,1.7336950000026263,0.28295,0.11476918501832874,0.09316557372076098,,,,None,,0.033,0.03333333333333333,0.5594632066100536,0.5583333333333333,trial_list_0.5_red.csv,0.5583813999983249,0.5917168000014499,p8_base_01,001,2023-05-03_15h15.37.064,expectation_shapes_perceived_time,2022.2.4,119.72405998998663,
,-300,0.5,none,,red,green,,1244.549787673749,0,0,0,0,0,50,50,338,fam,0.5408145999972476,0.5408145999972476,270.0000000000009,2.532339999990654,2.532339999990654,,,,,,,,,,,,,,,,,,,,,,,,,,,,,,,,,,,,p8_base_01,001,2023-05-03_15h15.37.064,expectation_shapes_perceived_time,2022.2.4,119.72405998998663,
,-300,0.5,none,,red,green,,1244.549787673749,1,0,1,0,0,50,50,338,fam,0.4983955999923637,0.4983955999923637,270.0000000000009,2.490155399995274,2.490155399995274,,,,,,,,,,,,,,,,,,,,,,,,,,,,,,,,,,,,p8_base_01,001,2023-05-03_15h15.37.064,expectation_shapes_perceived_time,2022.2.4,119.72405998998663,
,-300,0.5,none,,red,green,,1244.549787673749,2,0,2,0,0,50,50,338,fam,0.49856459999864455,0.49856459999864455,270.0000000000009,2.490546200002427,2.490546200002427,,,,,,,,,,,,,,,,,,,,,,,,,,,,,,,,,,,,p8_base_01,001,2023-05-03_15h15.37.064,expectation_shapes_perceived_time,2022.2.4,119.72405998998663,
,-300,0.5,none,,red,green,,1244.549787673749,3,0,3,0,0,50,50,338,fam,0.4987548000062816,0.4987548000062816,270.0000000000009,2.490346699996735,2.490346699996735,,,,,,,,,,,,,,,,,,,,,,,,,,,,,,,,,,,,p8_base_01,001,2023-05-03_15h15.37.064,expectation_shapes_perceived_time,2022.2.4,119.72405998998663,
,-300,0.5,none,,red,green,,1244.549787673749,,,,,0,50,50,338,trial,,,,,,red,1.244549787673749,1.2416666666666667,2.291816099997959,0.9988986999960616,2e-05,2e-05,,1.2417390000045998,1.2753384999959962,1.9999971999932313,,2.291816099997959,2.291816099997959,2.4917346000002,2.6253476999991108,0.3335316000011517,3.5333049000037136,1.2414888000057545,0.9079572000046028,0.55257,0.1458122115556408,-0.02430203525927347,,,,None,,-0.3,-0.3,0.911219787673749,0.9083333333333333,trial_list_0.5_red.csv,0.90874640000402,0.9417414999916218,p8_base_01,001,2023-05-03_15h15.37.064,expectation_shapes_perceived_time,2022.2.4,119.72405998998663,
,-300,0.5,none,,red,green,,1717.7371073495233,,,,,0,51,51,34,trial,,,,,,red,1.7177371073495233,1.7166666666666666,2.2915778000024147,0.9986872000008589,2e-05,2e-05,0.03322,1.716928599998937,1.7501224000006914,1.9999240000033751,2.0332286000048043,2.2915778000024147,2.2915778000024147,2.4918642999982694,2.4082371999975294,0.11665939999511465,3.4252662000071723,1.1336884000047576,1.017029000009643,1.42299,-0.1435188385522975,-0.03541373938303445,,,,None,,-0.3,-0.3,1.3844071073495234,1.3833333333333333,trial_list_0.5_red.csv,1.3833385000034468,1.4168968000012683,p8_base_01,001,2023-05-03_15h15.37.064,expectation_shapes_perceived_time,2022.2.4,119.72405998998663,
,-233,0.5,none,,red,green,,927.5125431280086,,,,,0,52,52,390,trial,,,,,,red,0.9275125431280086,0.9249999999999999,2.291622599994298,0.998625299995183,2e-05,2e-05,,0.9247516000032192,0.958262600004673,1.9999717000027886,2.033339400004479,2.291622599994298,2.291622599994298,2.491642299995874,2.291622599994298,0.0,3.958325200001127,1.666702600006829,1.666702600006829,0.61945,0.13753623388060918,-0.054180940619633924,,,,None,,-0.233,-0.23333333333333334,0.6611825431280085,0.6583333333333333,trial_list_0.5_red.csv,0.6583418999944115,0.6914032000058796,p8_base_01,001,2023-05-03_15h15.37.064,expectation_shapes_perceived_time,2022.2.4,119.72405998998663,
,-33,0.5,none,,green,red,,1145.737431854342,,,,,0,53,53,91,trial,,,,,,green,1.145737431854342,1.1416666666666666,2.291899600008037,0.9983326000074157,2e-05,2e-05,0.03367,1.1419861000031233,1.1750338000128977,2.0003205000102753,2.0335997000074713,2.291899600008037,2.291899600008037,2.4921709000045666,2.717010400010622,0.42511080000258517,4.575351800012868,2.283452200004831,1.8583414000022458,0.84024,0.07111755448828448,-0.12959198817865172,,,,None,,-0.033,-0.03333333333333333,1.079407431854342,1.075,trial_list_0.5_red.csv,1.07536900001287,1.108419900003355,p8_base_01,001,2023-05-03_15h15.37.064,expectation_shapes_perceived_time,2022.2.4,119.72405998998663,
,167,0.5,none,,red,green,,160.411117317507,,,,,0,54,54,62,trial,,,,,,red,0.160411117317507,0.15833333333333333,2.291309500011266,0.9986684000032255,1e-05,1e-05,0.03321,0.15807910000148695,0.19173560000490397,1.9997353000071598,,2.291309500011266,2.291309500011266,2.491454500006512,2.291309500011266,0.0,3.124831900000572,0.833522399989306,0.833522399989306,0.12608,0.05703121618287181,0.13637899521991084,,,,None,,0.167,0.16666666666666666,0.36074111731750697,0.35833333333333334,trial_list_0.5_red.csv,0.3579729000048246,0.3913879000028828,p8_base_01,001,2023-05-03_15h15.37.064,expectation_shapes_perceived_time,2022.2.4,119.72405998998663,
,-233,0.5,none,,green,red,,849.837306466305,,,,,0,55,55,15,trial,,,,,,green,0.849837306466305,0.85,2.291870100001688,0.9984800000092946,2e-05,2e-05,0.03412,0.8499361000140198,0.8838204000057885,2.0000988000101643,2.033675900005619,2.291870100001688,2.291870100001688,2.49170270000468,2.4836100000102306,0.19173990000854246,3.5170596000098158,1.2251895000081277,1.0334495999995852,0.28253,0.11464629721188069,0.09331675354455406,,,,None,,-0.233,-0.23333333333333334,0.583507306466305,0.5833333333333334,trial_list_0.5_red.csv,0.5839268000127049,0.6173665000096662,p8_base_01,001,2023-05-03_15h15.37.064,expectation_shapes_perceived_time,2022.2.4,119.72405998998663,
,-233,0.5,none,,green,red,,1093.4908769388926,,,,,0,56,56,25,trial,,,,,,green,1.0934908769388927,1.0916666666666666,2.292028700001538,0.9982463000051212,1e-05,1e-05,0.03332,1.0917613999918103,1.1254470999992918,2.000144999998156,2.0334153000003425,2.292028700001538,2.292028700001538,2.492042099998798,2.508381899999222,0.216353199997684,3.500088599990704,1.2080598999891663,0.9917066999914823,0.87547,0.05636967530608726,-0.1366537583177873,,,,None,,-0.233,-0.23333333333333334,0.8271608769388925,0.825,trial_list_0.5_red.csv,0.8251124999951571,0.8587338999932399,p8_base_01,001,2023-05-03_15h15.37.064,expectation_shapes_perceived_time,2022.2.4,119.72405998998663,
,167,0.5,none,,green,red,,1476.9038168940533,,,,,0,57,57,411,trial,,,,,,green,1.4769038168940534,1.475,2.2918828999972902,0.9979920000041602,1e-05,1e-05,0.03355,1.4754114000097616,1.5084132000047248,2.0000524000060977,2.033576100002392,2.2918828999972902,2.2918828999972902,2.4917253000021446,2.6752272000012454,0.38334430000395514,3.4833966000005603,1.19151370000327,0.8081693999993149,1.56719,-0.14454218443192057,0.030973325235411554,,,,None,,0.167,0.16666666666666666,1.6772338168940533,1.675,trial_list_0.5_red.csv,1.675226899998961,1.708514700003434,p8_base_01,001,2023-05-03_15h15.37.064,expectation_shapes_perceived_time,2022.2.4,119.72405998998663,
,-233,0.5,none,,green,red,,1457.0441341133696,,,,,0,58,58,217,trial,,,,,,green,1.4570441341133695,1.45,2.2916635000001406,0.998945500003174,1e-05,1e-05,0.03299,1.4498778999986826,1.483192899991991,1.999872399988817,2.0330269999976736,2.2916635000001406,2.2916635000001406,2.491458499993314,2.766580299998168,0.4749167999980273,3.674960499993176,1.3832969999930356,0.9083801999950083,0.91189,0.04039677853433944,-0.1421966604408748,,,,None,,-0.233,-0.23333333333333334,1.1907141341133698,1.1916666666666667,trial_list_0.5_red.csv,1.1912792999937665,1.2246538999897894,p8_base_01,001,2023-05-03_15h15.37.064,expectation_shapes_perceived_time,2022.2.4,119.72405998998663,
,300,0.5,none,,red,green,,748.7376758056538,,,,,0,59,59,302,trial,,,,,,red,0.7487376758056538,0.75,2.29146480000054,0.9983140999975149,2e-05,2e-05,0.03325,0.7500981999910437,0.7832060999935493,1.9998391999979503,2.0332656999962637,2.29146480000054,2.29146480000054,2.491969099995913,2.733155199995963,0.4416903999954229,3.6082300999987638,1.3167652999982238,0.8750749000028009,1.13104,-0.05915033477501602,-0.13547334738793992,,,,None,,0.3,0.3,1.0820676758056538,1.0833333333333333,trial_list_0.5_red.csv,1.0831077999901026,1.1167524999909801,p8_base_01,001,2023-05-03_15h15.37.064,expectation_shapes_perceived_time,2022.2.4,119.72405998998663,
,233,0.5,none,,green,red,,922.8467899455304,,,,,0,60,60,75,trial,,,,,,green,0.9228467899455304,0.9166666666666666,2.2916495999961626,0.9907201000023633,1e-05,1e-05,0.03328,0.9164446000067983,0.9498480000038398,1.9994796999963,2.0335726000048453,2.2916495999961626,2.2916495999961626,2.4912290000065695,2.674623099999735,0.38297350000357255,3.799698000002536,1.5080484000063734,1.1250749000028009,0.69186,0.1217745511068222,-0.08380184162189916,,,,None,,0.233,0.23333333333333334,1.1891767899455303,1.1833333333333333,trial_list_0.5_red.csv,1.1828304000082426,1.2165691999980481,p8_base_01,001,2023-05-03_15h15.37.064,expectation_shapes_perceived_time,2022.2.4,119.72405998998663,
,-233,0.5,none,,red,green,,1237.1162821037906,,,,,0,61,61,124,trial,,,,,,red,1.2371162821037907,1.2333333333333334,2.292110099995625,0.998829799995292,1e-05,1e-05,0.03309,1.2328370999894105,1.2665858999971533,1.9996185999916634,2.0328614999889396,2.292110099995625,2.292110099995625,2.491593999991892,2.9078550999984145,0.6157450000027893,4.249525599996559,1.9574155000009341,1.3416704999981448,1.58075,-0.14309269865755464,0.03709810705936602,,,,None,,-0.233,-0.23333333333333334,0.9707862821037906,0.9666666666666667,trial_list_0.5_red.csv,0.9666468999930657,0.9998982999968575,p8_base_01,001,2023-05-03_15h15.37.064,expectation_shapes_perceived_time,2022.2.4,119.72405998998663,
,-300,0.5,none,,green,red,,1071.9775396473449,,,,,0,62,62,47,trial,,,,,,green,1.071977539647345,1.0666666666666667,2.2916476000100374,0.9984007000020938,2e-05,2e-05,0.03349,1.0669278999994276,1.100224400011939,2.0001742000022205,2.0334733000054257,2.2916476000100374,2.2916476000100374,2.4919393000018317,2.7336303000047337,0.4419826999946963,4.35050620000402,2.0588585999939824,1.616875899999286,0.58595,0.14246698617014752,-0.03943282652923726,,,,None,,-0.3,-0.3,0.7386475396473449,0.7333333333333333,trial_list_0.5_red.csv,0.7334361000102945,0.7669508000108181,p8_base_01,001,2023-05-03_15h15.37.064,expectation_shapes_perceived_time,2022.2.4,119.72405998998663,
,300,0.5,none,,red,green,,1184.92096282579,,,,,0,63,63,104,trial,,,,,,red,1.18492096282579,1.1833333333333333,2.291677700006403,0.9983827000105521,1e-05,1e-05,0.03322,1.1834646000061184,1.2166150000120979,1.999985700007528,2.033382599998731,2.291677700006403,2.291677700006403,2.4916437000065343,2.6665011000004597,0.37482339999405667,4.275055800011614,1.9833781000052113,1.6085547000111546,1.68421,-0.1237528457086493,0.08085185919631756,,,,None,,0.3,0.3,1.5182509628257899,1.5166666666666666,trial_list_0.5_red.csv,1.5163905000081286,1.549763900009566,p8_base_01,001,2023-05-03_15h15.37.064,expectation_shapes_perceived_time,2022.2.4,119.72405998998663,
,167,0.5,none,,red,green,,1199.5532519902572,,,,,0,64,64,170,trial,,,,,,red,1.1995532519902572,1.2,2.2918492000026163,0.9984681000059936,2e-05,2e-05,0.03349,1.1998612000024877,1.2331848000030732,2.000031300005503,2.033402600005502,2.2918492000026163,2.2918492000026163,2.491681700004847,2.600155599997379,0.3083063999947626,3.6166472000040812,1.324798000001465,1.0164916000067024,0.39011,0.13910082727835443,0.050027490512390624,,,,None,,0.167,0.16666666666666666,1.399883251990257,1.4,trial_list_0.5_red.csv,1.400622100001783,1.4335515999991912,p8_base_01,001,2023-05-03_15h15.37.064,expectation_shapes_perceived_time,2022.2.4,119.72405998998663,
,100,0.5,none,,red,green,,458.05322270224326,,,,,0,65,65,116,trial,,,,,,red,0.45805322270224325,0.4583333333333333,2.2917635999911,0.9987082000006922,2e-05,2e-05,0.03289,0.4582081999978982,0.4913279999891529,2.0003077000001213,2.0331109999970067,2.2917635999911,2.2917635999911,2.49126479998813,2.5579777999955695,0.2662142000044696,3.508235599991167,1.216472000000067,0.9502577999955975,0.15528,0.06928721552699998,0.13057975233934616,,,,None,,0.1,0.1,0.5913832227022433,0.5916666666666667,trial_list_0.5_red.csv,0.5915113999944879,0.6246381999953883,p8_base_01,001,2023-05-03_15h15.37.064,expectation_shapes_perceived_time,2022.2.4,119.72405998998663,
,167,0.5,none,,red,green,,1453.314764597484,,,,,0,66,66,86,trial,,,,,,red,1.4533147645974842,1.45,2.292491699990933,0.9984085999894887,1e-05,1e-05,0.03367,1.449938599995221,1.483598399994662,2.000120999990031,2.03328029999102,2.292491699990933,2.292491699990933,2.4917115999996895,2.7083168999961345,0.4158252000052016,4.05860639999446,1.766114700003527,1.3502894999983255,0.37717,0.13695354085086303,0.05563737597066311,,,,None,,0.167,0.16666666666666666,1.653644764597484,1.65,trial_list_0.5_red.csv,1.650327199997264,1.6835932999965735,p8_base_01,001,2023-05-03_15h15.37.064,expectation_shapes_perceived_time,2022.2.4,119.72405998998663,
,-100,0.5,none,,green,red,,1126.5203597642717,,,,,0,67,67,61,trial,,,,,,green,1.1265203597642717,1.125,2.292216100002406,0.9986248000059277,1e-05,1e-05,,1.1248172000050545,1.1583837999933166,1.9996836999926018,,2.292216100002406,2.292216100002406,2.4917235000029905,2.5248283999972045,0.23261229999479838,3.6334837000031257,1.3412676000007195,1.1086553000059212,0.70607,0.11791280172363719,-0.08915358179104274,,,,None,,-0.1,-0.1,0.9931903597642716,0.9916666666666667,trial_list_0.5_red.csv,0.9913080999976955,1.0251207999972394,p8_base_01,001,2023-05-03_15h15.37.064,expectation_shapes_perceived_time,2022.2.4,119.72405998998663,
,300,0.5,none,,red,green,,663.0579725558466,,,,,0,68,68,358,trial,,,,,,red,0.6630579725558466,0.6583333333333333,2.2916564000042854,0.9982318999973359,2e-05,2e-05,0.03323,0.65852779999841,0.6916636999958428,1.999975300001097,2.033243700003368,2.2916564000042854,2.2916564000042854,2.491574200001196,2.5165784999990137,0.22492209999472834,3.3332511999906274,1.041594799986342,0.8166726999916136,0.88988,0.050127956587244185,-0.1390646537581613,,,,None,,0.3,0.3,0.9963879725558467,0.9916666666666667,trial_list_0.5_red.csv,0.9918724000017392,1.0252142999961507,p8_base_01,001,2023-05-03_15h15.37.064,expectation_shapes_perceived_time,2022.2.4,119.72405998998663,
,-100,0.5,none,,red,green,,1296.6120154915752,,,,,0,69,69,152,trial,,,,,,red,1.2966120154915752,1.2916666666666667,2.2916961000009906,0.9981589000090025,1e-05,1e-05,0.03372,1.291823999999906,1.3251256000075955,2.0002770999999484,2.033336499996949,2.2916961000009906,2.2916961000009906,2.4920488000061596,2.575020600008429,0.2833245000074385,3.9669052999961423,1.6752091999951517,1.3918846999877132,0.18585,0.08148878360604365,0.12333437518752552,,,,None,,-0.1,-0.1,1.1632820154915753,1.1583333333333332,trial_list_0.5_red.csv,1.1586229000095045,1.1919575000065379,p8_base_01,001,2023-05-03_15h15.37.064,expectation_shapes_perceived_time,2022.2.4,119.72405998998663,
,33,0.5,none,,red,green,,1524.3509999274463,,,,,0,70,70,180,trial,,,,,,red,1.5243509999274463,1.525,2.291751500000828,0.9985335999954259,1e-05,1e-05,0.03365,1.5248202000075253,1.5586789000080898,2.0002884000132326,2.0335332000104245,2.291751500000828,2.291751500000828,2.491661300009582,2.491661300009582,0.19990980000875425,3.408296200010227,1.116544700009399,0.9166349000006448,1.80032,-0.08676760636729802,0.11967945705834208,,,,None,,0.033,0.03333333333333333,1.5906809999274463,1.5833333333333333,trial_list_0.5_red.csv,1.5836272000015015,1.6165203000127804,p8_base_01,001,2023-05-03_15h15.37.064,expectation_shapes_perceived_time,2022.2.4,119.72405998998663,
,300,0.5,none,,green,red,,1146.1665836296054,,,,,0,71,71,29,trial,,,,,,green,1.1461665836296053,1.1416666666666666,2.2916320000076666,0.998139799994533,2e-05,2e-05,0.03331,1.1416800000006333,1.1749850000051083,1.999950400000671,2.033276100002695,2.2916320000076666,2.2916320000076666,2.4914760000101523,2.433290900007705,0.14165890000003856,3.2081195000064326,0.916487499998766,0.7748285999987274,0.1701,0.07528960199278492,0.12721346543608486,,,,None,,0.3,0.3,1.4794965836296052,1.475,trial_list_0.5_red.csv,1.4750143000128446,1.5082434000069043,p8_base_01,001,2023-05-03_15h15.37.064,expectation_shapes_perceived_time,2022.2.4,119.72405998998663,
,100,0.5,none,,green,red,,401.3605832977119,,,,,0,72,72,255,trial,,,,,,green,0.4013605832977119,0.4,2.291624999998021,0.9971655999979703,2e-05,2e-05,,0.4002489999984391,0.4335202000074787,2.000097199997981,,2.291624999998021,2.291624999998021,2.4919016000058036,2.291624999998021,0.0,3.4581755000108387,1.1665505000128178,1.1665505000128178,0.56719,0.14454218443192057,-0.030973325235411547,,,,None,,0.1,0.1,0.5346905832977119,0.5333333333333333,trial_list_0.5_red.csv,0.5335343000042485,0.5670011000038357,p8_base_01,001,2023-05-03_15h15.37.064,expectation_shapes_perceived_time,2022.2.4,119.72405998998663,
,167,0.5,none,,red,green,,222.92758075591672,,,,,0,73,73,252,trial,,,,,,red,0.22292758075591673,0.225,2.29195320000872,0.99863170000026,1e-05,1e-05,0.03336,0.2251486000022851,0.2589248000003863,2.0001114000042435,,2.29195320000872,2.29195320000872,2.491651100004674,2.5083228000003146,0.21636959999159444,3.6085209000011673,1.3165676999924472,1.1001981000008527,0.32855,0.1268939523446136,0.0758268739620252,,,,None,,0.167,0.16666666666666666,0.4232575807559167,0.425,trial_list_0.5_red.csv,0.4251615000102902,0.4590009000094142,p8_base_01,001,2023-05-03_15h15.37.064,expectation_shapes_perceived_time,2022.2.4,119.72405998998663,
,-233,0.5,none,,green,red,,1066.6932182435862,,,,,0,74,74,41,trial,,,,,,green,1.0666932182435862,1.0666666666666667,2.2914450999960536,0.9982746000023326,1e-05,1e-05,0.03328,1.0665855999977794,1.0998284999950556,1.9996676000009757,2.0331407000048785,2.2914450999960536,2.2914450999960536,2.4913120999990497,2.6496789999946486,0.358233899998595,4.458287300003576,2.1668422000075225,1.8086083000089275,0.72079,0.11366578003207066,-0.09450862609408123,,,,None,,-0.233,-0.23333333333333334,0.8003632182435861,0.8,trial_list_0.5_red.csv,0.8003679999965243,0.833692100000917,p8_base_01,001,2023-05-03_15h15.37.064,expectation_shapes_perceived_time,2022.2.4,119.72405998998663,
,300,0.5,none,,green,red,,730.4728639136322,0,0,0,0,0,75,75,463,fam,0.5407586999936029,0.5407586999936029,270.0000000000009,2.532456600005389,2.532456600005389,,,,,,,,,,,,,,,,,,,,,,,,,,,,,,,,,,,,p8_base_01,001,2023-05-03_15h15.37.064,expectation_shapes_perceived_time,2022.2.4,119.72405998998663,
,300,0.5,none,,green,red,,730.4728639136322,1,0,1,0,0,75,75,463,fam,0.49875369999790564,0.49875369999790564,270.0000000000009,2.4903985999990255,2.4903985999990255,,,,,,,,,,,,,,,,,,,,,,,,,,,,,,,,,,,,p8_base_01,001,2023-05-03_15h15.37.064,expectation_shapes_perceived_time,2022.2.4,119.72405998998663,
,300,0.5,none,,green,red,,730.4728639136322,2,0,2,0,0,75,75,463,fam,0.49839829999837093,0.49839829999837093,270.0000000000009,2.4900587999873096,2.4900587999873096,,,,,,,,,,,,,,,,,,,,,,,,,,,,,,,,,,,,p8_base_01,001,2023-05-03_15h15.37.064,expectation_shapes_perceived_time,2022.2.4,119.72405998998663,
,300,0.5,none,,green,red,,730.4728639136322,3,0,3,0,0,75,75,463,fam,0.4983345999935409,0.4983345999935409,270.0000000000009,2.489843400006066,2.489843400006066,,,,,,,,,,,,,,,,,,,,,,,,,,,,,,,,,,,,p8_base_01,001,2023-05-03_15h15.37.064,expectation_shapes_perceived_time,2022.2.4,119.72405998998663,
,300,0.5,none,,green,red,,730.4728639136322,,,,,0,75,75,463,trial,,,,,,green,0.7304728639136322,0.725,2.291416600011871,0.9909192999912193,3e-05,3e-05,0.03321,0.7246782000001986,0.7583029000088573,1.9998218000109773,2.0333150000078604,2.291416600011871,2.291416600011871,2.4916563000006136,2.583033000002615,0.29161639999074396,4.866470500011928,2.575053900000057,2.2834375000093132,0.38478,0.13824528652196472,0.052345302663656536,,,,None,,0.3,0.3,1.063802863913632,1.0583333333333333,trial_list_0.5_red.csv,1.0582787000021199,1.0915969000052428,p8_base_01,001,2023-05-03_15h15.37.064,expectation_shapes_perceived_time,2022.2.4,119.72405998998663,
,300,0.5,none,,red,green,,1010.7287665074036,,,,,0,76,76,462,trial,,,,,,red,1.0107287665074036,1.0083333333333333,2.2914219000085723,0.9991352000070037,1e-05,1e-05,0.03304,1.0082614999992074,1.041370899998583,1.9998593000054825,2.0331778999970993,2.2914219000085723,2.2914219000085723,2.491334599995753,2.6415226999961305,0.3501007999875583,3.8751024000084726,1.5836804999999003,1.233579700012342,1.21799,-0.0935034801355319,-0.11449405730881457,,,,None,,0.3,0.3,1.3440587665074035,1.3416666666666666,trial_list_0.5_red.csv,1.3415328999981284,1.3748340000020107,p8_base_01,001,2023-05-03_15h15.37.064,expectation_shapes_perceived_time,2022.2.4,119.72405998998663,
,100,0.5,none,,red,green,,1284.02140077551,,,,,0,77,77,256,trial,,,,,,red,1.28402140077551,1.2833333333333332,2.2916793000040343,0.9983338000020012,1e-05,1e-05,0.03314,1.2834593000006862,1.316532000011648,1.9999344000098063,2.033242600009544,2.2916793000040343,2.2916793000040343,2.4916406000120332,2.708317500000703,0.41663819999666885,3.558079900001758,1.2664005999977235,0.8497624000010546,1.47502,-0.14736839534128438,-0.011590772667292028,,,,None,,0.1,0.1,1.41735140077551,1.4166666666666667,trial_list_0.5_red.csv,1.416575900002499,1.4498959000047762,p8_base_01,001,2023-05-03_15h15.37.064,expectation_shapes_perceived_time,2022.2.4,119.72405998998663,
,-233,0.5,none,,red,green,,1549.79678991972,,,,,0,78,78,90,trial,,,,,,red,1.5497967899197198,1.55,2.2914955000014743,0.9907087999890791,1e-05,1e-05,0.03327,1.5499898999987636,1.5832107000023825,1.9997082000045339,2.0329963999975007,2.2914955000014743,2.2914955000014743,2.491508699997212,2.6414875000045868,0.3499920000031125,3.399555900003179,1.1080604000017047,0.7580683999985922,0.89345,0.04856307171705551,-0.1396188311865346,,,,None,,-0.233,-0.23333333333333334,1.28346678991972,1.2833333333333332,trial_list_0.5_red.csv,1.2830201000033412,1.3162308000028133,p8_base_01,001,2023-05-03_15h15.37.064,expectation_shapes_perceived_time,2022.2.4,119.72405998998663,
,-233,0.5,none,,red,green,,457.2338771496153,,,,,0,79,79,406,trial,,,,,,red,0.4572338771496153,0.4583333333333333,2.2920374000095762,0.9977911000023596,2e-05,2e-05,0.03359,0.45838910000748,0.49202590000641067,2.0001385000068694,2.034066800013534,2.2920374000095762,2.2920374000095762,2.4918128000135766,2.325419700006023,0.03338229999644682,3.4167204000113998,1.1246830000018235,1.0913007000053767,0.1245,0.05635462499093902,0.13665996560302712,,,,None,,-0.233,-0.23333333333333334,0.19090387714961532,0.19166666666666665,trial_list_0.5_red.csv,0.19183809999958612,0.22506520000752062,p8_base_01,001,2023-05-03_15h15.37.064,expectation_shapes_perceived_time,2022.2.4,119.72405998998663,
,-167,0.5,none,,red,green,,975.0893104955834,,,,,0,80,80,400,trial,,,,,,red,0.9750893104955833,0.975,2.2917254000058165,0.9987722999940161,1e-05,1e-05,0.03363,0.9752398999989964,1.0084455000032904,2.0002181000018027,2.033559999996214,2.2917254000058165,2.2917254000058165,2.4914665999967838,2.875033899996197,0.5833084999903804,4.1915248000004794,1.899799399994663,1.3164909000042826,1.27478,-0.11234025033657355,-0.09608047726154317,,,,None,,-0.167,-0.16666666666666666,0.7747593104955833,0.775,trial_list_0.5_red.csv,0.775200699994457,0.8084312999999383,p8_base_01,001,2023-05-03_15h15.37.064,expectation_shapes_perceived_time,2022.2.4,119.72405998998663,
,-100,0.5,none,,red,green,,696.5644892682981,,,,,0,81,81,272,trial,,,,,,red,0.6965644892682981,0.6916666666666667,2.291206299996702,0.9988245999993524,2e-05,2e-05,0.03287,0.6913784999924246,0.7245782999962103,1.9998411999986274,2.0328303999995114,2.291206299996702,2.291206299996702,2.491604399998323,2.6253358999965712,0.33412959999986924,4.524545799999032,2.23333950000233,1.899209900002461,1.13348,-0.060187706356197024,-0.13501566560984737,,,,None,,-0.1,-0.1,0.563234489268298,0.5583333333333333,trial_list_0.5_red.csv,0.5579830999922706,0.5914501999941422,p8_base_01,001,2023-05-03_15h15.37.064,expectation_shapes_perceived_time,2022.2.4,119.72405998998663,
,-300,0.5,none,,red,green,,804.9164973392105,,,,,0,82,82,480,trial,,,,,,red,0.8049164973392106,0.8,2.2915334999997867,0.9984365999989677,1e-05,1e-05,,0.7997292000072775,0.8330802999989828,1.999900399998296,,2.2915334999997867,2.2915334999997867,2.4913996000104817,2.774856100004399,0.48332260000461247,3.7751693000027444,1.4836358000029577,1.0003131999983452,0.84579,0.06884827223148224,-0.13081171723981624,,,,None,,-0.3,-0.3,0.47158649733921054,0.4666666666666667,trial_list_0.5_red.csv,0.4668338000046788,0.4996709999977611,p8_base_01,001,2023-05-03_15h15.37.064,expectation_shapes_perceived_time,2022.2.4,119.72405998998663,
,33,0.5,none,,green,red,,1222.2259191643357,,,,,0,83,83,263,trial,,,,,,green,1.2222259191643357,1.2166666666666666,2.2917271999904187,0.9979095999879064,1e-05,1e-05,0.03313,1.2167506999976467,1.249711099997512,1.999854999987292,2.033045199990738,2.2917271999904187,2.2917271999904187,2.491520199997467,2.924829299998237,0.6331021000078181,3.725191499994253,1.433464300003834,0.800362199996016,1.39497,-0.13984983349462418,-0.04789377859404938,,,,None,,0.033,0.03333333333333333,1.2885559191643357,1.2833333333333332,trial_list_0.5_red.csv,1.2837613999872701,1.3166628999897512,p8_base_01,001,2023-05-03_15h15.37.064,expectation_shapes_perceived_time,2022.2.4,119.72405998998663,
,300,0.5,none,,red,green,,844.8682961086574,,,,,0,84,84,246,trial,,,,,,red,0.8448682961086574,0.8416666666666667,2.2913277999905404,0.9985425999911968,2e-05,2e-05,,0.8414085999975214,0.8747653999889735,2.0001152999902843,,2.2913277999905404,2.2913277999905404,2.4913587999908486,3.108324000000721,0.8169962000101805,4.158302899988485,1.8669750999979442,1.0499788999877637,1.23521,-0.0995576548389782,-0.10927059677448828,,,,None,,0.3,0.3,1.1781982961086575,1.175,trial_list_0.5_red.csv,1.1750085999956354,1.208462899987353,p8_base_01,001,2023-05-03_15h15.37.064,expectation_shapes_perceived_time,2022.2.4,119.72405998998663,
,233,0.5,none,,red,green,,1034.7628589270296,,,,,0,85,85,2,trial,,,,,,red,1.0347628589270297,1.0333333333333332,2.292140500008827,0.9985154000023613,1e-05,1e-05,,1.033149000009871,1.0668855999974767,1.9998879000049783,,2.292140500008827,2.292140500008827,2.4918660999974236,2.991566299999249,0.6994257999904221,4.016624600000796,1.7244840999919688,1.0250583000015467,1.128,-0.05785288985003517,-0.13603247072846109,,,,None,,0.233,0.23333333333333334,1.3010928589270294,1.3,trial_list_0.5_red.csv,1.3002842999994755,1.3336157000012463,p8_base_01,001,2023-05-03_15h15.37.064,expectation_shapes_perceived_time,2022.2.4,119.72405998998663,
,-300,0.5,none,,red,green,,1172.7330433382278,,,,,0,86,86,178,trial,,,,,,red,1.172733043338228,1.1666666666666667,2.2922046999883605,0.9985223999974551,2e-05,2e-05,0.03318,1.1667290999903344,1.200070399994729,1.9997702999971807,2.0331529999966733,2.2922046999883605,2.2922046999883605,2.4915903999935836,2.658122099994216,0.3659174000058556,4.066771999991033,1.7745673000026727,1.4086498999968171,0.96412,0.016628521017350795,-0.14688526898659868,,,,None,,-0.3,-0.3,0.8394030433382278,0.8333333333333334,trial_list_0.5_red.csv,0.8331908999971347,0.8664147999952547,p8_base_01,001,2023-05-03_15h15.37.064,expectation_shapes_perceived_time,2022.2.4,119.72405998998663,
,33,0.5,none,,green,red,,185.3703266199552,,,,,0,87,87,297,trial,,,,,,green,0.1853703266199552,0.18333333333333332,2.2919670999981463,0.9986565999861341,1e-05,1e-05,0.03338,0.18296239999472164,0.21658549999119714,1.9996404999983497,2.0331241999956546,2.2919670999981463,2.2919670999981463,2.491505899990443,2.4665912999917055,0.17462419999355916,3.3079520000028424,1.015984900004696,0.8413607000111369,0.20963,0.09046551621367824,0.11690928249152266,,,,None,,0.033,0.03333333333333333,0.25170032661995523,0.25,trial_list_0.5_red.csv,0.24970739999844227,0.28336299999500625,p8_base_01,001,2023-05-03_15h15.37.064,expectation_shapes_perceived_time,2022.2.4,119.72405998998663,
,100,0.5,none,,green,red,,1447.854214846294,,,,,0,88,88,59,trial,,,,,,green,1.447854214846294,1.4416666666666667,2.291363399999682,0.9991547999961767,2e-05,2e-05,,1.4415415999974357,1.4745230999978958,1.999804100007168,,2.291363399999682,2.291363399999682,2.491210099993623,2.6414133999933256,0.3500499999936437,3.7912535999930697,1.4998901999933878,1.149840199999744,0.86214,0.06203812736116613,-0.13417548475787094,,,,None,,0.1,0.1,1.581184214846294,1.575,trial_list_0.5_red.csv,1.574825100004091,1.608172199994442,p8_base_01,001,2023-05-03_15h15.37.064,expectation_shapes_perceived_time,2022.2.4,119.72405998998663,
,233,0.5,none,,red,green,,1600.6444602722977,,,,,0,89,89,368,trial,,,,,,red,1.6006444602722978,1.6,2.291790499992203,0.9984882999997353,2e-05,2e-05,0.03367,1.6000510000012582,1.6336844000034034,2.00000369999907,2.033352999991621,2.291790499992203,2.291790499992203,2.4918964999960735,2.508339399995748,0.216548900003545,3.308554799994454,1.0167643000022508,0.8002153999987058,1.76433,-0.09971746738217213,0.10912477562577327,,,,None,,0.233,0.23333333333333334,1.8669744602722975,1.8666666666666667,trial_list_0.5_red.csv,1.8666954999935115,1.9002574000041932,p8_base_01,001,2023-05-03_15h15.37.064,expectation_shapes_perceived_time,2022.2.4,119.72405998998663,
,33,0.5,none,,green,red,,1233.2218255984856,,,,,0,90,90,125,trial,,,,,,green,1.2332218255984855,1.2333333333333334,2.2916773000033572,0.9979641000099946,4e-05,4e-05,,1.2333251000090968,1.2666591000015615,1.9999726999958511,,2.2916773000033572,2.2916773000033572,2.4916948000027332,2.65828540000075,0.36660809999739286,3.358110500004841,1.0664332000014838,0.6998251000040909,0.6944,0.12110173757333884,-0.08477121630133719,,,,None,,0.033,0.03333333333333333,1.2995518255984855,1.3,trial_list_0.5_red.csv,1.2999208999972325,1.3333844000007957,p8_base_01,001,2023-05-03_15h15.37.064,expectation_shapes_perceived_time,2022.2.4,119.72405998998663,
,167,0.5,none,,green,red,,1115.7417025087102,,,,,0,91,91,467,trial,,,,,,green,1.1157417025087102,1.1166666666666667,2.2915878000058,0.9984497999976156,1e-05,1e-05,,1.1166048000013689,1.1496716999972705,2.0000125000078697,,2.2915878000058,2.2915878000058,2.4916131000063615,2.6330228000006173,0.3414349999948172,3.8581632999994326,1.5665754999936325,1.2251404999988154,0.87025,0.058602563215714665,-0.13571119902586554,,,,None,,0.167,0.16666666666666666,1.31607170250871,1.3166666666666667,trial_list_0.5_red.csv,1.3163791999977548,1.3499997000035364,p8_base_01,001,2023-05-03_15h15.37.064,expectation_shapes_perceived_time,2022.2.4,119.72405998998663,
,233,0.5,none,,green,red,,285.4047269543619,,,,,0,92,92,239,trial,,,,,,green,0.28540472695436186,0.2833333333333333,2.2916056999965804,0.9985084000072675,3e-05,3e-05,0.03331,0.2832282000017585,0.31659859999490436,1.9998709000064991,2.033305399992969,2.2916056999965804,2.2916056999965804,2.4917978000012226,2.2916056999965804,0.0,3.216937399993185,0.9253316999966046,0.9253316999966046,0.20613,0.08917703592510225,0.11789506444335551,,,,None,,0.233,0.23333333333333334,0.5517347269543619,0.55,trial_list_0.5_red.csv,0.5499506000051042,0.5836146999936318,p8_base_01,001,2023-05-03_15h15.37.064,expectation_shapes_perceived_time,2022.2.4,119.72405998998663,
,233,0.5,none,,green,red,,1421.6757409334637,,,,,0,93,93,483,trial,,,,,,green,1.4216757409334637,1.4166666666666667,2.2917339999985415,0.9983058999932837,1e-05,1e-05,0.03296,1.416534899995895,1.449589299998479,1.9999488000030397,2.033308099998976,2.2917339999985415,2.2917339999985415,2.491380100007518,2.7497061000030953,0.4579721000045538,4.683346200006781,2.3916122000082396,1.9336401000036858,1.44743,-0.1458122115556408,-0.02430203525927347,,,,None,,0.233,0.23333333333333334,1.6880057409334637,1.6833333333333333,trial_list_0.5_red.csv,1.6829846000036923,1.7167170000029728,p8_base_01,001,2023-05-03_15h15.37.064,expectation_shapes_perceived_time,2022.2.4,119.72405998998663,
,-100,0.5,none,,red,green,,999.7401498768156,,,,,0,94,94,16,trial,,,,,,red,0.9997401498768156,1.0,2.29135130000941,0.998404699988896,6e-05,6e-05,0.03332,0.9999362000089604,1.033330999998725,1.999972000005073,2.0333446000004187,2.29135130000941,2.29135130000941,2.4915621999971336,2.708123799995519,0.4167724999861093,3.7250792999984697,1.4337279999890598,1.0169555000029504,1.26414,-0.10906498532356268,-0.0997828589130467,,,,None,,-0.1,-0.1,0.8664101498768155,0.8666666666666667,trial_list_0.5_red.csv,0.8664161000051536,0.8997744000080274,p8_base_01,001,2023-05-03_15h15.37.064,expectation_shapes_perceived_time,2022.2.4,119.72405998998663,
,-300,0.5,none,,red,green,,520.2885305653248,,,,,0,95,95,174,trial,,,,,,red,0.5202885305653248,0.5166666666666666,2.2995148000045447,0.998108300002059,1e-05,1e-05,0.03337,0.5245643000089331,0.5580580999958329,1.9996089000051143,2.032789100005175,2.2995148000045447,2.2995148000045447,2.4994239000079688,2.374728099995991,0.07521329999144655,3.7995616999978665,1.5000468999933219,1.4248336000018753,0.41451,0.1425238643557204,0.039226751657537716,,,,None,,-0.3,-0.3,0.1869585305653248,0.18333333333333332,trial_list_0.5_red.csv,0.19144170000799932,0.2248018999962369,p8_base_01,001,2023-05-03_15h15.37.064,expectation_shapes_perceived_time,2022.2.4,119.72405998998663,
,233,0.5,none,,red,green,,1172.827184632412,,,,,0,96,96,340,trial,,,,,,red,1.1728271846324119,1.1666666666666667,2.2917635000048904,0.997672400000738,1e-05,1e-05,0.03326,1.1668147000018507,1.2002405999955954,1.9999499999976251,2.033578000002308,2.2917635000048904,2.2917635000048904,2.4917950999952154,2.675179300000309,0.38341579999541864,3.3165200000075856,1.0247565000026952,0.6413407000072766,0.70015,0.11955020622893084,-0.08694560453013153,,,,None,,0.233,0.23333333333333334,1.4391571846324118,1.4333333333333333,trial_list_0.5_red.csv,1.433448199997656,1.4669169999979204,p8_base_01,001,2023-05-03_15h15.37.064,expectation_shapes_perceived_time,2022.2.4,119.72405998998663,
,-100,0.5,none,,green,red,,1549.1811293795936,,,,,0,97,97,145,trial,,,,,,green,1.5491811293795936,1.5416666666666667,2.2917480999894906,0.9977203000016743,1e-05,1e-05,,1.5418097999936435,1.5751072999992175,2.0001512999879196,,2.2917480999894906,2.2917480999894906,2.4915579999942565,3.233411699999124,0.9416636000096332,5.083392299988191,2.7916441999987,1.8499805999890668,0.59686,0.14103222134477955,-0.04429111083555061,,,,None,,-0.1,-0.1,1.4158511293795937,1.4166666666666667,trial_list_0.5_red.csv,1.4171601999987615,1.450092199986102,p8_base_01,001,2023-05-03_15h15.37.064,expectation_shapes_perceived_time,2022.2.4,119.72405998998663,
,33,0.5,none,,green,red,,953.643600811724,,,,,0,98,98,179,trial,,,,,,green,0.9536436008117241,0.95,2.2911331999930553,0.9985722999990685,4e-05,4e-05,0.03325,0.9496344999934081,0.9827520999970147,1.9998209000041243,2.032868199996301,2.2911331999930553,2.2911331999930553,2.491456999996444,2.641526499995962,0.35039330000290647,3.2995232999965083,1.008390100003453,0.6579968000005465,0.8639,0.06129806309031506,-0.13451519400374695,,,,None,,0.033,0.03333333333333333,1.019973600811724,1.0166666666666666,trial_list_0.5_red.csv,1.0162527000065893,1.0495654999976978,p8_base_01,001,2023-05-03_15h15.37.064,expectation_shapes_perceived_time,2022.2.4,119.72405998998663,
,100,0.5,none,,green,red,,921.8599824895364,,,,,0,99,99,165,trial,,,,,,green,0.9218599824895364,0.9166666666666666,2.2916435999941314,0.998877200006973,1e-05,1e-05,0.03321,0.9165162999997847,0.9499813000002177,2.000183999989531,2.0333069999906,2.2916435999941314,2.2916435999941314,2.491705799999181,2.750206500000786,0.4585629000066547,3.833542699998361,1.5418991000042297,1.083336199997575,0.83711,0.07238829647138043,-0.12888647908318956,,,,None,,0.1,0.1,1.0551899824895363,1.05,trial_list_0.5_red.csv,1.0498001999949338,1.0832591999933356,p8_base_01,001,2023-05-03_15h15.37.064,expectation_shapes_perceived_time,2022.2.4,119.72405998998663,
,-100,0.5,none,,red,green,,1200.561957289709,0,0,0,0,0,100,100,294,fam,0.5320542999979807,0.5320542999979807,270.0000000000009,2.5237780999887036,2.5237780999887036,,,,,,,,,,,,,,,,,,,,,,,,,,,,,,,,,,,,p8_base_01,001,2023-05-03_15h15.37.064,expectation_shapes_perceived_time,2022.2.4,119.72405998998663,
,-100,0.5,none,,red,green,,1200.561957289709,1,0,1,0,0,100,100,294,fam,0.49841069999092724,0.49841069999092724,270.0000000000009,2.4901256000011927,2.4901256000011927,,,,,,,,,,,,,,,,,,,,,,,,,,,,,,,,,,,,p8_base_01,001,2023-05-03_15h15.37.064,expectation_shapes_perceived_time,2022.2.4,119.72405998998663,
,-100,0.5,none,,red,green,,1200.561957289709,2,0,2,0,0,100,100,294,fam,0.4945159000053536,0.4945159000053536,270.0000000000009,2.4862683999963338,2.4862683999963338,,,,,,,,,,,,,,,,,,,,,,,,,,,,,,,,,,,,p8_base_01,001,2023-05-03_15h15.37.064,expectation_shapes_perceived_time,2022.2.4,119.72405998998663,
,-100,0.5,none,,red,green,,1200.561957289709,3,0,3,0,0,100,100,294,fam,0.49875539999629837,0.49875539999629837,270.0000000000009,2.489916799997445,2.489916799997445,,,,,,,,,,,,,,,,,,,,,,,,,,,,,,,,,,,,p8_base_01,001,2023-05-03_15h15.37.064,expectation_shapes_perceived_time,2022.2.4,119.72405998998663,
,-100,0.5,none,,red,green,,1200.561957289709,,,,,0,100,100,294,trial,,,,,,red,1.200561957289709,1.2,2.29170129999693,0.9909838999883505,1e-05,1e-05,,1.1996620999998413,1.2330048000003444,1.9998466999968514,,2.29170129999693,2.29170129999693,2.49190809999709,2.83313939999789,0.5414381000009598,3.8830472999979975,1.5913460000010673,1.0499079000001075,1.12888,-0.05823053316987949,-0.13587124406305215,,,,None,,-0.1,-0.1,1.067231957289709,1.0666666666666667,trial_list_0.5_red.csv,1.066401100004441,1.0998574999975972,p8_base_01,001,2023-05-03_15h15.37.064,expectation_shapes_perceived_time,2022.2.4,119.72405998998663,
,233,0.5,none,,red,green,,979.1297378083534,,,,,0,101,101,498,trial,,,,,,red,0.9791297378083534,0.975,2.2913473999942653,0.9971699000016088,1e-05,1e-05,0.03295,0.9749723999993876,1.0079394999920623,1.9997044999909122,2.0331781999993837,2.2913473999942653,2.2913473999942653,2.4913239999877987,2.5915405999985524,0.30019320000428706,4.508112499999697,2.216765100005432,1.916571900001145,1.30936,-0.12209480895977567,-0.08333455214714845,,,,None,,0.233,0.23333333333333334,1.2454597378083534,1.2416666666666667,trial_list_0.5_red.csv,1.2412363999901572,1.274613399989903,p8_base_01,001,2023-05-03_15h15.37.064,expectation_shapes_perceived_time,2022.2.4,119.72405998998663,
,300,0.5,none,,green,red,,1175.5436404538316,,,,,0,102,102,221,trial,,,,,,green,1.1755436404538315,1.175,2.29182069998933,0.9979927000094904,1e-05,1e-05,,1.1756498999893665,1.2087858999875607,2.0000395999959437,,2.29182069998933,2.29182069998933,2.491711499998928,2.925226899998961,0.633406200009631,4.366943799992441,2.075123100003111,1.4417168999934802,1.72025,-0.11382728951225092,0.09431403988157933,,,,None,,0.3,0.3,1.5088736404538314,1.5083333333333333,trial_list_0.5_red.csv,1.5086120999912964,1.5417076000012457,p8_base_01,001,2023-05-03_15h15.37.064,expectation_shapes_perceived_time,2022.2.4,119.72405998998663,
,-233,0.5,none,,red,green,,1778.2963737977557,,,,,0,103,103,326,trial,,,,,,red,1.7782963737977557,1.775,2.2917393000097945,0.9984183000051416,2e-05,2e-05,0.03316,1.775583300011931,1.8087106000020867,2.000443400000222,2.0335440000053495,2.2917393000097945,2.2917393000097945,2.491663500011782,2.816779700006009,0.5250403999962145,4.075069900005474,1.7833305999956792,1.2582901999994647,1.85388,-0.06549869108319002,0.1325206075404077,,,,None,,-0.233,-0.23333333333333334,1.5119663737977558,1.5083333333333333,trial_list_0.5_red.csv,1.5088770000002114,1.5422041999991052,p8_base_01,001,2023-05-03_15h15.37.064,expectation_shapes_perceived_time,2022.2.4,119.72405998998663,
,-233,0.5,none,,red,green,,1424.6475598515945,,,,,0,104,104,72,trial,,,,,,red,1.4246475598515944,1.425,2.2916216000012355,0.9987693000002764,2e-05,2e-05,0.03346,1.4249469000060344,1.458102400007192,1.9998805000068387,2.033261100004893,2.2916216000012355,2.2916216000012355,2.491379400002188,2.7750455000059446,0.48342390000470914,3.5666533000039635,1.275031700002728,0.7916077999980189,1.11843,-0.05374012607611781,-0.13770907307005187,,,,None,,-0.233,-0.23333333333333334,1.1583175598515945,1.1583333333333332,trial_list_0.5_red.csv,1.1582753999973647,1.191411399995559,p8_base_01,001,2023-05-03_15h15.37.064,expectation_shapes_perceived_time,2022.2.4,119.72405998998663,
,-167,0.5,none,,green,red,,1848.12705509141,,,,,0,105,105,153,trial,,,,,,green,1.84812705509141,1.8416666666666666,2.2915489000006346,0.9983950000023469,2e-05,2e-05,,1.8414267000043765,1.875153600005433,2.000188599995454,,2.2915489000006346,2.2915489000006346,2.4918934000015724,2.849741500001983,0.5581926000013482,3.7249432999960845,1.43339439999545,0.8752017999941017,1.60242,-0.14023769450772117,0.046745898169240394,,,,None,,-0.167,-0.16666666666666666,1.64779705509141,1.6416666666666666,trial_list_0.5_red.csv,1.6418433999933768,1.6751451000018278,p8_base_01,001,2023-05-03_15h15.37.064,expectation_shapes_perceived_time,2022.2.4,119.72405998998663,
,-167,0.5,none,,green,red,,802.6870985785861,,,,,0,106,106,79,trial,,,,,,green,0.8026870985785861,0.8,2.2918596000090474,0.998559200001182,3e-05,3e-05,0.0332,0.7998833000019658,0.8335781000059796,2.0002547000040067,2.0335098000068683,2.2918596000090474,2.2918596000090474,2.4918533000018215,2.6082170000008773,0.3163573999918299,4.1415378999954555,1.849678299986408,1.5333208999945782,0.62468,0.1366275677454555,-0.05643312580790553,,,,None,,-0.167,-0.16666666666666666,0.602357098578586,0.6,trial_list_0.5_red.csv,0.6000858000043081,0.6335713000007672,p8_base_01,001,2023-05-03_15h15.37.064,expectation_shapes_perceived_time,2022.2.4,119.72405998998663,
,-167,0.5,none,,green,red,,806.5204874515971,,,,,0,107,107,197,trial,,,,,,green,0.8065204874515971,0.8083333333333333,2.2915750999964075,0.9980347999953665,1e-05,1e-05,0.03298,0.8079353000066476,0.8414346000063233,1.9998936000047252,2.033214600000065,2.2915750999964075,2.2915750999964075,2.4913627000059932,2.7416991000063717,0.4501240000099642,4.050012099993182,1.7584369999967748,1.3083129999868106,0.69327,0.12140115779848912,-0.08434185699684507,,,,None,,-0.167,-0.16666666666666666,0.6061904874515971,0.6083333333333333,trial_list_0.5_red.csv,0.6080443999962881,0.6414045999990776,p8_base_01,001,2023-05-03_15h15.37.064,expectation_shapes_perceived_time,2022.2.4,119.72405998998663,
,-167,0.5,none,,green,red,,872.5267376353274,,,,,0,108,108,319,trial,,,,,,green,0.8725267376353274,0.8666666666666667,2.291695799998706,0.9982971000135876,1e-05,1e-05,0.03332,0.8666053999913856,0.9000390000001062,1.9999951999925543,2.0334212000016123,2.291695799998706,2.291695799998706,2.4918179999949643,2.816830399999162,0.525134600000456,4.633342799992533,2.341646999993827,1.8165123999933712,0.79205,0.08984918785748384,-0.11738361639445472,,,,None,,-0.167,-0.16666666666666666,0.6721967376353274,0.6666666666666666,trial_list_0.5_red.csv,0.6669505999889225,0.7002573999925517,p8_base_01,001,2023-05-03_15h15.37.064,expectation_shapes_perceived_time,2022.2.4,119.72405998998663,
,300,0.5,none,,green,red,,338.9729560289768,,,,,0,109,109,101,trial,,,,,,green,0.3389729560289768,0.3416666666666667,2.291506900000968,0.9988116999884369,2e-05,2e-05,,0.34132650001265574,0.37469989999954123,2.000043000007281,,2.291506900000968,2.291506900000968,2.4913656000135234,2.4334532000066247,0.14194630000565667,4.566356200011796,2.2748493000108283,2.1329030000051716,0.50816,0.14777493924902604,-0.003789101006385283,,,,None,,0.3,0.3,0.6723029560289768,0.6666666666666666,trial_list_0.5_red.csv,0.666390099999262,0.7001139000058174,p8_base_01,001,2023-05-03_15h15.37.064,expectation_shapes_perceived_time,2022.2.4,119.72405998998663,
,-300,0.5,none,,green,red,,1741.413024680019,,,,,0,110,110,243,trial,,,,,,green,1.741413024680019,1.7333333333333334,2.2911214000050677,0.9910025000135647,0.00018,0.00018,0.03287,1.7326908000104595,1.7659872000076575,1.9995092000026489,2.032766600008472,2.2911214000050677,2.2911214000050677,2.4912069999991218,2.4495320999994874,0.1584106999944197,3.632653799999389,1.3415323999943212,1.1831216999999015,1.74733,-0.10540166269557702,0.10364496831731743,,,,None,,-0.3,-0.3,1.408083024680019,1.4083333333333332,trial_list_0.5_red.csv,1.4076467999984743,1.4411809000012,p8_base_01,001,2023-05-03_15h15.37.064,expectation_shapes_perceived_time,2022.2.4,119.72405998998663,
,-300,0.5,none,,green,red,,1348.8226035216912,,,,,0,111,111,103,trial,,,,,,green,1.3488226035216913,1.3416666666666666,2.2916343999968376,0.9986904999968829,2e-05,2e-05,,1.342339599999832,1.3751192999916384,2.0001075999898603,,2.2916343999968376,2.2916343999968376,2.4917049999930896,2.9165670999936992,0.6249326999968616,4.816561300001922,2.5249269000050845,1.8999942000082228,0.30223,0.12019657958086889,0.08604982401812204,,,,None,,-0.3,-0.3,1.0154926035216911,1.0166666666666666,trial_list_0.5_red.csv,1.0171647999959532,1.0502535999985412,p8_base_01,001,2023-05-03_15h15.37.064,expectation_shapes_perceived_time,2022.2.4,119.72405998998663,
,-33,0.5,none,,green,red,,1049.449595621009,,,,,0,112,112,403,trial,,,,,,green,1.049449595621009,1.05,2.29151459998684,0.9988610000000335,2e-05,2e-05,0.03339,1.050073299993528,1.0832185999897774,2.0001835000002757,2.033603399991989,2.29151459998684,2.29151459998684,2.4918561999947997,2.6584624999959487,0.3669479000091087,3.941484599999967,1.649970000013127,1.2830221000040183,1.18952,-0.08290654110716368,-0.12238584639628922,,,,None,,-0.033,-0.03333333333333333,0.9831195956210089,0.9833333333333333,trial_list_0.5_red.csv,0.9832038999884389,1.0164858999924036,p8_base_01,001,2023-05-03_15h15.37.064,expectation_shapes_perceived_time,2022.2.4,119.72405998998663,
,300,0.5,none,,red,green,,412.7109791848786,,,,,0,113,113,366,trial,,,,,,red,0.41271097918487865,0.4083333333333333,2.29161970000132,0.9981488000048557,2e-05,2e-05,,0.40846580000652466,0.4417207999940729,2.000179199996637,,2.29161970000132,2.29161970000132,2.491559200003394,2.875147200000356,0.5835274999990361,4.1752118000003975,1.8835920999990776,1.3000646000000415,0.67606,0.1257823262357039,-0.07765691445856501,,,,None,,0.3,0.3,0.7460409791848787,0.7416666666666667,trial_list_0.5_red.csv,0.74169979999715,0.775133300005109,p8_base_01,001,2023-05-03_15h15.37.064,expectation_shapes_perceived_time,2022.2.4,119.72405998998663,
,233,0.5,none,,red,green,,715.1762546087406,,,,,0,114,114,28,trial,,,,,,red,0.7151762546087406,0.7166666666666667,2.2910940000001574,0.9988354000088293,5e-05,5e-05,0.03295,0.7161570999887772,0.7496986999904038,1.999527299994952,2.032988999999361,2.2910940000001574,2.2910940000001574,2.491400099999737,2.691438800000469,0.4003448000003118,4.791204799999832,2.500110799999675,2.099765999999363,0.55749,0.14541882823333024,-0.026554742546955962,,,,None,,0.233,0.23333333333333334,0.9815062546087406,0.9833333333333333,trial_list_0.5_red.csv,0.9828635000012582,1.0160783999890555,p8_base_01,001,2023-05-03_15h15.37.064,expectation_shapes_perceived_time,2022.2.4,119.72405998998663,
,167,0.5,none,,red,green,,637.4749329466392,,,,,0,115,115,334,trial,,,,,,red,0.6374749329466393,0.6333333333333333,2.291655399996671,0.9983788000099594,2e-05,2e-05,0.03324,0.6336829999927431,0.6669113999960246,2.0002473999920767,2.0336477999953786,2.291655399996671,2.291655399996671,2.4915145999984816,2.516728199989302,0.2250727999926312,3.3002083000028506,1.0085529000061797,0.7834801000135485,0.27151,0.11134562088330739,0.09723138725021208,,,,None,,0.167,0.16666666666666666,0.8378049329466393,0.8333333333333334,trial_list_0.5_red.csv,0.8333239999919897,0.866626199989696,p8_base_01,001,2023-05-03_15h15.37.064,expectation_shapes_perceived_time,2022.2.4,119.72405998998663,
,-33,0.5,none,,green,red,,573.062538552318,,,,,0,116,116,485,trial,,,,,,green,0.5730625385523179,0.575,2.291705000010552,0.9974720999889541,4e-05,4e-05,0.03345,0.5748932999995304,0.6083960000105435,2.0000889000075404,2.0333402000105707,2.291705000010552,2.291705000010552,2.4917971000104444,2.7250764000054915,0.43337139999493957,3.274801000006846,0.9830959999962943,0.5497246000013547,0.08371,0.03843019121809465,0.14274071023863727,,,,None,,-0.033,-0.03333333333333333,0.5067325385523179,0.5083333333333333,trial_list_0.5_red.csv,0.5084341000037966,0.5417439000011655,p8_base_01,001,2023-05-03_15h15.37.064,expectation_shapes_perceived_time,2022.2.4,119.72405998998663,
,-167,0.5,none,,red,green,,1078.7225132496687,,,,,0,117,117,234,trial,,,,,,red,1.0787225132496687,1.075,2.291579800003092,0.9985653999901842,3e-05,3e-05,,1.0751937000022735,1.1083156999957282,1.999983500005328,,2.291579800003092,2.291579800003092,2.491531000006944,2.5334640000073705,0.24188420000427868,3.450100600006408,1.1585208000033163,0.9166365999990376,0.80922,0.08338688952505093,-0.12205907017434989,,,,None,,-0.167,-0.16666666666666666,0.8783925132496687,0.875,trial_list_0.5_red.csv,0.8750402000005124,0.9082539999944856,p8_base_01,001,2023-05-03_15h15.37.064,expectation_shapes_perceived_time,2022.2.4,119.72405998998663,
,-233,0.5,none,,green,red,,782.5669182535414,,,,,0,118,118,343,trial,,,,,,green,0.7825669182535414,0.7833333333333333,2.291628100007074,0.9985075000004144,2e-05,2e-05,,0.7832213000074262,0.8166514000040479,2.000016100006178,,2.291628100007074,2.291628100007074,2.4917823000141652,2.925035900014336,0.6334078000072623,3.9583389000035822,1.6667107999965083,1.033302999989246,0.88732,0.0512430403871467,-0.13865763869463224,,,,None,,-0.233,-0.23333333333333334,0.5162369182535413,0.5166666666666666,trial_list_0.5_red.csv,0.5163989000138827,0.549760800000513,p8_base_01,001,2023-05-03_15h15.37.064,expectation_shapes_perceived_time,2022.2.4,119.72405998998663,
,-33,0.5,none,,red,green,,620.1385872363272,,,,,0,119,119,164,trial,,,,,,red,0.6201385872363272,0.6166666666666667,2.291423799993936,0.9986571000044933,1e-05,1e-05,,0.6162025999947218,0.6495113999990281,1.999899499991443,,2.291423799993936,2.291423799993936,2.491276300002937,2.60794079999323,0.31651699999929406,3.5328595000028145,1.2414357000088785,0.9249187000095844,0.69537,0.12084312220783477,-0.08513947246461087,,,,None,,-0.033,-0.03333333333333333,0.5538085872363272,0.55,trial_list_0.5_red.csv,0.5495671999960905,0.5829232999967644,p8_base_01,001,2023-05-03_15h15.37.064,expectation_shapes_perceived_time,2022.2.4,119.72405998998663,
,233,0.5,none,,green,red,,1324.7397548353565,,,,,0,120,120,1,trial,,,,,,green,1.3247397548353566,1.325,2.2918403999938164,0.9986684000032255,1e-05,1e-05,0.03354,1.3256040999985998,1.3588755999953719,2.000250299999607,2.0333453999919584,2.2918403999938164,2.2918403999938164,2.4917002000001958,2.6582743999897502,0.36643399999593385,3.883549399994081,1.5917090000002645,1.2252750000043306,0.48088,0.1475568152213395,0.008875597908050497,,,,None,,0.233,0.23333333333333334,1.5910697548353565,1.5833333333333333,trial_list_0.5_red.csv,1.5834733999945456,1.6169232999964152,p8_base_01,001,2023-05-03_15h15.37.064,expectation_shapes_perceived_time,2022.2.4,119.72405998998663,
,233,0.5,none,,red,green,,1082.7015515328424,,,,,0,121,121,244,trial,,,,,,red,1.0827015515328424,1.0833333333333333,2.2914141999935964,0.99880819999089,1e-05,1e-05,0.03323,1.0829111999919405,1.116314799990505,1.9999321999930544,2.0330449999892153,2.2914141999935964,2.2914141999935964,2.4915411999973003,2.6247660999943037,0.33335190000070725,4.149626699989312,1.858212499995716,1.5248605999950087,0.36344,0.1344262547805078,0.06149286122938121,,,,None,,0.233,0.23333333333333334,1.3490315515328424,1.35,trial_list_0.5_red.csv,1.3500294999976177,1.3832821999967564,p8_base_01,001,2023-05-03_15h15.37.064,expectation_shapes_perceived_time,2022.2.4,119.72405998998663,
,-300,0.5,none,,green,red,,676.3476827068531,,,,,0,122,122,289,trial,,,,,,green,0.6763476827068531,0.675,2.291624999998021,0.998704199999338,1e-05,1e-05,0.03353,0.6750977999909082,0.7083049999928335,1.9998708999919472,2.033213999995496,2.291624999998021,2.291624999998021,2.492129499994917,2.7251700999913737,0.4335450999933528,3.7249943999922834,1.4333693999942625,0.9998243000009097,0.3018,0.12008054513754421,0.08621167343208302,,,,None,,-0.3,-0.3,0.3430176827068531,0.3416666666666667,trial_list_0.5_red.csv,0.34180549999291543,0.3748092000023462,p8_base_01,001,2023-05-03_15h15.37.064,expectation_shapes_perceived_time,2022.2.4,119.72405998998663,
