id,delay,expectation,congruency,trial_num,stim_color,distractor_color,block,targetTimeMs,famLoop.thisRepN,famLoop.thisTrialN,famLoop.thisN,famLoop.thisIndex,trialss.thisRepN,trialss.thisTrialN,trialss.thisN,trialss.thisIndex,isTrial,handMove.started,audioCue2Start.started,handOri,handMove.ended,audioCue2End.started,target_color,expected_target_onset,expected_target_onset_in_frames,fixationPoint.started,fixationPoint.stopped,audCueStart.started,placeholder.started,audCueStart.stopped,target.started,target.stopped,audCueEnd.started,audCueEnd.stopped,responsePointer.started,cueForRep.started,space2pass.started,responseStarted,rtUntillMotionTreshold,responsePointer.stopped,rTAfterMotionTreshold,rtDurationBtwRespMotion,perceivedTime,resp_x_coord,resp_y_coord,feedbackPointer.stopped,actualTime_x_coord,actualTime_y_coord,space2pass.keys,space2pass.rt,expected_delay,expected_delays_frame,expected_distractor,expected_distractor_frame,expBlockFiles,distractor.started,distractor.stopped,participant,session,date,expName,psychopyVersion,frameRate,
,,,,,,,,,0,0,0,0,,,,,fam,0.648701300000539,0.648701300000539,270.0,2.6489519999886397,2.6489519999886397,,,,,,,,,,,,,,,,,,,,,,,,,,,,,,,,,,,,p8_high-01,001,2023-05-03_13h32.24.157,expectation_shapes_perceived_time,2022.2.4,119.83079891394101,
,,,,,,,,,1,0,1,0,,,,,fam,0.4983935000054771,0.4983935000054771,270.0,2.498479400004726,2.498479400004726,,,,,,,,,,,,,,,,,,,,,,,,,,,,,,,,,,,,p8_high-01,001,2023-05-03_13h32.24.157,expectation_shapes_perceived_time,2022.2.4,119.83079891394101,
,,,,,,,,,2,0,2,0,,,,,fam,0.49850729999889154,0.49850729999889154,270.0,2.498794799990719,2.498794799990719,,,,,,,,,,,,,,,,,,,,,,,,,,,,,,,,,,,,p8_high-01,001,2023-05-03_13h32.24.157,expectation_shapes_perceived_time,2022.2.4,119.83079891394101,
,,,,,,,,,3,0,3,0,,,,,fam,0.49817380000604317,0.49817380000604317,270.0,2.4984912000072654,2.4984912000072654,,,,,,,,,,,,,,,,,,,,,,,,,,,,,,,,,,,,p8_high-01,001,2023-05-03_13h32.24.157,expectation_shapes_perceived_time,2022.2.4,119.83079891394101,
,,,,,,,,,4,0,4,0,,,,,fam,0.49848609999753535,0.49848609999753535,270.0,2.4985603999957675,2.4985603999957675,,,,,,,,,,,,,,,,,,,,,,,,,,,,,,,,,,,,p8_high-01,001,2023-05-03_13h32.24.157,expectation_shapes_perceived_time,2022.2.4,119.83079891394101,
,,,,,,,,,5,0,5,0,,,,,fam,0.49872839999443386,0.49872839999443386,270.0,2.4984925000026124,2.4984925000026124,,,,,,,,,,,,,,,,,,,,,,,,,,,,,,,,,,,,p8_high-01,001,2023-05-03_13h32.24.157,expectation_shapes_perceived_time,2022.2.4,119.83079891394101,
,,,,,,,,,6,0,6,0,,,,,fam,0.49850549999973737,0.49850549999973737,270.0,2.498412000000826,2.498412000000826,,,,,,,,,,,,,,,,,,,,,,,,,,,,,,,,,,,,p8_high-01,001,2023-05-03_13h32.24.157,expectation_shapes_perceived_time,2022.2.4,119.83079891394101,
,,,,,,,,,7,0,7,0,,,,,fam,0.4985568999982206,0.4985568999982206,270.0,2.4986270000081277,2.4986270000081277,,,,,,,,,,,,,,,,,,,,,,,,,,,,,,,,,,,,p8_high-01,001,2023-05-03_13h32.24.157,expectation_shapes_perceived_time,2022.2.4,119.83079891394101,
,,,,,,,,,8,0,8,0,,,,,fam,0.49793459998909384,0.49793459998909384,270.0,2.498266099995817,2.498266099995817,,,,,,,,,,,,,,,,,,,,,,,,,,,,,,,,,,,,p8_high-01,001,2023-05-03_13h32.24.157,expectation_shapes_perceived_time,2022.2.4,119.83079891394101,
,,,,,,,,,9,0,9,0,,,,,fam,0.4986319000017829,0.4986319000017829,270.0,2.498816399995121,2.498816399995121,,,,,,,,,,,,,,,,,,,,,,,,,,,,,,,,,,,,p8_high-01,001,2023-05-03_13h32.24.157,expectation_shapes_perceived_time,2022.2.4,119.83079891394101,
,,,,,,,,,10,0,10,0,,,,,fam,0.498447700010729,0.498447700010729,270.0,2.4986492000025464,2.4986492000025464,,,,,,,,,,,,,,,,,,,,,,,,,,,,,,,,,,,,p8_high-01,001,2023-05-03_13h32.24.157,expectation_shapes_perceived_time,2022.2.4,119.83079891394101,
,,,,,,,,,11,0,11,0,,,,,fam,0.49928730000101496,0.49928730000101496,270.0,2.4985132000001613,2.4985132000001613,,,,,,,,,,,,,,,,,,,,,,,,,,,,,,,,,,,,p8_high-01,001,2023-05-03_13h32.24.157,expectation_shapes_perceived_time,2022.2.4,119.83079891394101,
,,,,,,,,,12,0,12,0,,,,,fam,0.4983448999992106,0.4983448999992106,270.0,2.498246000002837,2.498246000002837,,,,,,,,,,,,,,,,,,,,,,,,,,,,,,,,,,,,p8_high-01,001,2023-05-03_13h32.24.157,expectation_shapes_perceived_time,2022.2.4,119.83079891394101,
,,,,,,,,,13,0,13,0,,,,,fam,0.4986612999928184,0.4986612999928184,270.0,2.4982985999959055,2.4982985999959055,,,,,,,,,,,,,,,,,,,,,,,,,,,,,,,,,,,,p8_high-01,001,2023-05-03_13h32.24.157,expectation_shapes_perceived_time,2022.2.4,119.83079891394101,
,,,,,,,,,14,0,14,0,,,,,fam,0.4981741000083275,0.4981741000083275,270.0,2.49848340000608,2.49848340000608,,,,,,,,,,,,,,,,,,,,,,,,,,,,,,,,,,,,p8_high-01,001,2023-05-03_13h32.24.157,expectation_shapes_perceived_time,2022.2.4,119.83079891394101,
,,,,,,,,,15,0,15,0,,,,,fam,0.4988065000070492,0.4988065000070492,270.0,2.499006800004281,2.499006800004281,,,,,,,,,,,,,,,,,,,,,,,,,,,,,,,,,,,,p8_high-01,001,2023-05-03_13h32.24.157,expectation_shapes_perceived_time,2022.2.4,119.83079891394101,
,,,,,,,,,16,0,16,0,,,,,fam,0.49858189999940805,0.49858189999940805,270.0,2.4983857999905013,2.4983857999905013,,,,,,,,,,,,,,,,,,,,,,,,,,,,,,,,,,,,p8_high-01,001,2023-05-03_13h32.24.157,expectation_shapes_perceived_time,2022.2.4,119.83079891394101,
,,,,,,,,,17,0,17,0,,,,,fam,0.4986795000004349,0.4986795000004349,270.0,2.4987346999987494,2.4987346999987494,,,,,,,,,,,,,,,,,,,,,,,,,,,,,,,,,,,,p8_high-01,001,2023-05-03_13h32.24.157,expectation_shapes_perceived_time,2022.2.4,119.83079891394101,
,,,,,,,,,18,0,18,0,,,,,fam,0.49878150000586174,0.49878150000586174,270.0,2.498623100007535,2.498623100007535,,,,,,,,,,,,,,,,,,,,,,,,,,,,,,,,,,,,p8_high-01,001,2023-05-03_13h32.24.157,expectation_shapes_perceived_time,2022.2.4,119.83079891394101,
,,,,,,,,,19,0,19,0,,,,,fam,0.49845729999651667,0.49845729999651667,270.0,2.498531400007778,2.498531400007778,,,,,,,,,,,,,,,,,,,,,,,,,,,,,,,,,,,,p8_high-01,001,2023-05-03_13h32.24.157,expectation_shapes_perceived_time,2022.2.4,119.83079891394101,
,,,,,,,,,,,,,0,0,0,0,test,,,,,,green,0.5720141860771913,0.575,2.2995263000048,0.9909039999911329,1.4499993994832039e-05,1e-05,0.03286669999943115,0.5746515999926487,0.6078036999970209,1.999766399996588,2.032934799994109,2.2995263000048,2.2995263000048,2.5997160999977496,3.182941999999457,0.8834156999946572,10.55799630000547,8.25847000000067,7.375054300006013,0.43608,0.14485343149408944,0.029483441808531474,10.55799630000547,0.14405650477683254,-0.03315891113972754,space,7.950619800001732,,,,,,,,p8_high-01,001,2023-05-03_13h32.24.157,expectation_shapes_perceived_time,2022.2.4,119.83079891394101,
,,,,,,,,,,,,,1,0,1,0,test,,,,,,red,0.9905772802982576,0.9916666666666667,2.300049500001478,0.9982299999974202,1.9400002202019095e-05,2e-05,0.03352910000830889,0.9918146999989403,1.0252547999989474,2.0001527999993414,2.033499400000437,2.300049500001478,2.300049500001478,2.6000802000053227,3.312233600008767,1.012184100007289,9.642204200004926,7.342154700003448,6.329970599996159,1.16787,-0.0743966885466481,-0.12773771052349014,9.642204200004926,0.004375283746569083,-0.14775874542180892,space,7.041684800002258,,,,,,,,p8_high-01,001,2023-05-03_13h32.24.157,expectation_shapes_perceived_time,2022.2.4,119.83079891394101,
,,,,,,,,,,,,,2,0,2,0,test,,,,,,red,1.383080238099206,1.3833333333333333,2.2999818999960553,0.9982311999920057,1.440000778529793e-05,1e-05,0.03297739999834448,1.3832703999942169,1.4165919000079157,1.9998239999986254,2.033399299994926,2.2999818999960553,2.2999818999960553,2.6000341000035405,3.066321100006462,0.7663392000104068,8.3247709999996,6.024789100003545,5.258449899993138,1.59579,-0.1411809324867898,0.043814772151072705,8.3247709999996,-0.13796296965098326,-0.05308492216789813,space,5.718484299999545,,,,,,,,p8_high-01,001,2023-05-03_13h32.24.157,expectation_shapes_perceived_time,2022.2.4,119.83079891394101,
,,,,,,,,,,,,,3,0,3,0,test,,,,,,red,0.6461630539224434,0.6416666666666666,2.2999968999938574,0.9987609000090742,1.2599994079209864e-05,1e-05,,0.641200400001253,0.674747800003388,1.999629099998856,,2.2999968999938574,2.2999968999938574,2.5993900000030408,2.674851600007969,0.3748547000141116,8.80779910000274,6.507802200008882,6.132947499994771,0.46212,0.1467780745457359,0.01754955239133799,8.80779910000274,0.1325110806815446,-0.06551796282775516,space,6.20248239999637,,,,,,,,p8_high-01,001,2023-05-03_13h32.24.157,expectation_shapes_perceived_time,2022.2.4,119.83079891394101,
,,,,,,,,,,,,,4,0,4,0,test,,,,,,green,1.6319854435392234,1.6333333333333333,2.300057400003425,0.998763700001291,1.9699989934451878e-05,2e-05,0.033320499991532415,1.6333557000034489,1.6665140999975847,1.9999782999948366,2.0332265999895753,2.300057400003425,2.300057400003425,2.599778099989635,3.400106200002483,1.1000487999990582,6.991513899993151,4.691456499989727,3.5914076999906683,1.44577,-0.1456832076989889,-0.025063777668643254,6.991513899993151,-0.13529688568366588,0.05955285619339321,space,4.385552899999311,,,,,,,,p8_high-01,001,2023-05-03_13h32.24.157,expectation_shapes_perceived_time,2022.2.4,119.83079891394101,
,,,,,,,,,,,,,5,0,5,0,test,,,,,,green,1.4969162769842734,1.4916666666666667,2.300081199995475,0.9985195000044769,1.4199991710484028e-05,1e-05,,1.4914844000013545,1.524831599992467,2.000174499989953,,2.300081199995475,2.300081199995475,2.600075900001684,2.6750775999971665,0.37499640000169165,7.291700799993123,4.991619599997648,4.616623199995956,1.55625,-0.145521539045567,0.02598598911527982,7.291700799993123,-0.1478165726625271,-0.001432062426631591,space,4.6902765999984695,,,,,,,,p8_high-01,001,2023-05-03_13h32.24.157,expectation_shapes_perceived_time,2022.2.4,119.83079891394101,
,,,,,,,,,,,,,6,0,6,0,test,,,,,,red,0.314983511227239,0.31666666666666665,2.30020000001241,0.9982302999997046,1.4700010069645941e-05,1e-05,,0.3168564000079641,0.34997050001402386,2.0002450000029057,,2.30020000001241,2.30020000001241,2.6002410000073723,3.3082762000121875,1.0080761999997776,6.725257000012789,4.425057000000379,3.4169808000006014,0.43926,0.1451400596856853,0.0280384206210983,6.725257000012789,0.12354777315416265,0.08116487975188216,space,4.11721129999205,,,,,,,,p8_high-01,001,2023-05-03_13h32.24.157,expectation_shapes_perceived_time,2022.2.4,119.83079891394101,
,,,,,,,,,,,,,7,0,7,0,test,,,,,,green,0.788091624195447,0.7833333333333333,2.300133700002334,0.9984181000036187,1.3900003978051245e-05,1e-05,0.03344299999298528,0.7833024999999907,0.8168024000042351,2.0001104999973904,2.033363800001098,2.300133700002334,2.300133700002334,2.600106300000334,3.808736899998621,1.508603199996287,7.59172490000492,5.2915912000025855,3.7829880000062985,0.76843,0.09830242847787793,-0.11040118890592446,7.59172490000492,0.0913007157125725,-0.11625820085852842,space,4.984483899999759,,,,,,,,p8_high-01,001,2023-05-03_13h32.24.157,expectation_shapes_perceived_time,2022.2.4,119.83079891394101,
,,,,,,,,,,,,,8,0,8,0,test,,,,,,red,1.7126579541777076,1.7083333333333333,2.300066300012986,0.9986927999998443,1.4000004739500582e-05,1e-05,0.03329800000938121,1.7080497999995714,1.741604400012875,1.999626900011208,2.033035000000382,2.300066300012986,2.300066300012986,2.6001333000021987,2.916674400010379,0.6166080999973929,5.633113000003505,3.3330466999905184,2.7164385999931255,1.64216,-0.13332485171076042,0.06384570363613878,5.633113000003505,-0.11604287739933206,0.0915742352486414,space,3.0331007999920985,,,,,,,,p8_high-01,001,2023-05-03_13h32.24.157,expectation_shapes_perceived_time,2022.2.4,119.83079891394101,
,,,,,,,,,,,,,9,0,9,0,test,,,,,,green,1.0115501189065592,1.0083333333333333,2.2999889999919105,0.9984298000053968,1.4299992471933365e-05,1e-05,,1.0080426999920746,1.0417992000002414,1.9996804999973392,,2.2999889999919105,2.2999889999919105,2.5996239999949466,2.616495499998564,0.31650650000665337,7.441597600001842,5.141608600009931,4.825102100003278,1.38337,-0.13801174167046684,-0.05295799389680704,7.441597600001842,-0.005362712684658039,-0.14772620373228212,space,4.841373399991426,,,,,,,,p8_high-01,001,2023-05-03_13h32.24.157,expectation_shapes_perceived_time,2022.2.4,119.83079891394101,
,,,,,,,,,,,,,10,0,10,0,test,,,,,,green,0.5458080814105964,0.5416666666666666,2.3000653000053717,0.9984581999888178,1.440000778529793e-05,1e-05,0.0333573000098113,0.5416670000122394,0.5750587000075029,1.9999131000076886,2.0336293000000296,2.3000653000053717,2.3000653000053717,2.5996551000134787,2.3746544000023277,0.07458909999695607,7.149741900007939,4.849676600002567,4.775087500005611,0.28056,0.11406492917648822,0.09402649567251056,7.149741900007939,0.14629542344762353,-0.02119997723513998,space,4.550087700001313,,,,,,,,p8_high-01,001,2023-05-03_13h32.24.157,expectation_shapes_perceived_time,2022.2.4,119.83079891394101,
,,,,,,,,,,,,,11,0,11,0,test,,,,,,green,0.9277131978309034,0.9249999999999999,2.300351900004898,0.99833000000217,1.990000600926578e-05,2e-05,0.03332590000354685,0.9250730000057956,0.9584769000066444,2.000277700004517,2.0338389000098687,2.300351900004898,2.300351900004898,2.6003424000082305,2.6166526000015438,0.31630069999664556,6.775418300007004,4.475066400002106,4.1587657000054605,1.09548,-0.04367737138892861,-0.14122350082420249,6.775418300007004,0.03328227597145262,-0.14402805304054483,space,4.167468100000406,,,,,,,,p8_high-01,001,2023-05-03_13h32.24.157,expectation_shapes_perceived_time,2022.2.4,119.83079891394101,
,,,,,,,,,,,,,12,0,12,0,test,,,,,,red,1.0844466957632188,1.0833333333333333,2.300125099995057,0.9980563999997685,1.2799995602108538e-05,1e-05,0.03350910000153817,1.083513599995058,1.1166851999878418,1.999993599994923,2.033643299990217,2.300125099995057,2.300125099995057,2.6001168999937363,3.249912299987045,0.949787199991988,12.141736799996579,9.841611700001522,8.891824500009534,0.51674,0.14761919216631908,-0.007769431166648373,12.141736799996579,-0.038758733474205186,-0.14265185079754644,space,9.537870899992413,,,,,,,,p8_high-01,001,2023-05-03_13h32.24.157,expectation_shapes_perceived_time,2022.2.4,119.83079891394101,
,,,,,,,,,,,,,13,0,13,0,test,,,,,,red,0.3497218625606341,0.35,2.2995875000051456,0.9987889999902109,1.4200006262399256e-05,1e-05,,0.3495911000063643,0.3833865000051446,1.99970120000944,,2.2995875000051456,2.2995875000051456,2.599749900007737,2.967024500001571,0.6674369999964256,6.00830460000725,3.7087171000021044,3.041280100005679,0.39126,0.13928148220547426,0.04952230478416862,6.00830460000725,0.1316530203439623,0.06722553228351688,space,3.404422200008412,,,,,,,,p8_high-01,001,2023-05-03_13h32.24.157,expectation_shapes_perceived_time,2022.2.4,119.83079891394101,
,,,,,,,,,,,,,14,0,14,0,test,,,,,,red,1.0791123503131161,1.075,2.3001689000084298,0.9981613999989349,1.3900003978051245e-05,1e-05,0.033747900000889786,1.0755287000065437,1.109110100005637,2.0001373999984935,2.0334055999992415,2.3001689000084298,2.3001689000084298,2.600162500006263,2.9085630000045057,0.608394099996076,5.208899900011602,2.908731000003172,2.300336900007096,1.17151,-0.07585165891060078,-0.12687913854136856,5.208899900011602,-0.03636279467211288,-0.14328132160237664,space,2.6042135000025155,,,,,,,,p8_high-01,001,2023-05-03_13h32.24.157,expectation_shapes_perceived_time,2022.2.4,119.83079891394101,
,,,,,,,,,,,,,15,0,15,0,test,,,,,,red,1.7755956548728211,1.775,2.299750700010918,0.9981522000016412,1.4000004739500582e-05,1e-05,0.032932400004938245,1.7750282000051811,1.808356499997899,1.9995607000018936,2.0331389000057243,2.299750700010918,2.299750700010918,2.599898700005724,2.9998712000087835,0.7001204999978654,6.249523100006627,3.949772399995709,3.2496518999978434,1.43978,-0.14518562732450382,-0.027801503104692222,6.249523100006627,-0.09579317608389619,0.1125853337351255,space,3.64223499999207,,,,,,,,p8_high-01,001,2023-05-03_13h32.24.157,expectation_shapes_perceived_time,2022.2.4,119.83079891394101,
,,,,,,,,,,,,,16,0,16,0,test,,,,,,red,1.351567925450167,1.35,2.2996548999944935,0.9989007999975001,1.3999990187585354e-05,1e-05,0.03302639999310486,1.3499709999887273,1.3829355999914696,1.9996286999958102,2.033280699994066,2.2996548999944935,2.2996548999944935,2.6003224000014598,2.999737999998615,0.7000831000041217,7.799738599991542,5.500083699997049,4.800000599992927,1.52987,-0.14717310727865895,0.013851586567403196,7.799738599991542,-0.13204068377525546,-0.06646087408884202,space,5.192021299997577,,,,,,,,p8_high-01,001,2023-05-03_13h32.24.157,expectation_shapes_perceived_time,2022.2.4,119.83079891394101,
,,,,,,,,,,,,,17,0,17,0,test,,,,,,red,1.0690820649061175,1.0666666666666667,2.299627000000328,0.9985682999977143,1.4399993233382702e-05,1e-05,0.03298289999656845,1.0666005999955814,1.0996842000022298,1.9997169999987818,2.0329911000007996,2.299627000000328,2.299627000000328,2.599975399993127,3.208121499992558,0.90849449999223,5.933178899998893,3.633551899998565,2.7250574000063352,1.21198,-0.09132855004210175,-0.11623633641722042,5.933178899998893,-0.03183054224797928,-0.14435583305391414,space,3.329422599999816,,,,,,,,p8_high-01,001,2023-05-03_13h32.24.157,expectation_shapes_perceived_time,2022.2.4,119.83079891394101,
,,,,,,,,,,,,,18,0,18,0,test,,,,,,red,0.7456972088840172,0.7416666666666667,2.2998758999892743,0.9985576000035508,1.4299992471933365e-05,1e-05,,0.741414199990686,0.774988499993924,2.000489699988975,,2.2998758999892743,2.2998758999892743,2.5999515999865253,2.7081592999893473,0.408283400000073,10.683370999991894,8.38349510000262,7.975211700002546,0.56283,0.14495287681389746,-0.02899057536277949,10.683370999991894,0.10593036922044437,-0.10310454322342086,space,8.075750099989818,,,,,,,,p8_high-01,001,2023-05-03_13h32.24.157,expectation_shapes_perceived_time,2022.2.4,119.83079891394101,
,,,,,,,,,,,,,19,0,19,0,test,,,,,,red,1.7781603869411924,1.775,2.3002628999965964,0.9982784000021638,2.890000178012997e-05,3e-05,0.03330009999626782,1.7750781000067946,1.8083677999966312,2.0002374000032432,2.033406799993827,2.3002628999965964,2.3002628999965964,2.600186700001359,2.808478599996306,0.5082156999997096,10.292298700005631,7.992035800009035,7.483820100009325,1.54129,-0.1465818527884104,0.01911937210283614,10.292298700005631,-0.09488293773358739,0.113353509356941,space,7.688243899989175,,,,,,,,p8_high-01,001,2023-05-03_13h32.24.157,expectation_shapes_perceived_time,2022.2.4,119.83079891394101,
,,,,,,,,,0,0,0,0,,,,,fam,0.5403541999985464,0.5403541999985464,270.0,2.540337099999306,2.540337099999306,,,,,,,,,,,,,,,,,,,,,,,,,,,,,,,,,,,,p8_high-01,001,2023-05-03_13h32.24.157,expectation_shapes_perceived_time,2022.2.4,119.83079891394101,
,,,,,,,,,1,0,1,0,,,,,fam,0.4985084000072675,0.4985084000072675,270.0,2.498588100002962,2.498588100002962,,,,,,,,,,,,,,,,,,,,,,,,,,,,,,,,,,,,p8_high-01,001,2023-05-03_13h32.24.157,expectation_shapes_perceived_time,2022.2.4,119.83079891394101,
,,,,,,,,,2,0,2,0,,,,,fam,0.49853570001141634,0.49853570001141634,270.0,2.498533200006932,2.498533200006932,,,,,,,,,,,,,,,,,,,,,,,,,,,,,,,,,,,,p8_high-01,001,2023-05-03_13h32.24.157,expectation_shapes_perceived_time,2022.2.4,119.83079891394101,
,,,,,,,,,3,0,3,0,,,,,fam,0.498288999995566,0.498288999995566,270.0,2.49827140000707,2.49827140000707,,,,,,,,,,,,,,,,,,,,,,,,,,,,,,,,,,,,p8_high-01,001,2023-05-03_13h32.24.157,expectation_shapes_perceived_time,2022.2.4,119.83079891394101,
,,,,,,,,,4,0,4,0,,,,,fam,0.4982665999996243,0.4982665999996243,270.0,2.4987133000104222,2.4987133000104222,,,,,,,,,,,,,,,,,,,,,,,,,,,,,,,,,,,,p8_high-01,001,2023-05-03_13h32.24.157,expectation_shapes_perceived_time,2022.2.4,119.83079891394101,
,,,,,,,,,,,,,0,0,0,0,testSingleStim,,,,,,red,0.6917438837747891,0.6916666666666667,0.041495400000712834,0.9986333999986527,2.1800005924887955e-05,2e-05,0.03343710000626743,0.6915213000029325,0.7251836999930674,1.9998920999933034,2.033542100005434,2.2998564000008628,2.2998564000008628,2.6003071000013733,3.8914975999941817,1.5916411999933189,4.8834269999933895,2.5835705999925267,0.9919293999992078,0.34655,0.13097652326406906,0.06853422728933846,,,,None,,,,,,,,,p8_high-01,001,2023-05-03_13h32.24.157,expectation_shapes_perceived_time,2022.2.4,119.83079891394101,
,,,,,,,,,,,,,1,0,1,0,testSingleStim,,,,,,red,0.2902023570044083,0.2916666666666667,0.002082399994833395,0.9989020000066375,1.4299992471933365e-05,1e-05,,0.29137599999376107,0.3246108000021195,1.9997011999948882,,2.3000365999905625,2.3000365999905625,2.6000397999887355,3.5723602999933064,1.2723237000027439,4.657898599994951,2.3578620000043884,1.0855383000016445,0.16809,0.0744839833208242,0.12768682854998437,,,,None,,,,,,,,,p8_high-01,001,2023-05-03_13h32.24.157,expectation_shapes_perceived_time,2022.2.4,119.83079891394101,
,,,,,,,,,,,,,2,0,2,0,testSingleStim,,,,,,green,1.0802551450118194,1.075,0.0029079000087222084,0.9982240999961505,1.3800003216601908e-05,1e-05,,1.0750447000027634,1.1082995000033407,1.9999139999999898,,2.2999171999981627,2.2999171999981627,2.599995199998375,3.3250267999974312,1.0251095999992685,6.641570100007812,4.341652900009649,3.3165433000103803,1.0788,-0.036222914476091564,-0.1433167485793188,,,,None,,,,,,,,,p8_high-01,001,2023-05-03_13h32.24.157,expectation_shapes_perceived_time,2022.2.4,119.83079891394101,
,,,,,,,,,,,,,3,0,3,0,testSingleStim,,,,,,red,1.5075005849903547,1.5083333333333333,0.00254609998955857,0.9986061999952653,2.370000584051013e-05,2e-05,,1.5085091999935685,1.541999199995189,2.000119699994684,,2.300098399995477,2.300098399995477,2.6002007000060985,3.8251935000007506,1.5250951000052737,5.80842849999317,3.5083300999976927,1.983234999992419,1.36721,-0.13514608490757488,-0.059894287629493406,,,,None,,,,,,,,,p8_high-01,001,2023-05-03_13h32.24.157,expectation_shapes_perceived_time,2022.2.4,119.83079891394101,
,,,,,,,,,,,,,4,0,4,0,testSingleStim,,,,,,red,1.679865125428138,1.675,0.003436900005908683,0.9981867000024067,1.990000600926578e-05,2e-05,,1.6750825000053737,1.708673600005568,2.0001436000020476,,2.2999552999972366,2.2999552999972366,2.600142199997208,5.041791199997533,2.7418359000002965,7.4666290000022855,5.166673700005049,2.4248378000047524,1.12335,-0.055862060383481585,-0.13686204793952989,,,,None,,,,,,,,,p8_high-01,001,2023-05-03_13h32.24.157,expectation_shapes_perceived_time,2022.2.4,119.83079891394101,
,,,,,,,,,,,,,5,0,5,0,testSingleStim,,,,,,green,1.5683778819894225,1.5666666666666667,0.002442699988023378,0.9987622999906307,2.950000634882599e-05,3e-05,0.033382900001015514,1.5667287999967812,1.6000174000073457,2.0001049999991665,2.033402200002456,2.299939699994866,2.299939699994866,2.5999430999945616,4.916666300006909,2.6167266000120435,5.8667462000012165,3.5668065000063507,0.9500798999943072,0.91273,0.04002256135762743,-0.1423024403826753,,,,None,,,,,,,,,p8_high-01,001,2023-05-03_13h32.24.157,expectation_shapes_perceived_time,2022.2.4,119.83079891394101,
,,,,,,,,,,,,,6,0,6,0,testSingleStim,,,,,,green,1.0981674723219863,1.1,0.004197599992039613,0.9978665999951772,1.9899991457350552e-05,2e-05,0.03301939999801107,1.099901099994895,1.1332524000026751,1.999870200001169,2.0332070000004023,2.300040200003423,2.300040200003423,2.5998760999937076,4.258207699997001,1.9581674999935785,10.858282200002577,8.558241999999154,6.600074500005576,0.58446,0.14265049542675248,-0.038763721583356656,,,,None,,,,,,,,,p8_high-01,001,2023-05-03_13h32.24.157,expectation_shapes_perceived_time,2022.2.4,119.83079891394101,
,,,,,,,,,,,,,7,0,7,0,testSingleStim,,,,,,red,0.2383081439916009,0.24166666666666667,0.0025636000063968822,0.9986260000005132,1.4900011592544615e-05,1e-05,,0.24149150001176167,0.27497140000923537,1.9997575000015786,,2.2998920000100043,2.2998920000100043,2.6000119000091217,2.3749093000078574,0.07501729999785312,3.791394700005185,1.4915026999951806,1.4164853999973275,0.30137,0.11996385442103516,0.08637397518314532,,,,None,,,,,,,,,p8_high-01,001,2023-05-03_13h32.24.157,expectation_shapes_perceived_time,2022.2.4,119.83079891394101,
,,,,,,,,,,,,,8,0,8,0,testSingleStim,,,,,,green,1.696018044321209,1.6916666666666667,0.002425099999527447,0.9991141999926185,1.3900003978051245e-05,1e-05,0.03304449999995995,1.6914878000097815,1.7248151000094367,1.9995465999963926,2.0329873000009684,2.299612500006333,2.299612500006333,2.5998154999979306,4.799679200004903,2.5000666999985697,8.74959900000249,6.449986499996157,3.9499197999975877,1.72845,-0.11135795430003696,0.09721726169050846,,,,None,,,,,,,,,p8_high-01,001,2023-05-03_13h32.24.157,expectation_shapes_perceived_time,2022.2.4,119.83079891394101,
,,,,,,,,,,,,,9,0,9,0,testSingleStim,,,,,,green,0.6630371269985638,0.6583333333333333,0.0023477999930037186,0.9988426999916555,1.3600001693703234e-05,1e-05,0.03332180000143126,0.6579945999983465,0.6918351000058465,1.999953300008201,2.033320600006846,2.299944600003073,2.299944600003073,2.599918100007926,4.666390500002308,2.366445899999235,8.091404100006912,5.791459500003839,3.425013600004604,0.8947,0.04801496259683385,-0.1398082734437221,,,,None,,,,,,,,,p8_high-01,001,2023-05-03_13h32.24.157,expectation_shapes_perceived_time,2022.2.4,119.83079891394101,
,,,,,,,,,,,,,10,0,10,0,testSingleStim,,,,,,green,0.701159156056066,0.7,0.0025228000013157725,0.9975440999987768,1.479999627918005e-05,1e-05,0.03321219999634195,0.6996917999931611,0.7331466999894474,2.0000906999921426,2.0335792999976547,2.30027209999389,2.30027209999389,2.599819600000046,3.4999096999963513,1.1996376000024611,7.291717200001585,4.991445100007695,3.791807500005234,0.42355,0.143580577358876,0.03516259037360228,,,,None,,,,,,,,,p8_high-01,001,2023-05-03_13h32.24.157,expectation_shapes_perceived_time,2022.2.4,119.83079891394101,
,,,,,,,,,,,,,11,0,11,0,testSingleStim,,,,,,green,1.4610548626696642,1.4583333333333333,0.0024855999945430085,0.998491299993475,1.3999990187585354e-05,1e-05,0.03326519999245647,1.4584713999938685,1.491880300003686,2.000170600003912,2.033499400000437,2.2999176000012085,2.2999176000012085,2.5998854999925243,2.699760299990885,0.3998426999896765,8.150136900003417,5.850219300002209,5.450376600012532,1.799,-0.08726296750985425,0.119318751493066,,,,None,,,,,,,,,p8_high-01,001,2023-05-03_13h32.24.157,expectation_shapes_perceived_time,2022.2.4,119.83079891394101,
,,,,,,,,,,,,,12,0,12,0,testSingleStim,,,,,,green,1.5300061000133418,1.525,0.002362600003834814,0.9982749000046169,2.7299989596940577e-05,3e-05,0.03341389998968225,1.525096699988353,1.5587053999915952,2.0000599999912083,2.0333804999972926,2.3000380999874324,2.3000380999874324,2.6000490999867907,3.42515419999836,1.1251161000109278,5.025115599986748,2.7250774999993155,1.5999613999883877,1.84518,-0.06909578063972485,0.1306811503403492,,,,None,,,,,,,,,p8_high-01,001,2023-05-03_13h32.24.157,expectation_shapes_perceived_time,2022.2.4,119.83079891394101,
,,,,,,,,,,,,,13,0,13,0,testSingleStim,,,,,,green,1.3705491236223681,1.3666666666666667,0.0022346000041579828,0.9984457999962615,2.300000051036477e-05,2e-05,,1.366759299999103,1.4001215000025695,1.9999116999970283,,2.3001107000018237,2.3001107000018237,2.6000942999962717,3.6332046000025002,1.3330939000006765,7.0164416000043275,4.716330900002504,3.3832370000018273,0.89851,0.04633684498910788,-0.1403733833493562,,,,None,,,,,,,,,p8_high-01,001,2023-05-03_13h32.24.157,expectation_shapes_perceived_time,2022.2.4,119.83079891394101,
,,,,,,,,,,,,,14,0,14,0,testSingleStim,,,,,,green,0.3262718090213663,0.325,0.002389700006460771,0.9986334999994142,1.3700002455152571e-05,1e-05,0.03358920000027865,0.3251668000011705,0.35822860000189394,2.0007196000078693,,2.3000027000089176,2.3000027000089176,2.600018099998124,3.616941600004793,1.3169388999958755,5.508394200005569,3.208391499996651,1.8914526000007754,0.36555,0.1348317690661869,0.060598547894915464,,,,None,,,,,,,,,p8_high-01,001,2023-05-03_13h32.24.157,expectation_shapes_perceived_time,2022.2.4,119.83079891394101,
,,,,,,,,,,,,,15,0,15,0,testSingleStim,,,,,,green,0.9756890451114375,0.975,0.0024000999983400106,0.9988421000016388,4.6899993321858346e-05,5e-05,0.03327949999948032,0.9747140999970725,1.0083207999996375,1.9999403999972856,2.033006999990903,2.299968399995123,2.299968399995123,2.5999795999960043,3.3417349999945145,1.0417665999993915,4.341863499997999,2.0418951000028756,1.000128500003484,0.61748,0.1378696090700997,-0.053326924262963094,,,,None,,,,,,,,,p8_high-01,001,2023-05-03_13h32.24.157,expectation_shapes_perceived_time,2022.2.4,119.83079891394101,
,,,,,,,,,,,,,16,0,16,0,testSingleStim,,,,,,red,1.347470877679775,1.3416666666666666,0.0022655000066151842,0.998245599999791,1.71000137925148e-05,2e-05,0.03333990000828635,1.3417946000117809,1.3751239000121132,2.0001616000081412,2.0332229000050575,2.2999053000094136,2.2999053000094136,2.600119500013534,4.47280880001199,2.172903500002576,5.7499706000089645,3.450065299999551,1.2771617999969749,0.75475,0.1029554345230264,-0.10607529617523932,,,,None,,,,,,,,,p8_high-01,001,2023-05-03_13h32.24.157,expectation_shapes_perceived_time,2022.2.4,119.83079891394101,
,,,,,,,,,,,,,17,0,17,0,testSingleStim,,,,,,red,1.610431146590095,1.6083333333333334,0.0023676999990129843,0.9990132000093581,1.3800003216601908e-05,1e-05,0.033121500004199333,1.6081740999943577,1.6411977999960072,1.9996487000025809,2.0329747999930987,2.299430899991421,2.299430899991421,2.599504600002547,5.149666800003615,2.850235900012194,7.099519499999587,4.800088600008166,1.9498526999959722,1.06623,-0.03053418004598435,-0.1446355896915048,,,,None,,,,,,,,,p8_high-01,001,2023-05-03_13h32.24.157,expectation_shapes_perceived_time,2022.2.4,119.83079891394101,
,,,,,,,,,,,,,18,0,18,0,testSingleStim,,,,,,red,1.1052407974310248,1.1,0.002423699988867156,0.9982869999948889,1.4299992471933365e-05,1e-05,0.033235299997613765,1.0996535000012955,1.1333094000001438,1.9997277999937069,2.03295330000401,2.2997912999999244,2.2997912999999244,2.59985769999912,8.016632900005789,5.716841600005864,10.708016100004897,8.408224800004973,2.691383199999109,0.63043,0.13558627849206145,-0.05889100985008729,,,,None,,,,,,,,,p8_high-01,001,2023-05-03_13h32.24.157,expectation_shapes_perceived_time,2022.2.4,119.83079891394101,
,,,,,,,,,,,,,19,0,19,0,testSingleStim,,,,,,red,1.071745827244676,1.0666666666666667,0.002572800003690645,0.9989798000024166,1.4600009308196604e-05,1e-05,0.03307800000766292,1.0663526999996975,1.0999299999966752,1.9998988000006648,2.033025099997758,2.299626200008788,2.299626200008788,2.5997045999974944,3.1082344000024023,0.8086081999936141,4.8083974000037415,2.5087711999949533,1.7001630000013392,0.31985,0.12477340962993436,0.07926781317666418,,,,None,,,,,,,,,p8_high-01,001,2023-05-03_13h32.24.157,expectation_shapes_perceived_time,2022.2.4,119.83079891394101,
,,,,,,,,,,,,,20,0,20,0,testSingleStim,,,,,,red,0.8182779125693438,0.8166666666666667,0.0024813000054564327,0.9985248000011779,1.4900011592544615e-05,1e-05,0.0333740000060061,0.816435900007491,0.8498374000046169,1.9996850000025006,2.032972000000882,2.300050400008331,2.300050400008331,2.5999517000018386,3.1082148000132293,0.8081644000048982,4.924631300003966,2.6245808999956353,1.816416499990737,0.23044,0.09790935952158156,0.11074993126211685,,,,None,,,,,,,,,p8_high-01,001,2023-05-03_13h32.24.157,expectation_shapes_perceived_time,2022.2.4,119.83079891394101,
,,,,,,,,,,,,,21,0,21,0,testSingleStim,,,,,,red,1.4475418629451955,1.4416666666666667,0.002479200004017912,0.9980366999952821,1.440000778529793e-05,1e-05,,1.4418926000071224,1.4753170000039972,1.999983900008374,,2.300353600003291,2.300353600003291,2.6002620000072056,2.5833658000046853,0.2830122000013944,5.416993999999249,3.1166403999959584,2.833628199994564,1.09767,-0.04464782550235456,-0.14091969924180658,,,,None,,,,,,,,,p8_high-01,001,2023-05-03_13h32.24.157,expectation_shapes_perceived_time,2022.2.4,119.83079891394101,
,,,,,,,,,,,,,22,0,22,0,testSingleStim,,,,,,green,0.8409980303680121,0.8416666666666667,0.0025132000009762123,0.9985207999998238,5.7199998991563916e-05,6e-05,0.033290899998974055,0.8414958999928785,0.8748779000015929,1.999869999999646,2.033303899996099,2.299760800000513,2.299760800000513,2.59985329999472,2.699848499993095,0.4000876999925822,4.949760499992408,2.649999699991895,2.2499119999993127,0.20066,0.08713738666909912,0.11941049284283953,,,,None,,,,,,,,,p8_high-01,001,2023-05-03_13h32.24.157,expectation_shapes_perceived_time,2022.2.4,119.83079891394101,
,,,,,,,,,,,,,23,0,23,0,testSingleStim,,,,,,red,0.48888184884152724,0.49166666666666664,0.003426800001761876,0.9984320000075968,1.7099999240599573e-05,2e-05,0.03322440000192728,0.49163099999714177,0.5248904000036418,1.9999428000010084,2.0330702000064775,2.2998892000032356,2.2998892000032356,2.600001600003452,3.2746896000026027,0.9748003999993671,4.208069200001773,1.9081799999985378,0.9333795999991708,0.1358,0.06116980346186625,0.13457356761610573,,,,None,,,,,,,,,p8_high-01,001,2023-05-03_13h32.24.157,expectation_shapes_perceived_time,2022.2.4,119.83079891394101,
,,,,,,,,,,,,,24,0,24,0,testSingleStim,,,,,,green,1.214245805904797,1.2166666666666666,0.003014200003235601,0.9986253999959445,1.750000228639692e-05,2e-05,0.03312480000022333,1.2162992999947164,1.249911399994744,1.9999551999935647,2.0331345000013243,2.2996859999984736,2.2996859999984736,2.599777199997334,4.658022399991751,2.358336399993277,6.533245900005568,4.233559900007094,1.875223500013817,0.75697,0.10221358994477485,-0.10679031785274984,,,,None,,,,,,,,,p8_high-01,001,2023-05-03_13h32.24.157,expectation_shapes_perceived_time,2022.2.4,119.83079891394101,
,,,,,,,,,,,,,25,0,25,0,testSingleStim,,,,,,green,1.334342528722034,1.3333333333333333,0.0022265000006882474,0.9988906999933533,1.3800003216601908e-05,1e-05,0.033206399995833635,1.3332090000039898,1.366600000008475,1.9998996000067564,2.0328799999988405,2.299572200005059,2.299572200005059,2.5996119000046747,2.9662147000053665,0.6666425000003073,6.38287400000263,4.083301799997571,3.4166592999972636,0.81911,0.07955697991363142,-0.12458923269493223,,,,None,,,,,,,,,p8_high-01,001,2023-05-03_13h32.24.157,expectation_shapes_perceived_time,2022.2.4,119.83079891394101,
,,,,,,,,,,,,,26,0,26,0,testSingleStim,,,,,,green,0.8880349963444795,0.8833333333333333,0.002824800001690164,0.9986938000074588,1.6299993149004877e-05,2e-05,,0.8833671000029426,0.9164385000040056,2.0001152000040747,,2.3000700999982655,2.3000700999982655,2.6000017000042135,2.833113000000594,0.5330429000023287,5.20031729999755,2.900247199999285,2.3672042999969563,0.55001,0.1460028483447921,-0.02312916409422449,,,,None,,,,,,,,,p8_high-01,001,2023-05-03_13h32.24.157,expectation_shapes_perceived_time,2022.2.4,119.83079891394101,
,,,,,,,,,,,,,27,0,27,0,testSingleStim,,,,,,green,0.16374469601834862,0.16666666666666666,0.0022969999990891665,0.9980557999951998,1.340000017080456e-05,1e-05,,0.1668950000021141,0.19992880000791047,2.000101800003904,,2.299895900010597,2.299895900010597,2.599842700001318,2.3915957999997772,0.09169989998918027,3.77532240000437,1.4754264999937732,1.383726600004593,0.1361,0.06129806309031506,0.13451519400374695,,,,None,,,,,,,,,p8_high-01,001,2023-05-03_13h32.24.157,expectation_shapes_perceived_time,2022.2.4,119.83079891394101,
,,,,,,,,,,,,,28,0,28,0,testSingleStim,,,,,,red,0.6272565889548518,0.625,0.0023658999998588115,0.9986119999957737,1.340000017080456e-05,1e-05,0.033450100003392436,0.6247451000090223,0.6582055000035325,1.9999858000082895,2.0330376000056276,2.299979400006123,2.299979400006123,2.5996360999997705,4.25830760000099,1.9583281999948667,5.849681300009252,3.5497019000031287,1.591373700008262,0.27984,0.11385225614399512,0.09428389961924596,,,,None,,,,,,,,,p8_high-01,001,2023-05-03_13h32.24.157,expectation_shapes_perceived_time,2022.2.4,119.83079891394101,
,,,,,,,,,,,,,29,0,29,0,testSingleStim,,,,,,green,1.0422190168018406,1.0416666666666667,0.0027623999922070652,0.9972971999959555,1.440000778529793e-05,1e-05,0.03347059999941848,1.0423583000083454,1.0756639000028372,2.000259399996139,2.0336900999973295,2.3000789000070654,2.3000789000070654,2.600301700003911,2.500351499998942,0.20027259999187663,14.558688100005384,12.258609199998318,12.058336600006442,0.93964,0.02786169375630227,-0.14517408851968022,,,,None,,,,,,,,,p8_high-01,001,2023-05-03_13h32.24.157,expectation_shapes_perceived_time,2022.2.4,119.83079891394101,
,,,,,,,,,,,,,30,0,30,0,testSingleStim,,,,,,green,0.5221875066689413,0.525,0.002476800000295043,0.9986493000033079,1.440000778529793e-05,1e-05,0.03300570001010783,0.5248603000072762,0.5581709999969462,1.9997154000011506,2.0331128999969224,2.2998259000014514,2.2998259000014514,2.599629600008484,5.307949800000642,3.008123899999191,6.941671699998551,4.6418457999971,1.6337218999979086,1.97381,-0.01215037626268215,0.14732331218502107,,,,None,,,,,,,,,p8_high-01,001,2023-05-03_13h32.24.157,expectation_shapes_perceived_time,2022.2.4,119.83079891394101,
,,,,,,,,,,,,,31,0,31,0,testSingleStim,,,,,,red,0.47502129474455096,0.475,0.0023954000062076375,0.9981953000096837,1.3999990187585354e-05,1e-05,0.03313089998846408,0.47488109998812433,0.5079058999981498,1.9999059999972815,2.0328920999891125,2.2995669999945676,2.2995669999945676,2.5998369999870192,4.408096899991506,2.108529899996938,5.991356399987126,3.691789399992558,1.58325949999562,0.35755,0.13326630223669303,0.06396782507361266,,,,None,,,,,,,,,p8_high-01,001,2023-05-03_13h32.24.157,expectation_shapes_perceived_time,2022.2.4,119.83079891394101,
,,,,,,,,,,,,,32,0,32,0,testSingleStim,,,,,,green,1.1404157964611437,1.1416666666666666,0.002562599998782389,0.9989591000048677,1.4299992471933365e-05,1e-05,0.032945699989795685,1.141270899999654,1.174818299987237,1.9998350999958348,2.032887599998503,2.2998503999988316,2.2998503999988316,2.5997350999969058,3.8251462999905925,1.525295899991761,6.941441699993447,4.641591299994616,3.116295400002855,0.87112,0.05823053316987949,-0.13587124406305215,,,,None,,,,,,,,,p8_high-01,001,2023-05-03_13h32.24.157,expectation_shapes_perceived_time,2022.2.4,119.83079891394101,
,,,,,,,,,,,,,33,0,33,0,testSingleStim,,,,,,red,0.8749336560691229,0.875,0.002232500002719462,0.9975665000092704,2.890000178012997e-05,3e-05,,0.8749948000040604,0.9084845000033965,1.9999734000011813,,2.299947500010603,2.299947500010603,2.599995600001421,4.18327790001058,1.883330399999977,5.074937800003681,2.7749902999930782,0.8916598999931011,0.65166,0.13135902412680087,-0.06779820600092948,,,,None,,,,,,,,,p8_high-01,001,2023-05-03_13h32.24.157,expectation_shapes_perceived_time,2022.2.4,119.83079891394101,
,,,,,,,,,,,,,34,0,34,0,testSingleStim,,,,,,red,1.8497649304396877,1.8499999999999999,0.0025003000046126544,0.9983604000008199,1.340000017080456e-05,1e-05,0.033402599990949966,1.8500532999896677,1.883438799995929,1.9999586999911116,2.033213299990166,2.30003709999437,2.30003709999437,2.5999320999981137,2.9418074999994133,0.6417704000050435,15.808585899998434,13.508548800004064,12.86677839999902,1.85242,-0.0661086831762514,0.1322173663525028,,,,None,,,,,,,,,p8_high-01,001,2023-05-03_13h32.24.157,expectation_shapes_perceived_time,2022.2.4,119.83079891394101,
,,,,,,,,,,,,,35,0,35,0,testSingleStim,,,,,,red,1.6853482411100618,1.6833333333333333,0.0024151999969035387,0.9989845999953104,0.00010970000585075468,0.00011,0.033240000004298054,1.6827857000025688,1.7164701000001514,1.9994033000111813,2.0330194999987725,2.299406899997848,2.299406899997848,2.599543000003905,3.1493768000073032,0.8499699000094552,4.482676400002674,2.183269500004826,1.333299599995371,1.93186,-0.03140209554368536,0.14444963950095263,,,,None,,,,,,,,,p8_high-01,001,2023-05-03_13h32.24.157,expectation_shapes_perceived_time,2022.2.4,119.83079891394101,
,,,,,,,,,,,,,36,0,36,0,testSingleStim,,,,,,green,1.6944503593315627,1.6916666666666667,0.002280500004417263,0.9989128000015626,5.699999746866524e-05,6e-05,0.03306309999607038,1.6915390999929514,1.7248648999957368,1.999681999994209,2.033190199988894,2.29960790000041,2.29960790000041,2.599771499997587,3.3329549999907613,1.0333470999903511,6.732830599998124,4.433222699997714,3.3998756000073627,1.63732,-0.13428005793065625,0.06181145523792113,,,,None,,,,,,,,,p8_high-01,001,2023-05-03_13h32.24.157,expectation_shapes_perceived_time,2022.2.4,119.83079891394101,
,,,,,,,,,,,,,37,0,37,0,testSingleStim,,,,,,green,0.3129994763680335,0.31666666666666665,0.002863800007617101,0.998548400006257,1.6999998479150236e-05,2e-05,,0.3166066999983741,0.3499590999999782,2.000278299994534,,2.3005722999951104,2.3005722999951104,2.6005237999925157,2.441658700001426,0.14108640000631567,4.841828299991903,2.5412559999967925,2.400169599990477,0.3494,0.13158483276037708,0.06735890248447875,,,,None,,,,,,,,,p8_high-01,001,2023-05-03_13h32.24.157,expectation_shapes_perceived_time,2022.2.4,119.83079891394101,
,,,,,,,,,,,,,38,0,38,0,testSingleStim,,,,,,red,1.7806728759701822,1.775,0.002370099988183938,0.9986353999993298,1.4300007023848593e-05,1e-05,0.03297790000215173,1.7747766000102274,1.8084130000061123,1.9997949000098743,2.0330559000140056,2.2997601000097347,2.2997601000097347,2.599943400011398,3.1413506000099005,0.8415905000001658,7.816418500005966,5.516658399996231,4.6750678999960655,0.96929,0.01423898053255947,-0.1471361321697812,,,,None,,,,,,,,,p8_high-01,001,2023-05-03_13h32.24.157,expectation_shapes_perceived_time,2022.2.4,119.83079891394101,
,,,,,,,,,,,,,39,0,39,0,testSingleStim,,,,,,green,1.8233902410881162,1.8166666666666667,0.002292499993927777,0.9986336000001756,1.4000004739500582e-05,1e-05,,1.8165504999924451,1.84989250000217,2.0003586999955587,,2.3004303999914555,2.3004303999914555,2.599891399993794,3.033373300000676,0.7329429000092205,5.783264300000155,3.4828339000087,2.7498909999994794,1.34024,-0.12959198817865172,-0.07111755448828448,,,,None,,,,,,,,,p8_high-01,001,2023-05-03_13h32.24.157,expectation_shapes_perceived_time,2022.2.4,119.83079891394101,
,,,,,,,,,0,0,0,0,0,-1,-1,0,fam,0.5408888000092702,0.5408888000092702,270.0,2.5405048000102397,2.5405048000102397,,,,,,,,,,,,,,,,,,,,,,,,,,,,,,,,,,,,p8_high-01,001,2023-05-03_13h32.24.157,expectation_shapes_perceived_time,2022.2.4,119.83079891394101,
,,,,,,,,,1,0,1,0,0,-1,-1,0,fam,0.49841519999608863,0.49841519999608863,270.0,2.4983029999857536,2.4983029999857536,,,,,,,,,,,,,,,,,,,,,,,,,,,,,,,,,,,,p8_high-01,001,2023-05-03_13h32.24.157,expectation_shapes_perceived_time,2022.2.4,119.83079891394101,
,,,,,,,,,2,0,2,0,0,-1,-1,0,fam,0.4979950999986613,0.4979950999986613,270.0,2.497025600008783,2.497025600008783,,,,,,,,,,,,,,,,,,,,,,,,,,,,,,,,,,,,p8_high-01,001,2023-05-03_13h32.24.157,expectation_shapes_perceived_time,2022.2.4,119.83079891394101,
,,,,,,,,,3,0,3,0,0,-1,-1,0,fam,0.49898300001223106,0.49898300001223106,270.0,2.4989930000010645,2.4989930000010645,,,,,,,,,,,,,,,,,,,,,,,,,,,,,,,,,,,,p8_high-01,001,2023-05-03_13h32.24.157,expectation_shapes_perceived_time,2022.2.4,119.83079891394101,
1,500,0.5,none,88,red,green,no_Expectation,,,,,,0,0,0,9,train_doubleStim,,,,,,red,0.9951094185516516,0.9916666666666667,2.3003223999985494,0.9909067999979015,1e-05,1e-05,,0.9918755999970017,1.0249725000030594,2.000213799998164,2.0332290999940597,2.3003223999985494,2.3003223999985494,2.5002777999907266,2.899987999990117,0.5996655999915674,5.1917744999955175,2.891452099996968,2.2917865000054007,1.37331,-0.1362685063738904,-0.057294712907203914,,,,None,,0.5,0.5,1.5284394185516517,1.525,training_double_stim.csv,1.5250342999934219,1.5586238999967463,p8_high-01,001,2023-05-03_13h32.24.157,expectation_shapes_perceived_time,2022.2.4,119.83079891394101,
1,-500,0.5,none,77,green,red,no_Expectation,,,,,,0,1,1,1,train_doubleStim,,,,,,green,0.6970598922793403,0.7,2.3001482999970904,0.9987784999975702,1e-05,1e-05,,0.7000571999960812,0.7334011000057217,1.9997012999956496,,2.3001482999970904,2.3001482999970904,2.500058799996623,4.2333896000054665,1.9332413000083761,6.075028999999631,3.774880700002541,1.8416393999941647,1.11164,-0.05078942774563815,-0.1388244358380776,,,,None,,-0.5,-0.5,0.1637298922793403,0.16666666666666666,training_double_stim.csv,0.1664740999985952,0.20012720000522677,p8_high-01,001,2023-05-03_13h32.24.157,expectation_shapes_perceived_time,2022.2.4,119.83079891394101,
1,-500,0.5,none,23,green,red,no_Expectation,,,,,,0,2,2,2,train_doubleStim,,,,,,green,0.7866193974572953,0.7833333333333333,2.3000874999997905,0.9984545000042999,3e-05,3e-05,0.03376,0.7831186999974307,0.8164746999973431,2.0001401999907102,2.0334282999974675,2.3000874999997905,2.3000874999997905,2.5001087999989977,3.8500929000001634,1.550005400000373,5.9831063999881735,3.683018899988383,2.13301349998801,0.36922,0.13552181409252548,0.059039206139318026,,,,None,,-0.5,-0.5,0.25328939745729523,0.25,training_double_stim.csv,0.25011489998723846,0.28340609998849686,p8_high-01,001,2023-05-03_13h32.24.157,expectation_shapes_perceived_time,2022.2.4,119.83079891394101,
1,500,0.5,none,33,green,red,no_Expectation,,,,,,0,3,3,7,train_doubleStim,,,,,,green,1.3281770525061651,1.325,2.2999876999965636,0.9981455000088317,2e-05,2e-05,,1.3246878999925684,1.3581823999993503,1.9997887000063201,,2.2999876999965636,2.2999876999965636,2.4998748999933014,5.1580682000058005,2.858080500009237,6.208322299993597,3.9083345999970334,1.0502540999877965,0.60466,0.1399050289062923,-0.04773230397979385,,,,None,,0.5,0.5,1.8615070525061652,1.8583333333333334,training_double_stim.csv,1.8580008999997517,1.8913910999981454,p8_high-01,001,2023-05-03_13h32.24.157,expectation_shapes_perceived_time,2022.2.4,119.83079891394101,
1,500,0.5,none,98,red,green,no_Expectation,,,,,,0,4,4,5,train_doubleStim,,,,,,red,0.7959769465227414,0.7916666666666666,2.2999960999877658,0.9987421999976505,1e-05,1e-05,0.03298,0.7912748999951873,0.8254133999871556,2.0001159999956144,2.0333854999917094,2.2999960999877658,2.2999960999877658,2.4999213999981293,6.257860399986384,3.9578642999986187,8.816241399996215,6.51624530000845,2.558381000009831,0.7371,0.10867531809557729,-0.1002071114907271,,,,None,,0.5,0.5,1.3293069465227414,1.325,training_double_stim.csv,1.3247468999907142,1.3583148999896366,p8_high-01,001,2023-05-03_13h32.24.157,expectation_shapes_perceived_time,2022.2.4,119.83079891394101,
1,-500,0.5,none,59,green,red,no_Expectation,,,,,,0,5,5,0,train_doubleStim,,,,,,green,0.8738154930721584,0.875,2.300061799993273,0.9972547999932431,1e-05,1e-05,0.03334,0.8747570999985328,0.9081310000037774,2.000051099996199,2.0332130000024335,2.300061799993273,2.300061799993273,2.499750100003439,4.674786300005508,2.374724500012235,6.699878300001728,4.3998165000084555,2.0250919999962207,0.85242,0.06610868317625139,-0.13221736635250278,,,,None,,-0.5,-0.5,0.3404854930721585,0.3416666666666667,training_double_stim.csv,0.3416391000064323,0.3748552000033669,p8_high-01,001,2023-05-03_13h32.24.157,expectation_shapes_perceived_time,2022.2.4,119.83079891394101,
1,-500,0.5,none,46,red,green,no_Expectation,,,,,,0,6,6,4,train_doubleStim,,,,,,red,1.4763312140149247,1.475,2.2998695999995107,0.9991223000106402,1e-05,1e-05,0.03276,1.474829700004193,1.5081065999984276,1.9994681999960449,2.0331736999942223,2.2998695999995107,2.2998695999995107,2.49957450000511,4.799608599991188,2.4997389999916777,6.007847100001527,3.7079775000020163,1.2082385000103386,1.0942,-0.043109143435731176,-0.14139799046919826,,,,None,,-0.5,-0.5,0.9430012140149245,0.9416666666666667,training_double_stim.csv,0.9411020999978064,0.9749886999925366,p8_high-01,001,2023-05-03_13h32.24.157,expectation_shapes_perceived_time,2022.2.4,119.83079891394101,
1,-500,0.5,none,68,red,green,no_Expectation,,,,,,0,7,7,3,train_doubleStim,,,,,,red,1.0206776176486594,1.0166666666666666,2.2999133999983314,0.998864200009848,1e-05,1e-05,0.03336,1.0165763999975752,1.0497438000020338,1.999675799990655,2.03328249999322,2.2999133999983314,2.2999133999983314,2.4996401999960653,4.858003200002713,2.5580898000043817,6.791384500000277,4.491471100001945,1.9333812999975635,1.25247,-0.10533412799349606,-0.1037136029474423,,,,None,,-0.5,-0.5,0.4873476176486594,0.48333333333333334,training_double_stim.csv,0.48344519999227487,0.5164485999994213,p8_high-01,001,2023-05-03_13h32.24.157,expectation_shapes_perceived_time,2022.2.4,119.83079891394101,
1,500,0.5,none,60,red,green,no_Expectation,,,,,,0,8,8,8,train_doubleStim,,,,,,red,0.5072660226267831,0.5083333333333333,2.300080599990906,0.9986372999992454,1e-05,1e-05,0.03379,0.5086901999893598,0.541946099998313,2.0000661999947624,2.0333085999882314,2.300080599990906,2.300080599990906,2.5002821999951266,4.025171199988108,1.725090599997202,5.549977499991655,3.249896900000749,1.5248063000035472,1.46042,-0.14668199812023264,-0.01833524976502908,,,,None,,0.5,0.5,1.040596022626783,1.0416666666666667,training_double_stim.csv,1.0419763999962015,1.075333499989938,p8_high-01,001,2023-05-03_13h32.24.157,expectation_shapes_perceived_time,2022.2.4,119.83079891394101,
1,500,0.5,none,25,green,red,no_Expectation,,,,,,0,9,9,6,train_doubleStim,,,,,,green,0.3234777329466183,0.325,2.3003066000092076,0.9984816000069259,2e-05,2e-05,0.0332,0.3252043000102276,0.3583472000027541,2.0006500000017695,2.0336429000017233,2.3003066000092076,2.3003066000092076,2.5002494000073057,3.1586182000028202,0.8583115999936126,4.89167150000867,2.591364899999462,1.7330533000058495,0.59002,0.14195126576908346,-0.0412507951807593,,,,None,,0.5,0.5,0.8568077329466184,0.8583333333333333,training_double_stim.csv,0.858460900009959,0.891850500003784,p8_high-01,001,2023-05-03_13h32.24.157,expectation_shapes_perceived_time,2022.2.4,119.83079891394101,
1,500,0.5,none,60,red,green,no_Expectation,,,,,,1,0,10,8,train_doubleStim,,,,,,red,0.997733463046941,1.0,2.3000339999998687,0.9986827999964589,1e-05,1e-05,0.03371,0.9998930000001565,1.033257400005823,2.000120500000776,2.0334711000032257,2.3000339999998687,2.3000339999998687,2.5001462000072934,3.7582096999976784,1.4581756999978097,5.1831735000014305,2.883139500001562,1.4249638000037521,0.83599,0.0728397422541239,-0.1286318852572826,,,,None,,0.5,0.5,1.5310634630469409,1.525,training_double_stim.csv,1.5251327000005404,1.558966500000679,p8_high-01,001,2023-05-03_13h32.24.157,expectation_shapes_perceived_time,2022.2.4,119.83079891394101,
1,500,0.5,none,88,red,green,no_Expectation,,,,,,1,1,11,9,train_doubleStim,,,,,,red,0.6153296127421451,0.6166666666666667,2.2997382000030484,0.9980005000106758,0.00012,0.00012,,0.6164939000009326,0.6498330000031274,2.0002031000040006,,2.2997382000030484,2.2997382000030484,2.4999356000043917,2.7665995999996085,0.46686139999656007,5.6998682000121335,3.400130000009085,2.933268600012525,0.42283,0.14350017495002076,0.035489290579037394,,,,None,,0.5,0.5,1.1486596127421451,1.15,training_double_stim.csv,1.1498266999988118,1.1832815000088885,p8_high-01,001,2023-05-03_13h32.24.157,expectation_shapes_perceived_time,2022.2.4,119.83079891394101,
1,-500,0.5,none,68,red,green,no_Expectation,,,,,,1,2,12,3,train_doubleStim,,,,,,red,1.6024648727957451,1.6,2.2996820000116713,0.9988133000006201,2e-05,2e-05,,1.6000343000050634,1.6330619000073057,1.999938100008876,,2.2996820000116713,2.2996820000116713,2.500024900000426,4.308103600007598,2.008421599995927,7.5913357000099495,5.291653699998278,3.283232100002351,0.85839,0.06361451166344552,-0.13343531714771498,,,,None,,-0.5,-0.5,1.0691348727957453,1.0666666666666667,training_double_stim.csv,1.0665623000095366,1.0998844000132522,p8_high-01,001,2023-05-03_13h32.24.157,expectation_shapes_perceived_time,2022.2.4,119.83079891394101,
1,500,0.5,none,25,green,red,no_Expectation,,,,,,1,3,13,6,train_doubleStim,,,,,,green,0.7044022003586143,0.7,2.3000655000068946,0.9988809999922523,2e-05,2e-05,,0.6998643000115408,0.733219800007646,1.9999463999993168,,2.3000655000068946,2.3000655000068946,2.500038600002881,4.066569900009199,1.7665044000023045,6.158187200009706,3.858121700002812,2.0916173000005074,0.42857,0.14411672159469874,0.03289620819009427,,,,None,,0.5,0.5,1.2377322003586142,1.2333333333333334,training_double_stim.csv,1.2331274000025587,1.2664540000114357,p8_high-01,001,2023-05-03_13h32.24.157,expectation_shapes_perceived_time,2022.2.4,119.83079891394101,
1,-500,0.5,none,59,green,red,no_Expectation,,,,,,1,4,14,0,train_doubleStim,,,,,,green,1.752093165257342,1.75,2.300029899997753,0.9977000999933807,2e-05,2e-05,,1.7499640000023646,1.7833639000018593,2.000155799993081,2.033292399995844,2.300029899997753,2.300029899997753,2.500720399999409,3.7082981999992626,1.4082683000015095,5.733482199997525,3.4334522999997716,2.025183999998262,0.68813,0.12274755303036229,-0.082370068480901,,,,None,,-0.5,-0.5,1.218763165257342,1.2166666666666666,training_double_stim.csv,1.216768400001456,1.2502818999928422,p8_high-01,001,2023-05-03_13h32.24.157,expectation_shapes_perceived_time,2022.2.4,119.83079891394101,
1,-500,0.5,none,46,red,green,no_Expectation,,,,,,1,5,15,4,train_doubleStim,,,,,,red,0.6653951933569565,0.6666666666666666,2.3000700999982655,0.997834400011925,1e-05,1e-05,0.03355,0.6663965999905486,0.6997273999877507,1.9999962000001688,2.0334678999934113,2.3000700999982655,2.3000700999982655,2.500088599990704,3.7333549999893876,1.433284899991122,5.4748773999890545,3.174807299990789,1.741522399999667,1.08952,-0.041026885501241686,-0.14201614211968275,,,,None,,-0.5,-0.5,0.13206519335695652,0.13333333333333333,training_double_stim.csv,0.13307879999047145,0.16675540000142064,p8_high-01,001,2023-05-03_13h32.24.157,expectation_shapes_perceived_time,2022.2.4,119.83079891394101,
1,500,0.5,none,98,red,green,no_Expectation,,,,,,1,6,16,5,train_doubleStim,,,,,,red,0.7714802053795102,0.7666666666666666,2.300057400003425,0.9980155000084778,1e-05,1e-05,0.03346,0.7668715999898268,0.8003767999907723,2.000086999993073,2.0335214999940945,2.300057400003425,2.300057400003425,2.5000003000022843,3.6084940000000643,1.3084365999966394,6.31651669999701,4.016459299993585,2.7080226999969454,0.37297,0.1362084652135896,0.057437304608140186,,,,None,,0.5,0.5,1.30481020537951,1.3,training_double_stim.csv,1.2998408999992535,1.3335590999922715,p8_high-01,001,2023-05-03_13h32.24.157,expectation_shapes_perceived_time,2022.2.4,119.83079891394101,
1,-500,0.5,none,77,green,red,no_Expectation,,,,,,1,7,17,1,train_doubleStim,,,,,,green,1.752386457063704,1.75,2.309005500006606,0.9976027000084287,1e-05,1e-05,0.03345,1.7500192000006791,1.783377700005076,1.9998937000054866,2.0340539000026183,2.309005500006606,2.309005500006606,2.509047300001839,2.600994799999171,0.29198929999256507,4.7584083000110695,2.4494028000044636,2.1574135000118986,1.60963,-0.139143027038308,0.049909998828958295,,,,None,,-0.5,-0.5,1.2190564570637041,1.2166666666666666,training_double_stim.csv,1.2169636000035098,1.2502106000029016,p8_high-01,001,2023-05-03_13h32.24.157,expectation_shapes_perceived_time,2022.2.4,119.83079891394101,
1,500,0.5,none,33,green,red,no_Expectation,,,,,,1,8,18,7,train_doubleStim,,,,,,green,0.21399188947244432,0.21666666666666667,2.3002106999920215,0.9985680999961914,1e-05,1e-05,,0.21696029999293387,0.2500700999953551,2.0002161000011256,2.0335615999938454,2.3002106999920215,2.3002106999920215,2.5001675999956205,3.7003013999928953,1.4000907000008738,5.541748699994059,3.2415380000020377,1.841447300001164,0.48073,0.14755277022948368,0.008942592135120223,,,,None,,0.5,0.5,0.7473218894724444,0.75,training_double_stim.csv,0.7502889000024879,0.783402400003979,p8_high-01,001,2023-05-03_13h32.24.157,expectation_shapes_perceived_time,2022.2.4,119.83079891394101,
1,-500,0.5,none,23,green,red,no_Expectation,,,,,,1,9,19,2,train_doubleStim,,,,,,green,1.6976539632593772,1.6916666666666667,2.299888399997144,0.9986634999950184,3e-05,3e-05,0.03385,1.691798200001358,1.725011699993047,2.0001645000011194,2.0333956999966176,2.299888399997144,2.299888399997144,2.4998116999922786,3.9164134000020567,1.6165250000049127,15.97513789999357,13.675249499996426,12.058724499991513,0.64911,0.13189801181465408,-0.0667435722435599,,,,None,,-0.5,-0.5,1.1643239632593771,1.1666666666666667,training_double_stim.csv,1.1669290999998339,1.200131399993552,p8_high-01,001,2023-05-03_13h32.24.157,expectation_shapes_perceived_time,2022.2.4,119.83079891394101,
,,,,,,,,,0,0,0,0,0,-1,-1,0,fam,0.5324439000105485,0.5324439000105485,270.0,2.532607500004815,2.532607500004815,,,,,,,,,,,,,,,,,,,,,,,,,,,,,,,,,,,,p8_high-01,001,2023-05-03_13h32.24.157,expectation_shapes_perceived_time,2022.2.4,119.83079891394101,
,,,,,,,,,1,0,1,0,0,-1,-1,0,fam,0.49813900000299327,0.49813900000299327,270.0,2.49857090000296,2.49857090000296,,,,,,,,,,,,,,,,,,,,,,,,,,,,,,,,,,,,p8_high-01,001,2023-05-03_13h32.24.157,expectation_shapes_perceived_time,2022.2.4,119.83079891394101,
,,,,,,,,,2,0,2,0,0,-1,-1,0,fam,0.4983939000085229,0.4983939000085229,270.0,2.4986338000016985,2.4986338000016985,,,,,,,,,,,,,,,,,,,,,,,,,,,,,,,,,,,,p8_high-01,001,2023-05-03_13h32.24.157,expectation_shapes_perceived_time,2022.2.4,119.83079891394101,
,,,,,,,,,3,0,3,0,0,-1,-1,0,fam,0.49873250001110137,0.49873250001110137,270.0,2.4988584000093397,2.4988584000093397,,,,,,,,,,,,,,,,,,,,,,,,,,,,,,,,,,,,p8_high-01,001,2023-05-03_13h32.24.157,expectation_shapes_perceived_time,2022.2.4,119.83079891394101,
,167,0.8,met,,green,red,,1011.3567843056376,,,,,0,0,0,213,trial,,,,,,green,1.0113567843056375,1.0083333333333333,2.3002642000064952,0.9986845999956131,1e-05,1e-05,,1.0082065000024159,1.0419137999997474,2.000059500001953,,2.3002642000064952,2.3002642000064952,2.5003070999955526,3.1416923999931896,0.8414281999866944,4.9250723000004655,2.6248080999939702,1.7833799000072759,1.34484,-0.1306063353951681,-0.06923709346249876,,,,None,,0.167,0.16666666666666666,1.2116867843056376,1.2083333333333333,trial_list_0.8_green.csv,1.2083356999937678,1.241962500003865,p8_high-01,001,2023-05-03_13h32.24.157,expectation_shapes_perceived_time,2022.2.4,119.83079891394101,
,33,0.8,met,,green,red,,444.7101100354956,,,,,0,1,1,397,trial,,,,,,green,0.4447101100354956,0.44166666666666665,2.3006670999893686,0.9980800000048475,1e-05,1e-05,0.03355,0.4416586000006646,0.4752662999962922,1.9999539999989793,2.033301199990092,2.3006670999893686,2.3006670999893686,2.5002607999922475,5.716629999995348,3.4159629000059795,9.900021599998581,7.599354500009213,4.183391600003233,1.15053,-0.0673300318792399,-0.1315996077639689,,,,None,,0.033,0.03333333333333333,0.5110401100354955,0.5083333333333333,trial_list_0.8_green.csv,0.5086329999903683,0.5419541000010213,p8_high-01,001,2023-05-03_13h32.24.157,expectation_shapes_perceived_time,2022.2.4,119.83079891394101,
,-167,0.8,met,,green,red,,1341.339157677782,,,,,0,2,2,480,trial,,,,,,green,1.341339157677782,1.3416666666666666,2.300261500000488,0.9987072999938391,1e-05,1e-05,0.03343,1.3421882999973604,1.375534000006155,1.999924200004898,2.033601200004341,2.300261500000488,2.300261500000488,2.499975099999574,4.774858200005838,2.4745967000053497,7.13338549999753,4.833123999997042,2.3585272999916924,1.08507,-0.039038538650055306,-0.14257553246107152,,,,None,,-0.167,-0.16666666666666666,1.141009157677782,1.1416666666666666,trial_list_0.8_green.csv,1.1416024000063771,1.1748480999958701,p8_high-01,001,2023-05-03_13h32.24.157,expectation_shapes_perceived_time,2022.2.4,119.83079891394101,
,100,0.1999999999999999,unmet,,red,green,,1089.0548040259696,,,,,0,3,3,398,trial,,,,,,red,1.0890548040259695,1.0916666666666666,2.299784400005592,0.9982107999967411,1e-05,1e-05,0.03335,1.0914159000094514,1.124727400005213,1.9998765000054846,2.03332090000913,2.299784400005592,2.299784400005592,2.500063200001023,4.124779100005981,1.8249947000003885,6.566396100010024,4.266611700004432,2.441617000004044,0.68132,0.12448210646308096,-0.07972449515051253,,,,None,,0.1,0.1,1.2223848040259695,1.2166666666666666,trial_list_0.8_green.csv,1.2163460000010673,1.249795500014443,p8_high-01,001,2023-05-03_13h32.24.157,expectation_shapes_perceived_time,2022.2.4,119.83079891394101,
,-100,0.1999999999999999,unmet,,red,green,,1045.079683570363,,,,,0,4,4,287,trial,,,,,,red,1.0450796835703628,1.0416666666666667,2.2996963000041433,0.9988542000064626,1e-05,1e-05,0.03296,1.042027000003145,1.0747947999916505,2.000135299997055,2.033227199994144,2.2996963000041433,2.2996963000041433,2.499951099991449,4.1999979999964125,1.9003016999922693,5.916510900002322,3.616814599998179,1.7165129000059096,1.16888,-0.07480085570535057,-0.12750145858866574,,,,None,,-0.1,-0.1,0.9117496835703629,0.9083333333333333,trial_list_0.8_green.csv,0.9083305999956792,0.9413978999946266,p8_high-01,001,2023-05-03_13h32.24.157,expectation_shapes_perceived_time,2022.2.4,119.83079891394101,
,100,0.8,met,,green,red,,433.762332968813,,,,,0,5,5,363,trial,,,,,,green,0.433762332968813,0.43333333333333335,2.30068040000333,0.9978394999925513,2e-05,2e-05,,0.4331910000037169,0.4665123000013409,2.0000257000065176,,2.30068040000333,2.30068040000333,2.5002339000056963,3.608284799993271,1.3076043999899412,7.000210300000617,4.699529899997287,3.3919255000073463,0.68795,0.12279525091568451,-0.08229894476263963,,,,None,,0.1,0.1,0.567092332968813,0.5666666666666667,trial_list_0.8_green.csv,0.5667976999975508,0.6001430000032997,p8_high-01,001,2023-05-03_13h32.24.157,expectation_shapes_perceived_time,2022.2.4,119.83079891394101,
,-100,0.1999999999999999,unmet,,red,green,,892.0024385205684,,,,,0,6,6,296,trial,,,,,,red,0.8920024385205684,0.8916666666666666,2.299969500003499,0.9987331000011181,1e-05,1e-05,,0.8920638999989023,0.9253007000079378,2.000098300006357,,2.299969500003499,2.299969500003499,2.5001983999973163,2.6246925000014016,0.32472299999790266,5.999936899999739,3.6999673999962397,3.375244399998337,0.86783,0.05963170193600925,-0.13526215317192342,,,,None,,-0.1,-0.1,0.7586724385205683,0.7583333333333333,trial_list_0.8_green.csv,0.7583224999980303,0.7919624000060139,p8_high-01,001,2023-05-03_13h32.24.157,expectation_shapes_perceived_time,2022.2.4,119.83079891394101,
,233,0.8,met,,green,red,,376.2938874994856,,,,,0,7,7,475,trial,,,,,,green,0.3762938874994856,0.375,2.2996997000009287,0.9987117999990005,1e-05,1e-05,,0.37497780000558123,0.408127799993963,1.9996662999910768,,2.2996997000009287,2.2996997000009287,2.4997154000011506,2.799665400001686,0.49996570000075735,3.9163904000015464,1.6166907000006177,1.1167249999998603,0.26973,0.11080165945205245,0.0978508161394749,,,,None,,0.233,0.23333333333333334,0.6426238874994857,0.6416666666666666,trial_list_0.8_green.csv,0.6413595999911195,0.6751256999996258,p8_high-01,001,2023-05-03_13h32.24.157,expectation_shapes_perceived_time,2022.2.4,119.83079891394101,
,-33,0.8,met,,green,red,,1154.773660822436,,,,,0,8,8,325,trial,,,,,,green,1.1547736608224362,1.15,2.3000874999997905,0.997894100000849,2e-05,2e-05,0.03328,1.1500386999978218,1.183195000005071,1.9999873000051593,2.0331387000042014,2.3000874999997905,2.3000874999997905,2.5000847000046633,3.283190400004969,0.9831029000051785,4.8248746000026586,2.524787100002868,1.5416841999976896,0.39382,0.1396747081550935,0.04840212658839875,,,,None,,-0.033,-0.03333333333333333,1.0884436608224362,1.0833333333333333,trial_list_0.8_green.csv,1.083194499995443,1.1168903000070713,p8_high-01,001,2023-05-03_13h32.24.157,expectation_shapes_perceived_time,2022.2.4,119.83079891394101,
,233,0.8,met,,green,red,,378.0178947378125,,,,,0,9,9,87,trial,,,,,,green,0.3780178947378125,0.375,2.3004006999981357,0.9985741999989841,1e-05,1e-05,0.03336,0.37537999999767635,0.40879580000182614,2.0003468000068096,2.033766900000046,2.3004006999981357,2.3004006999981357,2.500158200011356,4.583372799999779,2.2829721000016434,6.2000900999992155,3.8996894000010798,1.6167172999994364,0.6145,0.13836280487804878,-0.05203387533875338,,,,None,,0.233,0.23333333333333334,0.6443478947378126,0.6416666666666666,trial_list_0.8_green.csv,0.6417037000064738,0.6750784000032581,p8_high-01,001,2023-05-03_13h32.24.157,expectation_shapes_perceived_time,2022.2.4,119.83079891394101,
,300,0.8,met,,green,red,,744.4194053218853,,,,,0,10,10,242,trial,,,,,,green,0.7444194053218853,0.7416666666666667,2.2999203999934252,0.9988097999885213,1e-05,1e-05,0.03306,0.741463999991538,0.77483179999399,2.0001476999896113,2.0331618999916827,2.2999203999934252,2.2999203999934252,2.4998544999980368,5.225112199987052,2.9251917999936268,6.692075199985993,4.392154799992568,1.466962999998941,0.73786,0.1084376295899699,-0.10046427447306035,,,,None,,0.3,0.3,1.0777494053218852,1.075,trial_list_0.8_green.csv,1.0750536999985343,1.10854789998848,p8_high-01,001,2023-05-03_13h32.24.157,expectation_shapes_perceived_time,2022.2.4,119.83079891394101,
,233,0.1999999999999999,unmet,,red,green,,1270.8967072938935,,,,,0,11,11,39,trial,,,,,,red,1.2708967072938935,1.2666666666666666,2.3005490000068676,0.9980388000112725,1e-05,1e-05,0.03364,1.2669011000107275,1.3000865000067279,1.9999430000025313,2.0336698000028264,2.3005490000068676,2.3005490000068676,2.5003684000112116,2.9999831000022823,0.6994340999954147,4.499972300007357,2.1994233000004897,1.499989200005075,1.42752,-0.1440082702025263,-0.0333677699249756,,,,None,,0.233,0.23333333333333334,1.5372267072938934,1.5333333333333332,trial_list_0.8_green.csv,1.5337145000085002,1.567079400003422,p8_high-01,001,2023-05-03_13h32.24.157,expectation_shapes_perceived_time,2022.2.4,119.83079891394101,
,100,0.8,met,,green,red,,287.942065156928,,,,,0,12,12,285,trial,,,,,,green,0.287942065156928,0.2916666666666667,2.3000065999949584,0.9907199000008404,1e-05,1e-05,0.03334,0.29129269999975804,0.3250378999946406,1.9999646999931429,2.0333601999882376,2.3000065999949584,2.3000065999949584,2.4996523000008892,3.2835441999923205,0.9835375999973621,4.716333799995482,2.4163272000005236,1.4327896000031615,0.12792,0.05781978215802325,0.13604654625417234,,,,None,,0.1,0.1,0.42127206515692794,0.4166666666666667,trial_list_0.8_green.csv,0.4167435999988811,0.44978579999587964,p8_high-01,001,2023-05-03_13h32.24.157,expectation_shapes_perceived_time,2022.2.4,119.83079891394101,
,-300,0.8,met,,green,red,,1837.3735951203448,,,,,0,13,13,70,trial,,,,,,green,1.837373595120345,1.8333333333333333,2.2996508999931393,0.9985651000024518,1e-05,1e-05,0.03338,1.8329245999921113,1.8663644999905955,1.9996353999886196,2.0336753000010503,2.2996508999931393,2.2996508999931393,2.499909399994067,4.824740299998666,2.525089400005527,6.124556299997494,3.8249054000043543,1.2998159999988275,0.1014,0.04629761813034124,0.1403863259436154,,,,None,,-0.3,-0.3,1.5040435951203448,1.5,trial_list_0.8_green.csv,1.4996413999906508,1.5333921999990707,p8_high-01,001,2023-05-03_13h32.24.157,expectation_shapes_perceived_time,2022.2.4,119.83079891394101,
,-33,0.1999999999999999,unmet,,red,green,,824.2095429906752,,,,,0,14,14,371,trial,,,,,,red,0.8242095429906753,0.825,2.299427999998443,0.9987028999894392,0.00014,0.00014,0.03299,0.8244436999957543,0.8578208999970229,1.9993226999940816,2.032656900002621,2.299427999998443,2.299427999998443,2.4993260000046575,3.4828578000015114,1.1834298000030685,5.324344699998619,3.024916700000176,1.8414868999971077,0.02671,0.01239000165716992,0.1473033530352424,,,,None,,-0.033,-0.03333333333333333,0.7578795429906752,0.7583333333333333,trial_list_0.8_green.csv,0.7577906999940751,0.7911737999966135,p8_high-01,001,2023-05-03_13h32.24.157,expectation_shapes_perceived_time,2022.2.4,119.83079891394101,
,167,0.8,met,,green,red,,538.5406391275153,,,,,0,15,15,303,trial,,,,,,green,0.5385406391275153,0.5416666666666666,2.299582499996177,0.9907786999974633,1e-05,1e-05,0.03295,0.5414116000029026,0.5748511999991024,1.9995228000043426,2.032906299995375,2.299582499996177,2.299582499996177,2.4996234999998705,2.8999265000020387,0.6003440000058617,4.441851800002041,2.1422693000058644,1.5419253000000026,0.36102,0.13395517199032314,0.06251241359548412,,,,None,,0.167,0.16666666666666666,0.7388706391275154,0.7416666666666667,trial_list_0.8_green.csv,0.7414213000010932,0.774879399992642,p8_high-01,001,2023-05-03_13h32.24.157,expectation_shapes_perceived_time,2022.2.4,119.83079891394101,
,300,0.8,met,,green,red,,1052.8502616457365,,,,,0,16,16,136,trial,,,,,,green,1.0528502616457365,1.05,2.300331299993559,0.9975415999942925,1e-05,1e-05,0.03353,1.0503119999921182,1.0834359000000404,2.000299899998936,2.0335020999918925,2.300331299993559,2.300331299993559,2.500031300005503,3.792536299995845,1.4922050000022864,4.717002399993362,2.416671099999803,0.9244660999975167,0.59476,0.1413212849685414,-0.04335993970625701,,,,None,,0.3,0.3,1.3861802616457364,1.3833333333333333,trial_list_0.8_green.csv,1.3834777000010945,1.4170018000004347,p8_high-01,001,2023-05-03_13h32.24.157,expectation_shapes_perceived_time,2022.2.4,119.83079891394101,
,-100,0.1999999999999999,unmet,,red,green,,923.2286847099406,,,,,0,17,17,271,trial,,,,,,red,0.9232286847099406,0.9249999999999999,2.2998646999913035,0.998477000001003,1e-05,1e-05,0.03337,0.9251530000037747,0.9581704000011086,2.000219499997911,2.033499400000437,2.2998646999913035,2.2998646999913035,2.500140799995279,4.183430000004591,1.883565300013288,5.7581812999997055,3.458316600008402,1.574751299995114,0.77708,0.09526812108687328,-0.1130299741708666,,,,None,,-0.1,-0.1,0.7898986847099405,0.7916666666666666,trial_list_0.8_green.csv,0.7915008999989368,0.8249591999920085,p8_high-01,001,2023-05-03_13h32.24.157,expectation_shapes_perceived_time,2022.2.4,119.83079891394101,
,33,0.8,met,,green,red,,1409.5386774041972,,,,,0,18,18,467,trial,,,,,,green,1.4095386774041971,1.4083333333333332,2.3000161000090884,0.9987589999946067,1e-05,1e-05,,1.408697699996992,1.4416137000080198,1.9999008000013418,,2.3000161000090884,2.3000161000090884,2.499840000004042,2.7582112999953097,0.45819519998622127,3.933221700004651,1.6332055999955628,1.1750104000093415,1.56022,-0.14518562732450382,0.027801503104692222,,,,None,,0.033,0.03333333333333333,1.4758686774041971,1.475,trial_list_0.8_green.csv,1.4751932000071974,1.5081473000027472,p8_high-01,001,2023-05-03_13h32.24.157,expectation_shapes_perceived_time,2022.2.4,119.83079891394101,
,233,0.1999999999999999,unmet,,red,green,,647.0392103999707,,,,,0,19,19,230,trial,,,,,,red,0.6470392103999707,0.65,2.300014499996905,0.9983303999906639,1e-05,1e-05,0.03344,0.649779799990938,0.6830937999911839,1.9999204999912763,2.0333099999988917,2.300014499996905,2.300014499996905,2.4997931999969296,2.7164037999900756,0.4163892999931704,4.91646480000054,2.6164503000036348,2.2000610000104643,0.62963,0.13573320393519137,-0.05855157816812177,,,,None,,0.233,0.23333333333333334,0.9133692103999708,0.9083333333333333,trial_list_0.8_green.csv,0.9082268999918597,0.9422769999946468,p8_high-01,001,2023-05-03_13h32.24.157,expectation_shapes_perceived_time,2022.2.4,119.83079891394101,
,100,0.8,met,,green,red,,702.4768684119671,,,,,0,20,20,251,trial,,,,,,green,0.7024768684119671,0.7,2.2991282000002684,0.9910304000077303,0.0001,0.0001,0.03322,0.6995394000114175,0.733219800007646,1.999299900009646,2.0327769000141416,2.2991282000002684,2.2991282000002684,2.4992251000076067,3.774614500012831,1.4754863000125624,6.191050600013114,3.891922400012845,2.4164361000002827,0.7405,0.10759928669414938,-0.1013616468857929,,,,None,,0.1,0.1,0.8358068684119672,0.8333333333333334,trial_list_0.8_green.csv,0.8326232000108575,0.8661824000009801,p8_high-01,001,2023-05-03_13h32.24.157,expectation_shapes_perceived_time,2022.2.4,119.83079891394101,
,-100,0.8,met,,green,red,,996.2393255595564,,,,,0,21,21,495,trial,,,,,,green,0.9962393255595564,0.9916666666666667,2.2998886999994284,0.9984838000091258,1e-05,1e-05,0.03353,0.9917336999933468,1.0248807999887504,2.000187300000107,2.0334952999983216,2.2998886999994284,2.2998886999994284,2.499849499989068,4.041512700001476,1.741624000002048,5.241564099997049,2.941675399997621,1.2000513999955729,0.40877,0.14179298545616237,0.041791616766026794,,,,None,,-0.1,-0.1,0.8629093255595564,0.8583333333333333,trial_list_0.8_green.csv,0.858457800000906,0.8914534999930765,p8_high-01,001,2023-05-03_13h32.24.157,expectation_shapes_perceived_time,2022.2.4,119.83079891394101,
,-167,0.8,met,,green,red,,1833.2179602575509,,,,,0,22,22,450,trial,,,,,,green,1.833217960257551,1.8333333333333333,2.3001679000008153,0.997746900000493,1e-05,1e-05,0.03357,1.8334027999953832,1.866837299996405,2.000071599992225,2.0334919999877457,2.3001679000008153,2.3001679000008153,2.5002619000006234,3.716860299988184,1.4166923999873688,5.183295299997553,2.883127399996738,1.466435000009369,0.88698,0.05139194483215483,-0.13860251788066,,,,None,,-0.167,-0.16666666666666666,1.632887960257551,1.6333333333333333,trial_list_0.8_green.csv,1.6339470999955665,1.6670261999970535,p8_high-01,001,2023-05-03_13h32.24.157,expectation_shapes_perceived_time,2022.2.4,119.83079891394101,
,100,0.1999999999999999,unmet,,red,green,,1747.6207969366085,,,,,0,23,23,163,trial,,,,,,red,1.7476207969366084,1.7416666666666667,2.300334700004896,0.9973109000129625,1e-05,1e-05,,1.7420009000052232,1.7755537000048207,2.000327000001562,,2.300334700004896,2.300334700004896,2.5003941000031773,5.274967400007881,2.974632700002985,6.966675100004068,4.6663403999991715,1.6917076999961864,0.74204,0.10710671550468828,-0.10188199767519131,,,,None,,0.1,0.1,1.8809507969366084,1.875,trial_list_0.8_green.csv,1.874928600009298,1.908698600003845,p8_high-01,001,2023-05-03_13h32.24.157,expectation_shapes_perceived_time,2022.2.4,119.83079891394101,
,-100,0.1999999999999999,unmet,,red,green,,1578.869296972504,,,,,0,24,24,30,trial,,,,,,red,1.578869296972504,1.575,2.2999494999967283,0.9986222000006819,2e-05,2e-05,0.03366,1.5753640999901108,1.6084719999926165,2.0000254999904428,2.033437399994,2.2999494999967283,2.2999494999967283,2.5000719999952707,3.5832968999893637,1.2833473999926355,6.791648999991594,4.491699499994866,3.20835210000223,0.54603,0.14628046012834114,-0.021302979630340942,,,,None,,-0.1,-0.1,1.445539296972504,1.4416666666666667,trial_list_0.8_green.csv,1.4416208999900846,1.475372699991567,p8_high-01,001,2023-05-03_13h32.24.157,expectation_shapes_perceived_time,2022.2.4,119.83079891394101,
,-300,0.1999999999999999,unmet,,red,green,,921.1780954602332,0,0,0,0,0,25,25,294,fam,0.5322007999930065,0.5322007999930065,270.0,2.5321390999888536,2.5321390999888536,,,,,,,,,,,,,,,,,,,,,,,,,,,,,,,,,,,,p8_high-01,001,2023-05-03_13h32.24.157,expectation_shapes_perceived_time,2022.2.4,119.83079891394101,
,-300,0.1999999999999999,unmet,,red,green,,921.1780954602332,1,0,1,0,0,25,25,294,fam,0.49876859999494627,0.49876859999494627,270.0,2.498439699993469,2.498439699993469,,,,,,,,,,,,,,,,,,,,,,,,,,,,,,,,,,,,p8_high-01,001,2023-05-03_13h32.24.157,expectation_shapes_perceived_time,2022.2.4,119.83079891394101,
,-300,0.1999999999999999,unmet,,red,green,,921.1780954602332,2,0,2,0,0,25,25,294,fam,0.4993187000072794,0.4993187000072794,270.0,2.4988028000079794,2.4988028000079794,,,,,,,,,,,,,,,,,,,,,,,,,,,,,,,,,,,,p8_high-01,001,2023-05-03_13h32.24.157,expectation_shapes_perceived_time,2022.2.4,119.83079891394101,
,-300,0.1999999999999999,unmet,,red,green,,921.1780954602332,3,0,3,0,0,25,25,294,fam,0.4984262000070885,0.4984262000070885,270.0,2.4984505000029458,2.4984505000029458,,,,,,,,,,,,,,,,,,,,,,,,,,,,,,,,,,,,p8_high-01,001,2023-05-03_13h32.24.157,expectation_shapes_perceived_time,2022.2.4,119.83079891394101,
,-300,0.1999999999999999,unmet,,red,green,,921.1780954602332,,,,,0,25,25,294,trial,,,,,,red,0.9211780954602332,0.9166666666666666,2.2998812000005273,0.9908766000007745,2e-05,2e-05,,0.9167251000035321,0.9500631000119029,1.9998266000038711,,2.2998812000005273,2.2998812000005273,2.5000843000016175,3.6081792000040878,1.3082980000035604,4.416667299999972,2.1167860999994446,0.8084880999958841,1.21827,-0.09360743249441497,-0.1144090841598405,,,,None,,-0.3,-0.3,0.5878480954602331,0.5833333333333334,trial_list_0.8_green.csv,0.5833914000104414,0.6166961999988416,p8_high-01,001,2023-05-03_13h32.24.157,expectation_shapes_perceived_time,2022.2.4,119.83079891394101,
,-33,0.8,met,,green,red,,1325.4000774130814,,,,,0,26,26,239,trial,,,,,,green,1.3254000774130814,1.325,2.300305999990087,0.998581899999408,1e-05,1e-05,0.03364,1.3250781999959145,1.3583825999958208,2.000170999992406,2.0335141999967163,2.300305999990087,2.300305999990087,2.5003396999964025,2.9752923999913037,0.6749864000012167,4.73336179999751,2.4330558000074234,1.7580694000062067,0.91233,0.04020163894155586,-0.14225195317781303,,,,None,,-0.033,-0.03333333333333333,1.2590700774130814,1.2583333333333333,trial_list_0.8_green.csv,1.2585162999894237,1.2917932999989716,p8_high-01,001,2023-05-03_13h32.24.157,expectation_shapes_perceived_time,2022.2.4,119.83079891394101,
,33,0.1999999999999999,unmet,,red,green,,1537.9298506287794,,,,,0,27,27,376,trial,,,,,,red,1.5379298506287793,1.5333333333333332,2.2999176000012085,0.9990111999941291,1e-05,1e-05,,1.5334211999870604,1.5667535999964457,1.9998087999993004,,2.2999176000012085,2.2999176000012085,2.4998955999908503,3.1667041999899084,0.8667865999886999,4.5831275999953505,2.283209999994142,1.416423400005442,1.41048,-0.14201614211968275,-0.041026885501241686,,,,None,,0.033,0.03333333333333333,1.6042598506287793,1.6,trial_list_0.8_green.csv,1.5999443999899086,1.6337227999902098,p8_high-01,001,2023-05-03_13h32.24.157,expectation_shapes_perceived_time,2022.2.4,119.83079891394101,
,-167,0.8,met,,green,red,,844.4739800907305,,,,,0,28,28,422,trial,,,,,,green,0.8444739800907305,0.8416666666666667,2.300141799991252,0.9987299999920651,3e-05,3e-05,0.03311,0.8416638999915449,0.8749489999900106,1.9999729999981355,2.0331488999945577,2.300141799991252,2.300141799991252,2.5000136000016937,4.083232299992233,1.7830905000009807,7.400122399994871,5.099980600003619,3.316890100002638,0.57008,0.14425576695260914,-0.03228101078659785,,,,None,,-0.167,-0.16666666666666666,0.6441439800907305,0.6416666666666666,trial_list_0.8_green.csv,0.6416131000005407,0.6749725999980001,p8_high-01,001,2023-05-03_13h32.24.157,expectation_shapes_perceived_time,2022.2.4,119.83079891394101,
,-33,0.8,met,,green,red,,1332.8060309874852,,,,,0,29,29,19,trial,,,,,,green,1.3328060309874852,1.3333333333333333,2.2999246999970637,0.9986481000087224,1e-05,1e-05,0.03336,1.3330019999993965,1.3664083999901777,2.000044099986553,2.0337263999972492,2.2999246999970637,2.2999246999970637,2.499696299986681,3.941469799989136,1.6415450999920722,5.457988899986958,3.1580641999898944,1.5165190999978222,0.83859,0.07178944244345378,-0.1292209963982168,,,,None,,-0.033,-0.03333333333333333,1.2664760309874852,1.2666666666666666,trial_list_0.8_green.csv,1.2663587999995798,1.2999840999982553,p8_high-01,001,2023-05-03_13h32.24.157,expectation_shapes_perceived_time,2022.2.4,119.83079891394101,
,-300,0.8,met,,green,red,,458.9808236344039,,,,,0,30,30,151,trial,,,,,,green,0.4589808236344039,0.4583333333333333,2.2999837000097614,0.9987403999984963,1e-05,1e-05,0.03296,0.4586068000062369,0.49189320000004955,1.999900200011325,2.033450700007961,2.2999837000097614,2.2999837000097614,2.499673400001484,3.191672100001597,0.8916883999918355,5.2579473000078,2.9579635999980383,2.066275200006203,0.43128,0.14439224324236904,0.031664965623326546,,,,None,,-0.3,-0.3,0.1256508236344039,0.125,trial_list_0.8_green.csv,0.12463560000469442,0.15810760000022128,p8_high-01,001,2023-05-03_13h32.24.157,expectation_shapes_perceived_time,2022.2.4,119.83079891394101,
,33,0.8,met,,green,red,,396.1865849394592,,,,,0,31,31,142,trial,,,,,,green,0.3961865849394592,0.39166666666666666,2.2997099999920465,0.9988305000006221,4e-05,4e-05,,0.39142119999451097,0.4249688999989303,1.9997595999884652,,2.2997099999920465,2.2997099999920465,2.4999341999937315,5.025222799988114,2.7255127999960678,6.55003269998997,4.250322699997923,1.5248099000018556,0.93926,0.0280384206210983,-0.1451400596856853,,,,None,,0.033,0.03333333333333333,0.4625165849394592,0.4583333333333333,trial_list_0.8_green.csv,0.4580454999959329,0.4914847999898484,p8_high-01,001,2023-05-03_13h32.24.157,expectation_shapes_perceived_time,2022.2.4,119.83079891394101,
,167,0.1999999999999999,unmet,,red,green,,1298.2664764226404,,,,,0,32,32,429,trial,,,,,,red,1.2982664764226404,1.3,2.300256199989235,0.9983329999959096,1e-05,1e-05,,1.299979399991571,1.3333373999921605,2.000139099996886,,2.300256199989235,2.300256199989235,2.5000404000020353,3.5167805999954,1.2165244000061648,4.567127199989045,2.26687099999981,1.0503465999936452,1.24236,-0.10198898923185844,-0.10700484116129412,,,,None,,0.167,0.16666666666666666,1.4985964764226403,1.5,trial_list_0.8_green.csv,1.4999649999954272,1.5333894999930635,p8_high-01,001,2023-05-03_13h32.24.157,expectation_shapes_perceived_time,2022.2.4,119.83079891394101,
,-100,0.8,met,,green,red,,339.8717789246724,,,,,0,33,33,241,trial,,,,,,green,0.3398717789246724,0.3416666666666667,2.299927200001548,0.9985271000041394,1e-05,1e-05,0.03294,0.34168500000669155,0.3751767000067048,1.9999278000032064,2.033190400004969,2.299927200001548,2.299927200001548,2.499872900007176,4.449689500004752,2.1497623000032036,6.024710700003197,3.7247835000016494,1.5750211999984458,0.77646,0.09548544905819836,-0.11284643979605262,,,,None,,-0.1,-0.1,0.20654177892467243,0.20833333333333334,trial_list_0.8_green.csv,0.20801119999669027,0.2417656000034185,p8_high-01,001,2023-05-03_13h32.24.157,expectation_shapes_perceived_time,2022.2.4,119.83079891394101,
,-100,0.8,met,,green,red,,1595.5498458392449,,,,,0,34,34,408,trial,,,,,,green,1.595549845839245,1.5916666666666666,2.300222499994561,0.9987173999979859,2e-05,2e-05,0.0335,1.5918318000040017,1.6249032999912743,2.000220399990212,2.033564600002137,2.300222499994561,2.300222499994561,2.500133099994855,4.808184900000924,2.507962400006363,6.033561799995368,3.7333393000008073,1.225376899994444,0.99399,0.0027886264911127696,-0.14779720402897678,,,,None,,-0.1,-0.1,1.462219845839245,1.4583333333333333,trial_list_0.8_green.csv,1.458567599998787,1.491814199995133,p8_high-01,001,2023-05-03_13h32.24.157,expectation_shapes_perceived_time,2022.2.4,119.83079891394101,
,233,0.1999999999999999,unmet,,red,green,,1354.218268406153,,,,,0,35,35,219,trial,,,,,,red,1.354218268406153,1.35,2.3002357999939704,0.9982971999997972,1e-05,1e-05,0.03368,1.3500104999984615,1.383491899992805,2.0000265999988187,2.0333480999979656,2.3002357999939704,2.3002357999939704,2.500222299990128,3.641796699987026,1.3415608999930555,6.342062599986093,4.041826799992123,2.700265899999067,0.62888,0.13587124406305215,-0.05823053316987949,,,,None,,0.233,0.23333333333333334,1.6205482684061527,1.6166666666666667,trial_list_0.8_green.csv,1.6169715999858454,1.650566099997377,p8_high-01,001,2023-05-03_13h32.24.157,expectation_shapes_perceived_time,2022.2.4,119.83079891394101,
,33,0.8,met,,green,red,,1291.4816746022473,,,,,0,36,36,92,trial,,,,,,green,1.2914816746022473,1.2916666666666667,2.3001139999978477,0.9984249000117416,1e-05,1e-05,0.03324,1.2916681000060635,1.3249832000001334,1.9999639000016032,2.0333450000034645,2.3001139999978477,2.3001139999978477,2.500073400005931,4.983308100010618,2.68319410001277,8.683381300012115,6.383267300014268,3.7000732000014978,0.79818,0.08756923537504299,-0.11909416011005847,,,,None,,0.033,0.03333333333333333,1.3578116746022473,1.3583333333333334,trial_list_0.8_green.csv,1.358436000009533,1.391715200006729,p8_high-01,001,2023-05-03_13h32.24.157,expectation_shapes_perceived_time,2022.2.4,119.83079891394101,
,-100,0.8,met,,green,red,,851.7104975765228,,,,,0,37,37,141,trial,,,,,,green,0.8517104975765228,0.85,2.3002352000039537,0.9984690999990562,3e-05,3e-05,,0.8501510999922175,0.883591299992986,2.000197899993509,,2.3002352000039537,2.3002352000039537,2.5001932000013767,3.4920095999987097,1.191774399994756,4.533391899996786,2.2331566999928327,1.0413822999980766,0.31557,0.12369687616228826,0.08093746218026268,,,,None,,-0.1,-0.1,0.7183804975765228,0.7166666666666667,trial_list_0.8_green.csv,0.716807599994354,0.7501958000066224,p8_high-01,001,2023-05-03_13h32.24.157,expectation_shapes_perceived_time,2022.2.4,119.83079891394101,
,167,0.8,met,,green,red,,257.98029441345375,,,,,0,38,38,206,trial,,,,,,green,0.25798029441345377,0.2583333333333333,2.3001170000061393,0.9988235000055283,2e-05,2e-05,0.0332,0.2582064000016544,0.29155789999640547,1.9998870999988867,2.0332693999953335,2.3001170000061393,2.3001170000061393,2.5001194000069518,3.7748333000054117,1.4747162999992725,6.783372999998392,4.483255999992252,3.00853969999298,0.41283,0.1423154567854,0.03997625190601124,,,,None,,0.167,0.16666666666666666,0.4583102944134537,0.4583333333333333,trial_list_0.8_green.csv,0.4581629000022076,0.49141919999965467,p8_high-01,001,2023-05-03_13h32.24.157,expectation_shapes_perceived_time,2022.2.4,119.83079891394101,
,-300,0.8,met,,green,red,,705.5168423423949,,,,,0,39,39,478,trial,,,,,,green,0.7055168423423949,0.7083333333333334,2.300178400008008,0.9980384999944363,1e-05,1e-05,0.0333,0.7084727000037674,0.7420796000078553,2.000611800001934,2.0335176000080537,2.300178400008008,2.300178400008008,2.4999937000102364,3.625279900006717,1.3251014999987092,4.300320499998634,2.000142099990626,0.6750405999919167,0.10559,0.048141225020021036,0.13976484683231913,,,,None,,-0.3,-0.3,0.37218684234239485,0.375,trial_list_0.8_green.csv,0.3753876999981003,0.4082904000097187,p8_high-01,001,2023-05-03_13h32.24.157,expectation_shapes_perceived_time,2022.2.4,119.83079891394101,
,233,0.1999999999999999,unmet,,red,green,,598.0053702209204,,,,,0,40,40,447,trial,,,,,,red,0.5980053702209205,0.6,2.300134600009187,0.9982306000019889,2e-05,2e-05,0.03367,0.6002672000031453,0.6336102000059327,2.0003596000024118,2.0335742000024766,2.300134600009187,2.300134600009187,2.5002963000006275,2.8585573000018485,0.5584226999926614,7.500858000013977,5.20072340000479,4.642300700012129,0.90154,0.04500034302685804,-0.1408075249550074,,,,None,,0.233,0.23333333333333334,0.8643353702209204,0.8666666666666667,trial_list_0.8_green.csv,0.8667341000109445,0.9000433000037447,p8_high-01,001,2023-05-03_13h32.24.157,expectation_shapes_perceived_time,2022.2.4,119.83079891394101,
,300,0.1999999999999999,unmet,,red,green,,911.9753132013304,,,,,0,41,41,155,trial,,,,,,red,0.9119753132013304,0.9083333333333333,2.3000635000062175,0.9971224000037182,1e-05,1e-05,0.03304,0.9080499999981839,0.9414817000069888,1.9997905000054743,2.033122099994216,2.3000635000062175,2.3000635000062175,2.5001025999954436,3.9331680000032065,1.633104499996989,4.824822499998845,2.5247589999926277,0.8916544999956386,1.23974,-0.10110257795243574,-0.10784274981593145,,,,None,,0.3,0.3,1.2453053132013303,1.2416666666666667,trial_list_0.8_green.csv,1.2415449999971315,1.2749994000041625,p8_high-01,001,2023-05-03_13h32.24.157,expectation_shapes_perceived_time,2022.2.4,119.83079891394101,
,-167,0.8,met,,green,red,,1282.2704838299333,,,,,0,42,42,302,trial,,,,,,green,1.2822704838299332,1.2833333333333332,2.299765900010243,0.9988621000084095,1e-05,1e-05,0.03322,1.2829078000067966,1.316549600000144,1.9995412999996915,2.032880099999602,2.299765900010243,2.299765900010243,2.4996572000090964,4.641557399998419,2.341791499988176,6.283065199997509,3.983299299987266,1.64150779999909,0.65498,0.1306446314349421,-0.06916480487732228,,,,None,,-0.167,-0.16666666666666666,1.0819404838299334,1.0833333333333333,trial_list_0.8_green.csv,1.0833075999980792,1.1164697000058368,p8_high-01,001,2023-05-03_13h32.24.157,expectation_shapes_perceived_time,2022.2.4,119.83079891394101,
,233,0.8,met,,green,red,,1070.8623924517674,,,,,0,43,43,322,trial,,,,,,green,1.0708623924517673,1.0666666666666667,2.299755700005335,0.998007799993502,5e-05,5e-05,0.03329,1.0667333000019426,1.0996464000054402,1.9999950000055833,2.0331392000080086,2.299755700005335,2.299755700005335,2.500129400010337,4.699763700002222,2.4000079999968875,6.408074700011639,4.108319000006304,1.7083110000094166,0.42362,0.14358777684362373,0.035133179440461126,,,,None,,0.233,0.23333333333333334,1.3371923924517672,1.3333333333333333,trial_list_0.8_green.csv,1.3330157000018517,1.3663277000014205,p8_high-01,001,2023-05-03_13h32.24.157,expectation_shapes_perceived_time,2022.2.4,119.83079891394101,
,-33,0.1999999999999999,unmet,,red,green,,1547.5368952517415,,,,,0,44,44,181,trial,,,,,,red,1.5475368952517414,1.5416666666666667,2.299859500009916,0.9976516000024276,1e-05,1e-05,0.0335,1.5419453000067733,1.5753010000044014,2.000035700009903,2.033219100005226,2.299859500009916,2.299859500009916,2.499901100003626,5.350224000008893,3.0503644999989774,6.866720999998506,4.56686149998859,1.516496999989613,0.85242,0.06610868317625139,-0.13221736635250278,,,,None,,-0.033,-0.03333333333333333,1.4812068952517417,1.475,trial_list_0.8_green.csv,1.4749728000024334,1.508393199997954,p8_high-01,001,2023-05-03_13h32.24.157,expectation_shapes_perceived_time,2022.2.4,119.83079891394101,
,167,0.8,met,,green,red,,595.8373461042937,,,,,0,45,45,49,trial,,,,,,green,0.5958373461042937,0.5916666666666667,2.300247200008016,0.9985935000004247,2e-05,2e-05,,0.591836699997657,0.6251671000063652,1.9999294000008376,,2.300247200008016,2.300247200008016,2.5002655999996932,4.066676900009043,1.7664297000010265,6.841682300000684,4.541435099992668,2.7750053999916418,1.29672,-0.11868900382345009,-0.08811759374771294,,,,None,,0.167,0.16666666666666666,0.7961673461042937,0.7916666666666666,trial_list_0.8_green.csv,0.7920697000081418,0.8249750000104541,p8_high-01,001,2023-05-03_13h32.24.157,expectation_shapes_perceived_time,2022.2.4,119.83079891394101,
,-233,0.8,met,,green,red,,1616.9962903944772,,,,,0,46,46,436,trial,,,,,,green,1.6169962903944772,1.6166666666666667,2.300461399994674,0.9984517999982927,1e-05,1e-05,0.03388,1.616780700001982,1.6501090999954613,2.000449300001492,2.03356189999613,2.300461399994674,2.300461399994674,2.500291100004688,4.633530899998732,2.3330695000040578,5.525235299995984,3.22477390000131,0.891704399997252,1.58656,-0.1423912982574978,0.03970526586026381,,,,None,,-0.233,-0.23333333333333334,1.3506662903944773,1.35,trial_list_0.8_green.csv,1.3504798999929335,1.3834321000031196,p8_high-01,001,2023-05-03_13h32.24.157,expectation_shapes_perceived_time,2022.2.4,119.83079891394101,
,-233,0.8,met,,green,red,,1832.8218245678224,,,,,0,47,47,427,trial,,,,,,green,1.8328218245678225,1.8333333333333333,2.2999228999979096,0.9974536999943666,1e-05,1e-05,0.03335,1.8332401000079699,1.86657969999942,2.000387599997339,2.0337624000094365,2.2999228999979096,2.2999228999979096,2.5003981000045314,5.525093500007642,3.225170600009733,22.85837660000834,20.558453700010432,17.3332831000007,1.45141,-0.14610457302245528,-0.022477626618839276,,,,None,,-0.233,-0.23333333333333334,1.5664918245678225,1.5666666666666667,trial_list_0.8_green.csv,1.5668992999999318,1.6003832999995211,p8_high-01,001,2023-05-03_13h32.24.157,expectation_shapes_perceived_time,2022.2.4,119.83079891394101,
,33,0.8,met,,green,red,,592.4436369844084,,,,,0,48,48,434,trial,,,,,,green,0.5924436369844084,0.5916666666666667,2.2999484999891138,0.9978553999972064,1e-05,1e-05,0.03325,0.5913441000011517,0.624716599995736,1.9999209999950835,2.03316310000082,2.2999484999891138,2.2999484999891138,2.5000419999996666,3.632963199997903,1.333014700008789,4.466699099997641,2.166750600008527,0.8337358999997377,0.5696,0.14430339715032942,-0.03206742158896209,,,,None,,0.033,0.03333333333333333,0.6587736369844084,0.6583333333333333,trial_list_0.8_green.csv,0.6582207000028575,0.6914882999990368,p8_high-01,001,2023-05-03_13h32.24.157,expectation_shapes_perceived_time,2022.2.4,119.83079891394101,
,-100,0.8,met,,green,red,,741.8796257522094,,,,,0,49,49,72,trial,,,,,,green,0.7418796257522094,0.7416666666666667,2.2996588999958476,0.9987204000062775,1e-05,1e-05,0.03317,0.7414550999965286,0.7746539999934612,1.9998372999980347,2.0329292999958852,2.2996588999958476,2.2996588999958476,2.499538699994446,3.441496900006314,1.1418380000104662,5.208118900001864,2.9084600000060163,1.7666219999955501,0.40264,0.14096193614427882,0.0445142956245091,,,,None,,-0.1,-0.1,0.6085496257522094,0.6083333333333333,trial_list_0.8_green.csv,0.6079965999961132,0.6411725000070874,p8_high-01,001,2023-05-03_13h32.24.157,expectation_shapes_perceived_time,2022.2.4,119.83079891394101,
,-33,0.8,met,,green,red,,1330.3664206856995,0,0,0,0,0,50,50,381,fam,0.5406438000063645,0.5406438000063645,270.0,2.540586600007373,2.540586600007373,,,,,,,,,,,,,,,,,,,,,,,,,,,,,,,,,,,,p8_high-01,001,2023-05-03_13h32.24.157,expectation_shapes_perceived_time,2022.2.4,119.83079891394101,
,-33,0.8,met,,green,red,,1330.3664206856995,1,0,1,0,0,50,50,381,fam,0.49820859999454115,0.49820859999454115,270.0,2.498384599995916,2.498384599995916,,,,,,,,,,,,,,,,,,,,,,,,,,,,,,,,,,,,p8_high-01,001,2023-05-03_13h32.24.157,expectation_shapes_perceived_time,2022.2.4,119.83079891394101,
,-33,0.8,met,,green,red,,1330.3664206856995,2,0,2,0,0,50,50,381,fam,0.49880380000104196,0.49880380000104196,270.0,2.4985874999983935,2.4985874999983935,,,,,,,,,,,,,,,,,,,,,,,,,,,,,,,,,,,,p8_high-01,001,2023-05-03_13h32.24.157,expectation_shapes_perceived_time,2022.2.4,119.83079891394101,
,-33,0.8,met,,green,red,,1330.3664206856995,3,0,3,0,0,50,50,381,fam,0.49856210000871215,0.49856210000871215,270.0,2.4981357000069693,2.4981357000069693,,,,,,,,,,,,,,,,,,,,,,,,,,,,,,,,,,,,p8_high-01,001,2023-05-03_13h32.24.157,expectation_shapes_perceived_time,2022.2.4,119.83079891394101,
,-33,0.8,met,,green,red,,1330.3664206856995,,,,,0,50,50,381,trial,,,,,,green,1.3303664206856995,1.325,2.299924499995541,0.9986606000020402,2e-05,2e-05,0.03351,1.3249995999940438,1.3586087000003317,2.000074899988249,,2.299924499995541,2.299924499995541,2.5002064000000246,3.8250375999923563,1.5251130999968154,4.966877599988948,2.666953099993407,1.1418399999965914,1.3858,-0.13841146506154872,-0.051904299398080764,,,,None,,-0.033,-0.03333333333333333,1.2640364206856995,1.2583333333333333,trial_list_0.8_green.csv,1.258204099998693,1.2918267999921227,p8_high-01,001,2023-05-03_13h32.24.157,expectation_shapes_perceived_time,2022.2.4,119.83079891394101,
,-33,0.8,met,,green,red,,654.0272389303068,,,,,0,51,51,42,trial,,,,,,green,0.6540272389303068,0.65,2.3001095999934478,0.9984975999977905,1e-05,1e-05,0.03367,0.6504191999993054,0.6834353000012925,1.9999954999948386,2.0333485000010114,2.3001095999934478,2.3001095999934478,2.5002556999970693,3.316718400004902,1.0166088000114542,4.291771399992285,1.9916617999988375,0.9750529999873834,0.83907,0.07159327352691683,-0.12932978443572074,,,,None,,-0.033,-0.03333333333333333,0.5876972389303068,0.5833333333333334,trial_list_0.8_green.csv,0.583549499991932,0.616708400004427,p8_high-01,001,2023-05-03_13h32.24.157,expectation_shapes_perceived_time,2022.2.4,119.83079891394101,
,-100,0.8,met,,green,red,,831.2719314052513,,,,,0,52,52,297,trial,,,,,,green,0.8312719314052512,0.8333333333333334,2.2997859999886714,0.998737899994012,1e-05,1e-05,0.03313,0.8332234999979846,0.86663389999012,2.000180499991984,2.0334672999888426,2.2997859999886714,2.2997859999886714,2.4997082999907434,2.2997859999886714,0.0,4.008164499988197,1.708378499999526,1.708378499999526,1.03522,-0.016324375742178574,-0.14691938167960716,,,,None,,-0.1,-0.1,0.6979419314052513,0.7,trial_list_0.8_green.csv,0.6997539999865694,0.733427599989227,p8_high-01,001,2023-05-03_13h32.24.157,expectation_shapes_perceived_time,2022.2.4,119.83079891394101,
,167,0.8,met,,green,red,,292.97782228428576,,,,,0,53,53,425,trial,,,,,,green,0.29297782228428576,0.2916666666666667,2.3000284000008833,0.9973405999917304,4e-05,4e-05,0.03314,0.29141140000137966,0.3250241000059759,2.000086200001533,2.0332083999965107,2.3000284000008833,2.3000284000008833,2.499856499998714,2.6081209999974817,0.30809259999659844,5.1083517000079155,2.8083233000070322,2.500230700010434,0.74184,0.10717196064863221,-0.1018133626162006,,,,None,,0.167,0.16666666666666666,0.49330782228428577,0.49166666666666664,trial_list_0.8_green.csv,0.4913809999998193,0.52477760000329,p8_high-01,001,2023-05-03_13h32.24.157,expectation_shapes_perceived_time,2022.2.4,119.83079891394101,
,100,0.8,met,,green,red,,368.4798186352342,,,,,0,54,54,352,trial,,,,,,green,0.3684798186352342,0.36666666666666664,2.300080100001651,0.9986223000014434,1e-05,1e-05,0.03307,0.3667433000082383,0.4001554999995278,1.9998341000027722,2.033394700003555,2.300080100001651,2.300080100001651,2.5001072000013664,2.8081082999997307,0.5080281999980798,5.683099200003198,3.3830191000015475,2.8749909000034677,0.90668,0.042721673037229874,-0.14151554193582397,,,,None,,0.1,0.1,0.5018098186352342,0.5,trial_list_0.8_green.csv,0.4997778999968432,0.5331041000026744,p8_high-01,001,2023-05-03_13h32.24.157,expectation_shapes_perceived_time,2022.2.4,119.83079891394101,
,300,0.8,met,,green,red,,376.9413284537205,,,,,0,55,55,301,trial,,,,,,green,0.37694132845372047,0.375,2.300063999995473,0.9908037999994121,1e-05,1e-05,0.03291,0.3746053000068059,0.408263999997871,1.9995823000062956,2.0332922999950824,2.300063999995473,2.300063999995473,2.499616600005538,2.866512900000089,0.566448900004616,5.383353700002772,3.083289700007299,2.516840800002683,0.40475,0.14125407702679466,0.04357838546571324,,,,None,,0.3,0.3,0.7102713284537204,0.7083333333333334,trial_list_0.8_green.csv,0.7080291000020225,0.7416243000043323,p8_high-01,001,2023-05-03_13h32.24.157,expectation_shapes_perceived_time,2022.2.4,119.83079891394101,
,-100,0.8,met,,green,red,,1600.7795214461944,,,,,0,56,56,144,trial,,,,,,green,1.6007795214461944,1.6,2.300071999998181,0.9979965999955311,2e-05,2e-05,,1.5999813999951584,1.6334209999913583,2.000176099987584,,2.300071999998181,2.300071999998181,2.4999797999917064,5.225009099987801,2.92493709998962,6.4084121999912895,4.108340199993108,1.1834031000034884,0.75909,0.10149910033775127,-0.10746963565173664,,,,None,,-0.1,-0.1,1.4674495214461944,1.4666666666666666,trial_list_0.8_green.csv,1.466632199997548,1.500471599996672,p8_high-01,001,2023-05-03_13h32.24.157,expectation_shapes_perceived_time,2022.2.4,119.83079891394101,
,-33,0.8,met,,green,red,,359.64045938880497,,,,,0,57,57,51,trial,,,,,,green,0.35964045938880496,0.35833333333333334,2.2999988999945344,0.9987232999992557,1e-05,1e-05,,0.3588432999968063,0.39225839999562595,1.9998511999874609,,2.2999988999945344,2.2999988999945344,2.500181799987331,6.033439999999246,3.733441100004711,7.20843739999691,4.908438500002376,1.1749973999976646,1.63146,-0.1353946541598458,0.05933024171049424,,,,None,,-0.033,-0.03333333333333333,0.293310459388805,0.2916666666666667,trial_list_0.8_green.csv,0.2915500999952201,0.3248996999900555,p8_high-01,001,2023-05-03_13h32.24.157,expectation_shapes_perceived_time,2022.2.4,119.83079891394101,
,100,0.1999999999999999,unmet,,red,green,,1697.7894332761962,,,,,0,58,58,273,trial,,,,,,red,1.6977894332761962,1.6916666666666667,2.3006355999968946,0.9985053999989759,1e-05,1e-05,0.03328,1.691771500001778,1.7252998000039952,1.9999202000035439,2.0333114999957616,2.3006355999968946,2.3006355999968946,2.5005944000004092,4.724954899997101,2.4243193000002066,6.541615599999204,4.24098000000231,1.8166607000021031,1.31179,-0.12272620121700555,-0.08240187795998943,,,,None,,0.1,0.1,1.8311194332761962,1.825,trial_list_0.8_green.csv,1.8251040000031935,1.8584684999950696,p8_high-01,001,2023-05-03_13h32.24.157,expectation_shapes_perceived_time,2022.2.4,119.83079891394101,
,-233,0.8,met,,green,red,,1596.822850227017,,,,,0,59,59,355,trial,,,,,,green,1.596822850227017,1.5916666666666666,2.2997272000066005,0.9988683999981731,5e-05,5e-05,,1.5916703999973834,1.624731999996584,1.9998380000033649,,2.2997272000066005,2.2997272000066005,2.499648500001058,6.26635210000677,3.96662490000017,9.341384200000903,7.041656999994302,3.0750320999941323,1.21852,-0.09369388273971674,-0.11433829758067127,,,,None,,-0.233,-0.23333333333333334,1.330492850227017,1.325,trial_list_0.8_green.csv,1.325001000004704,1.3580622000008589,p8_high-01,001,2023-05-03_13h32.24.157,expectation_shapes_perceived_time,2022.2.4,119.83079891394101,
,233,0.1999999999999999,unmet,,red,green,,1082.2425224044596,,,,,0,60,60,312,trial,,,,,,red,1.0822425224044596,1.0833333333333333,2.299779299995862,0.9983939999947324,2e-05,2e-05,,1.0833860999991884,1.1164728000003379,1.9997686999995494,,2.299779299995862,2.299779299995862,2.499853000001167,5.341695199997048,3.041915900001186,6.274892100002035,3.9751128000061726,0.9331969000049867,0.91688,0.03816521851493357,-0.14281178541071915,,,,None,,0.233,0.23333333333333334,1.3485725224044596,1.35,trial_list_0.8_green.csv,1.3497186000022339,1.3831823999935295,p8_high-01,001,2023-05-03_13h32.24.157,expectation_shapes_perceived_time,2022.2.4,119.83079891394101,
,-33,0.8,met,,green,red,,988.1926572680712,,,,,0,61,61,411,trial,,,,,,green,0.9881926572680713,0.9833333333333333,2.3002567999938037,0.9982878000009805,1e-05,1e-05,0.03339,0.9836431000003358,1.0170933999906993,1.9999854999914533,2.033732299998519,2.3002567999938037,2.3002567999938037,2.500059899990447,2.3002567999938037,0.0,4.116639899992151,1.8163830999983475,1.8163830999983475,0.56223,0.14500783390492428,-0.028714422555430545,,,,None,,-0.033,-0.03333333333333333,0.9218626572680712,0.9166666666666666,trial_list_0.8_green.csv,0.916698400003952,0.9500926999899093,p8_high-01,001,2023-05-03_13h32.24.157,expectation_shapes_perceived_time,2022.2.4,119.83079891394101,
