id,delay,expectation,congruency,trial_num,stim_color,distractor_color,block,targetTimeMs,famLoop.thisRepN,famLoop.thisTrialN,famLoop.thisN,famLoop.thisIndex,trialss.thisRepN,trialss.thisTrialN,trialss.thisN,trialss.thisIndex,isTrial,handMove.started,audioCue2Start.started,handOri,handMove.ended,audioCue2End.started,target_color,expected_target_onset,expected_target_onset_in_frames,fixationPoint.started,fixationPoint.stopped,audCueStart.started,placeholder.started,audCueStart.stopped,target.started,target.stopped,audCueEnd.started,audCueEnd.stopped,responsePointer.started,cueForRep.started,space2pass.started,responseStarted,rtUntillMotionTreshold,responsePointer.stopped,rTAfterMotionTreshold,rtDurationBtwRespMotion,perceivedTime,resp_x_coord,resp_y_coord,feedbackPointer.stopped,actualTime_x_coord,actualTime_y_coord,space2pass.keys,space2pass.rt,expected_delay,expected_delays_frame,expected_distractor,expected_distractor_frame,expBlockFiles,distractor.started,distractor.stopped,participant,session,date,expName,psychopyVersion,frameRate,
,,,,,,,,,0,0,0,0,,,,,fam,1.1651355999929365,1.1651355999929365,270.0,3.164955899992492,3.164955899992492,,,,,,,,,,,,,,,,,,,,,,,,,,,,,,,,,,,,p9_base2_01,001,2023-05-03_16h03.26.394,expectation_shapes_perceived_time,2022.2.4,119.80667994761953,
,,,,,,,,,1,0,1,0,,,,,fam,0.4982198000070639,0.4982198000070639,270.0,2.4982434999983525,2.4982434999983525,,,,,,,,,,,,,,,,,,,,,,,,,,,,,,,,,,,,p9_base2_01,001,2023-05-03_16h03.26.394,expectation_shapes_perceived_time,2022.2.4,119.80667994761953,
,,,,,,,,,2,0,2,0,,,,,fam,0.4949883000081172,0.4949883000081172,270.0,2.4952828999958,2.4952828999958,,,,,,,,,,,,,,,,,,,,,,,,,,,,,,,,,,,,p9_base2_01,001,2023-05-03_16h03.26.394,expectation_shapes_perceived_time,2022.2.4,119.80667994761953,
,,,,,,,,,3,0,3,0,,,,,fam,0.49898999999277294,0.49898999999277294,270.0,2.498491499994998,2.498491499994998,,,,,,,,,,,,,,,,,,,,,,,,,,,,,,,,,,,,p9_base2_01,001,2023-05-03_16h03.26.394,expectation_shapes_perceived_time,2022.2.4,119.80667994761953,
,,,,,,,,,4,0,4,0,,,,,fam,0.49892759999784175,0.49892759999784175,270.0,2.4989666000037687,2.4989666000037687,,,,,,,,,,,,,,,,,,,,,,,,,,,,,,,,,,,,p9_base2_01,001,2023-05-03_16h03.26.394,expectation_shapes_perceived_time,2022.2.4,119.80667994761953,
,,,,,,,,,5,0,5,0,,,,,fam,0.4993034999934025,0.4993034999934025,270.0,2.499185299995588,2.499185299995588,,,,,,,,,,,,,,,,,,,,,,,,,,,,,,,,,,,,p9_base2_01,001,2023-05-03_16h03.26.394,expectation_shapes_perceived_time,2022.2.4,119.80667994761953,
,,,,,,,,,6,0,6,0,,,,,fam,0.4990126000047894,0.4990126000047894,270.0,2.498538699990604,2.498538699990604,,,,,,,,,,,,,,,,,,,,,,,,,,,,,,,,,,,,p9_base2_01,001,2023-05-03_16h03.26.394,expectation_shapes_perceived_time,2022.2.4,119.80667994761953,
,,,,,,,,,7,0,7,0,,,,,fam,0.49862600000051316,0.49862600000051316,270.0,2.4982716999948025,2.4982716999948025,,,,,,,,,,,,,,,,,,,,,,,,,,,,,,,,,,,,p9_base2_01,001,2023-05-03_16h03.26.394,expectation_shapes_perceived_time,2022.2.4,119.80667994761953,
,,,,,,,,,8,0,8,0,,,,,fam,0.4986707999923965,0.4986707999923965,270.0,2.498906099994201,2.498906099994201,,,,,,,,,,,,,,,,,,,,,,,,,,,,,,,,,,,,p9_base2_01,001,2023-05-03_16h03.26.394,expectation_shapes_perceived_time,2022.2.4,119.80667994761953,
,,,,,,,,,9,0,9,0,,,,,fam,0.4981089999928372,0.4981089999928372,270.0,2.4986094999912893,2.4986094999912893,,,,,,,,,,,,,,,,,,,,,,,,,,,,,,,,,,,,p9_base2_01,001,2023-05-03_16h03.26.394,expectation_shapes_perceived_time,2022.2.4,119.80667994761953,
,,,,,,,,,10,0,10,0,,,,,fam,0.4985062000050675,0.4985062000050675,270.0,2.498347200002172,2.498347200002172,,,,,,,,,,,,,,,,,,,,,,,,,,,,,,,,,,,,p9_base2_01,001,2023-05-03_16h03.26.394,expectation_shapes_perceived_time,2022.2.4,119.80667994761953,
,,,,,,,,,11,0,11,0,,,,,fam,0.4989027999981772,0.4989027999981772,270.0,2.4983901000086917,2.4983901000086917,,,,,,,,,,,,,,,,,,,,,,,,,,,,,,,,,,,,p9_base2_01,001,2023-05-03_16h03.26.394,expectation_shapes_perceived_time,2022.2.4,119.80667994761953,
,,,,,,,,,12,0,12,0,,,,,fam,0.4985125999955926,0.4985125999955926,270.0,2.4984016999951564,2.4984016999951564,,,,,,,,,,,,,,,,,,,,,,,,,,,,,,,,,,,,p9_base2_01,001,2023-05-03_16h03.26.394,expectation_shapes_perceived_time,2022.2.4,119.80667994761953,
,,,,,,,,,13,0,13,0,,,,,fam,0.4991379999992205,0.4991379999992205,270.0,2.4988776999962283,2.4988776999962283,,,,,,,,,,,,,,,,,,,,,,,,,,,,,,,,,,,,p9_base2_01,001,2023-05-03_16h03.26.394,expectation_shapes_perceived_time,2022.2.4,119.80667994761953,
,,,,,,,,,14,0,14,0,,,,,fam,0.4988735000079032,0.4988735000079032,270.0,2.498897900004522,2.498897900004522,,,,,,,,,,,,,,,,,,,,,,,,,,,,,,,,,,,,p9_base2_01,001,2023-05-03_16h03.26.394,expectation_shapes_perceived_time,2022.2.4,119.80667994761953,
,,,,,,,,,15,0,15,0,,,,,fam,0.49912560000666417,0.49912560000666417,270.0,2.499525100007304,2.499525100007304,,,,,,,,,,,,,,,,,,,,,,,,,,,,,,,,,,,,p9_base2_01,001,2023-05-03_16h03.26.394,expectation_shapes_perceived_time,2022.2.4,119.80667994761953,
,,,,,,,,,16,0,16,0,,,,,fam,0.49863089999416843,0.49863089999416843,270.0,2.498498999993899,2.498498999993899,,,,,,,,,,,,,,,,,,,,,,,,,,,,,,,,,,,,p9_base2_01,001,2023-05-03_16h03.26.394,expectation_shapes_perceived_time,2022.2.4,119.80667994761953,
,,,,,,,,,17,0,17,0,,,,,fam,0.498612299998058,0.498612299998058,270.0,2.4989013000013074,2.4989013000013074,,,,,,,,,,,,,,,,,,,,,,,,,,,,,,,,,,,,p9_base2_01,001,2023-05-03_16h03.26.394,expectation_shapes_perceived_time,2022.2.4,119.80667994761953,
,,,,,,,,,18,0,18,0,,,,,fam,0.49866080000356305,0.49866080000356305,270.0,2.4990956999972695,2.4990956999972695,,,,,,,,,,,,,,,,,,,,,,,,,,,,,,,,,,,,p9_base2_01,001,2023-05-03_16h03.26.394,expectation_shapes_perceived_time,2022.2.4,119.80667994761953,
,,,,,,,,,19,0,19,0,,,,,fam,0.4983167000027606,0.4983167000027606,270.0,2.498607000001357,2.498607000001357,,,,,,,,,,,,,,,,,,,,,,,,,,,,,,,,,,,,p9_base2_01,001,2023-05-03_16h03.26.394,expectation_shapes_perceived_time,2022.2.4,119.80667994761953,
,,,,,,,,,,,,,0,0,0,0,test,,,,,,green,0.8653620820778813,0.8739495798319328,2.2994463999930304,0.9990604999911739,1.4099990949034691e-05,1e-05,0.03293989998928737,0.8665431999979774,0.89961979999498,1.9996045999869239,2.0329171999910614,2.2994463999930304,2.2994463999930304,2.6000260999862803,4.533354099999997,2.2339077000069665,15.525009299992234,13.225562899999204,10.991655199992238,1.056,-0.02587404181481933,-0.14554148520835872,15.525009299992234,0.06067820365977825,-0.13479594043261242,space,12.91687620000448,,,,,,,,p9_base2_01,001,2023-05-03_16h03.26.394,expectation_shapes_perceived_time,2022.2.4,119.80667994761953,
,,,,,,,,,,,,,1,0,1,0,test,,,,,,green,0.9395369656723113,0.9495798319327731,2.2994735999964178,0.9984789000009187,1.3199998647905886e-05,1e-05,0.03349980000348296,0.9410881999938283,0.9744183000002522,1.9999735000019427,2.0328850999940187,2.2994735999964178,2.2994735999964178,2.5997936999920057,2.2994735999964178,0.0,16.024446099996567,13.724972500000149,13.724972500000149,0.52674,0.14730214201675526,-0.01240439090667413,16.024446099996567,0.02791055903571421,-0.1451647018073052,space,13.422564099993906,,,,,,,,p9_base2_01,001,2023-05-03_16h03.26.394,expectation_shapes_perceived_time,2022.2.4,119.80667994761953,
,,,,,,,,,,,,,2,0,2,0,test,,,,,,green,1.7777489747288053,1.7899159663865545,2.3001507000008132,0.9988378999987617,2.8399997972883284e-05,3e-05,0.03321789999608882,1.775147599997581,1.8085106999933487,2.0001271999935852,2.033478700002888,2.3001507000008132,2.3001507000008132,2.5998735000030138,2.6830902000074275,0.38293950000661425,8.391965699993307,6.0918149999924935,5.708875499985879,1.10458,-0.04769879242498272,-0.1399164577799493,8.391965699993307,-0.09502936667059975,0.11323077950219466,space,5.790853099999367,,,,,,,,p9_base2_01,001,2023-05-03_16h03.26.394,expectation_shapes_perceived_time,2022.2.4,119.80667994761953,
,,,,,,,,,,,,,3,0,3,0,test,,,,,,red,1.8266956594850055,1.8403361344537814,2.299952999994275,0.998228399999789,2.409999433439225e-05,2e-05,,1.8249947000003885,1.858301800006302,1.999804499995662,,2.299952999994275,2.299952999994275,2.599904400005471,2.933312900000601,0.6333599000063259,10.441360700002406,8.14140770000813,7.508047800001805,1.54472,-0.14636723112179056,0.02069839632025321,10.441360700002406,-0.07656505333400669,0.1264499211721804,space,7.839563900008216,,,,,,,,p9_base2_01,001,2023-05-03_16h03.26.394,expectation_shapes_perceived_time,2022.2.4,119.80667994761953,
,,,,,,,,,,,,,4,0,4,0,test,,,,,,red,1.3124948435993948,1.319327731092437,2.300190099995234,0.9983363999926951,1.4199991710484028e-05,1e-05,,1.3084888000012143,1.342050899998867,2.000155100002303,,2.300190099995234,2.300190099995234,2.600149499994586,3.8252562999987276,1.5250662000034936,31.175014299995382,28.87482420000015,27.349757999996655,0.58859,0.14213584439422905,-0.04061024125549402,31.175014299995382,-0.12290942571455828,-0.08212833266910641,space,28.57222639999236,,,,,,,,p9_base2_01,001,2023-05-03_16h03.26.394,expectation_shapes_perceived_time,2022.2.4,119.80667994761953,
,,,,,,,,,,,,,5,0,5,0,test,,,,,,green,0.2180675767117665,0.2184873949579832,2.2997348999924725,0.9990010000037728,1.4399993233382702e-05,1e-05,0.03338949999306351,0.21646709999185987,0.24974239998846315,1.9997236999915913,2.033035300002666,2.2997348999924725,2.2997348999924725,2.599851299994043,2.7997629000019515,0.500028000009479,8.691721999988658,6.391987099996186,5.891959099986707,0.16037,0.07136630917779864,0.12945516548530916,8.691721999988658,0.09353304522667422,0.1144699061199704,space,6.085132000007434,,,,,,,,p9_base2_01,001,2023-05-03_16h03.26.394,expectation_shapes_perceived_time,2022.2.4,119.80667994761953,
,,,,,,,,,,,,,6,0,6,0,test,,,,,,red,0.6286335655490757,0.6302521008403361,2.2997245000005933,0.9985962000064319,1.3999990187585354e-05,1e-05,0.03334259999974165,0.6247300999966683,0.6581988999969326,1.999680900000385,2.0331203999958234,2.2997245000005933,2.2997245000005933,2.5995760999940103,2.2997245000005933,0.0,6.9080152999958955,4.608290799995302,4.608290799995302,0.65498,0.13064463143494212,-0.0691648048773223,6.9080152999958955,0.13591647849480107,-0.0581248727315785,space,4.305366700005834,,,,,,,,p9_base2_01,001,2023-05-03_16h03.26.394,expectation_shapes_perceived_time,2022.2.4,119.80667994761953,
,,,,,,,,,,,,,7,0,7,0,test,,,,,,red,0.9342194672441921,0.9411764705882353,2.300047899989295,0.998110300002736,1.4899997040629387e-05,1e-05,0.033305499993730336,0.933235299991793,0.9665746999962721,1.999803200000315,2.0333890999900177,2.300047899989295,2.300047899989295,2.600096099995426,2.3166170999902533,0.016569200000958517,4.2913707999978215,1.9913229000085266,1.9747537000075681,0.73157,0.11040118890592446,-0.09830242847787793,4.2913707999978215,0.030331588264691477,-0.14467821090209526,space,1.6852128000027733,,,,,,,,p9_base2_01,001,2023-05-03_16h03.26.394,expectation_shapes_perceived_time,2022.2.4,119.80667994761953,
,,,,,,,,,,,,,8,0,8,0,test,,,,,,red,1.4099492417984614,1.4201680672268906,2.300248100000317,0.9984387000004062,2.4599998141638935e-05,2e-05,0.03343329999188427,1.4083486999879824,1.4419590999896172,1.999955899998895,2.0331986999954097,2.300248100000317,2.300248100000317,2.5999855999980355,2.300248100000317,0.0,5.02518249998684,2.724934399986523,2.724934399986523,1.15785,-0.07033717320177232,-0.13001719894873065,5.02518249998684,-0.14194740452194143,-0.041264080093638945,space,2.4253051999985473,,,,,,,,p9_base2_01,001,2023-05-03_16h03.26.394,expectation_shapes_perceived_time,2022.2.4,119.80667994761953,
,,,,,,,,,,,,,9,0,9,0,test,,,,,,green,1.535989866281483,1.5462184873949578,2.3012468999950215,0.998244699992938,1.4099990949034691e-05,1e-05,0.03323989998898469,1.5333500999986427,1.5668262999970466,1.9997483999904944,2.03304449999996,2.3012468999950215,2.3012468999950215,2.6004591999953846,2.3421153999952367,0.040868500000215136,4.008892299985746,1.7076453999907244,1.6667768999905093,1.72664,-0.11191069629277532,0.09658046392390197,4.008892299985746,-0.14687964202545611,0.016678150825669744,space,1.4080620000022464,,,,,,,,p9_base2_01,001,2023-05-03_16h03.26.394,expectation_shapes_perceived_time,2022.2.4,119.80667994761953,
,,,,,,,,,,,,,10,0,10,0,test,,,,,,red,1.8478177763347516,1.857142857142857,2.2996146000077715,0.9983031000010669,1.410000550094992e-05,1e-05,,1.8411759000009624,1.8746125000034226,1.999475300006452,,2.2996146000077715,2.2996146000077715,2.599586800002726,2.433020900003612,0.13340629999584053,4.191318800003501,1.8917041999957291,1.7582978999998886,1.79085,-0.09029111021903573,0.1170440317654167,4.191318800003501,-0.06801185520591374,0.13124853335538553,space,1.5841016999911517,,,,,,,,p9_base2_01,001,2023-05-03_16h03.26.394,expectation_shapes_perceived_time,2022.2.4,119.80667994761953,
,,,,,,,,,,,,,11,0,11,0,test,,,,,,red,1.817576885406404,1.8319327731092436,2.3001565000013215,0.9983642000006512,1.2200005585327744e-05,1e-05,0.03345800000533927,1.8166927999991458,1.849831900006393,1.9998871999996481,2.033519000004162,2.3001565000013215,2.3001565000013215,2.600208300005761,2.408364300004905,0.10820780000358354,4.133381599996937,1.833225099995616,1.7250172999920323,1.95951,-0.018754863977281815,0.14662893654965783,4.133381599996937,-0.08015561319046965,0.12420494205364667,space,1.5289317999995546,,,,,,,,p9_base2_01,001,2023-05-03_16h03.26.394,expectation_shapes_perceived_time,2022.2.4,119.80667994761953,
,,,,,,,,,,,,,12,0,12,0,test,,,,,,green,0.615036552168899,0.6218487394957983,2.299862799991388,0.9988159000058658,1.4899997040629387e-05,1e-05,0.033414699995773844,0.6167744999984279,0.6501857999974163,2.0001794999989215,2.033117899991339,2.299862799991388,2.299862799991388,2.5998299999919254,2.299862799991388,0.0,3.9336168999871006,1.6337540999957127,1.6337540999957127,0.3735,0.13630264307727974,0.05721345511885817,3.9336168999871006,0.13827461846188163,-0.052267770621205877,space,1.3310677999979816,,,,,,,,p9_base2_01,001,2023-05-03_16h03.26.394,expectation_shapes_perceived_time,2022.2.4,119.80667994761953,
,,,,,,,,,,,,,13,0,13,0,test,,,,,,green,1.8222033311190688,1.8319327731092436,2.299727100005839,0.9982243999984348,1.410000550094992e-05,1e-05,,1.8163976000068942,1.8496962000062922,1.9997408000053838,,2.299727100005839,2.299727100005839,2.5997007000114536,2.299727100005839,0.0,4.441414900007658,2.1416878000018187,2.1416878000018187,1.35977,-0.133710154966975,-0.06303478734157394,4.441414900007658,-0.07834196521475181,0.1253567965559927,space,1.837660400007735,,,,,,,,p9_base2_01,001,2023-05-03_16h03.26.394,expectation_shapes_perceived_time,2022.2.4,119.80667994761953,
,,,,,,,,,,,,,14,0,14,0,test,,,,,,red,1.5125299396703955,1.5210084033613445,2.299846800000523,0.9986364000069443,3.539999306667596e-05,4e-05,,1.5082122000021627,1.541747099996428,1.9999446000001626,,2.299846800000523,2.299846800000523,2.599981999999727,2.299846800000523,0.0,3.8666555999952834,1.5668087999947602,1.5668087999947602,1.71965,-0.11400489415152448,0.09409927771236941,3.8666555999952834,-0.14770899639384455,0.005817417022454776,space,1.2606362000078661,,,,,,,,p9_base2_01,001,2023-05-03_16h03.26.394,expectation_shapes_perceived_time,2022.2.4,119.80667994761953,
,,,,,,,,,,,,,15,0,15,0,test,,,,,,red,1.102981723554651,1.1092436974789917,2.3000965999963228,0.9978437000099802,2.2799998987466097e-05,2e-05,0.03349940000043716,1.0999661999958334,1.1333452999970177,2.0000102000049083,2.033320400005323,2.3000965999963228,2.3000965999963228,2.5999972999998135,2.3000965999963228,0.0,4.033269199993811,1.7331725999974879,1.7331725999974879,0.95579,0.020464531832568172,-0.14640011234068,4.033269199993811,-0.046994896521198544,-0.14015444929595267,space,1.4331735000014305,,,,,,,,p9_base2_01,001,2023-05-03_16h03.26.394,expectation_shapes_perceived_time,2022.2.4,119.80667994761953,
,,,,,,,,,,,,,16,0,16,0,test,,,,,,green,1.2539245697974453,1.2605042016806722,2.300249400010216,0.9989211999927647,1.3500000932253897e-05,1e-05,,1.2497693000041181,1.2834621000074549,2.0003281000099378,,2.300249400010216,2.300249400010216,2.600024500003201,2.300249400010216,0.0,7.375316300007398,5.075066899997182,5.075066899997182,1.06831,-0.031478966891732345,-0.14443290691500724,7.375316300007398,-0.10580778386624459,-0.1032303387081724,space,4.7756125000014435,,,,,,,,p9_base2_01,001,2023-05-03_16h03.26.394,expectation_shapes_perceived_time,2022.2.4,119.80667994761953,
,,,,,,,,,,,,,17,0,17,0,test,,,,,,red,1.1928736122752186,1.2016806722689075,2.299696000001859,0.9982137999904808,1.379998866468668e-05,1e-05,0.033218899989151396,1.1913380999903893,1.2248171999963233,1.9999594999972032,2.033199899989995,2.299696000001859,2.299696000001859,2.6000047999987146,2.299696000001859,0.0,3.799377599993022,1.4996815999911632,1.4996815999911632,0.94633,0.02480468851781978,-0.14572754504219118,3.799377599993022,-0.08418948328058669,-0.12150687577844202,space,1.1926607999921544,,,,,,,,p9_base2_01,001,2023-05-03_16h03.26.394,expectation_shapes_perceived_time,2022.2.4,119.80667994761953,
,,,,,,,,,,,,,18,0,18,0,test,,,,,,red,1.7734560420859449,1.7815126050420167,2.2998904999985825,0.9988755000085803,1.7099999240599573e-05,2e-05,0.033063499999116175,1.7665484000026481,1.7998855999903753,1.999711299999035,2.0336756999895442,2.2998904999985825,2.2998904999985825,2.600352399997064,2.308280899989768,0.008390399991185404,3.816689100000076,1.5167986000014935,1.508408200010308,1.22942,-0.09755479328898886,-0.11106238005207962,3.816689100000076,-0.09654778148088718,0.11193889336423146,space,1.2160843000019668,,,,,,,,p9_base2_01,001,2023-05-03_16h03.26.394,expectation_shapes_perceived_time,2022.2.4,119.80667994761953,
,,,,,,,,,,,,,19,0,19,0,test,,,,,,red,0.5507416744572503,0.5546218487394958,2.2999333000043407,0.997258100003819,1.4000004739500582e-05,1e-05,0.03329920000396669,0.5499849000043469,0.5837017000012565,1.9999933000071906,2.033631099999184,2.2999333000043407,2.2999333000043407,2.600204600006691,2.2999333000043407,0.0,3.7332366000046022,1.4333033000002615,1.4333033000002615,0.85999,0.06294281223863521,-0.13375347600709983,3.7332366000046022,0.14594927906662536,-0.023464822531232426,space,1.1276441999943927,,,,,,,,p9_base2_01,001,2023-05-03_16h03.26.394,expectation_shapes_perceived_time,2022.2.4,119.80667994761953,
,,,,,,,,,0,0,0,0,,,,,fam,0.5647623999975622,0.5647623999975622,270.0,2.564100099989446,2.564100099989446,,,,,,,,,,,,,,,,,,,,,,,,,,,,,,,,,,,,p9_base2_01,001,2023-05-03_16h03.26.394,expectation_shapes_perceived_time,2022.2.4,119.80667994761953,
,,,,,,,,,1,0,1,0,,,,,fam,0.4978856999950949,0.4978856999950949,270.0,2.497714699988137,2.497714699988137,,,,,,,,,,,,,,,,,,,,,,,,,,,,,,,,,,,,p9_base2_01,001,2023-05-03_16h03.26.394,expectation_shapes_perceived_time,2022.2.4,119.80667994761953,
,,,,,,,,,2,0,2,0,,,,,fam,0.49761609999404754,0.49761609999404754,270.0,2.497387899988098,2.497387899988098,,,,,,,,,,,,,,,,,,,,,,,,,,,,,,,,,,,,p9_base2_01,001,2023-05-03_16h03.26.394,expectation_shapes_perceived_time,2022.2.4,119.80667994761953,
,,,,,,,,,3,0,3,0,,,,,fam,0.4977668000065023,0.4977668000065023,270.0,2.497512000001734,2.497512000001734,,,,,,,,,,,,,,,,,,,,,,,,,,,,,,,,,,,,p9_base2_01,001,2023-05-03_16h03.26.394,expectation_shapes_perceived_time,2022.2.4,119.80667994761953,
,,,,,,,,,4,0,4,0,,,,,fam,0.49881200000527315,0.49881200000527315,270.0,2.498864599998342,2.498864599998342,,,,,,,,,,,,,,,,,,,,,,,,,,,,,,,,,,,,p9_base2_01,001,2023-05-03_16h03.26.394,expectation_shapes_perceived_time,2022.2.4,119.80667994761953,
,,,,,,,,,,,,,0,0,0,0,testSingleStim,,,,,,green,0.5212936446895614,0.5210084033613445,0.048670800009858795,0.9979496000014478,7.270000060088933e-05,7e-05,0.03310139999666717,0.5164116999949329,0.5492484999995213,1.999610400001984,2.032890500006033,2.299708099992131,2.299708099992131,2.599443400002201,2.4329510999959894,0.13324300000385847,3.2993786000006367,0.9996705000085058,0.8664275000046473,0.63279,0.13514608490757488,-0.059894287629493406,,,,None,,,,,,,,,p9_base2_01,001,2023-05-03_16h03.26.394,expectation_shapes_perceived_time,2022.2.4,119.80667994761953,
,,,,,,,,,,,,,1,0,1,0,testSingleStim,,,,,,green,0.6304804966604799,0.6386554621848739,0.00467969999590423,0.9962980999989668,6.559999019373208e-05,7e-05,0.03323400000226684,0.6333354999951553,0.666404199990211,1.999708899995312,2.0332105999987107,2.2995378999912646,2.2995378999912646,2.5998487000033492,2.4497861999989254,0.15024830000766087,3.0664657000015723,0.7669278000103077,0.6166795000026468,0.48525,0.14766492656755864,0.006845393946840467,,,,None,,,,,,,,,p9_base2_01,001,2023-05-03_16h03.26.394,expectation_shapes_perceived_time,2022.2.4,119.80667994761953,
,,,,,,,,,,,,,2,0,2,0,testSingleStim,,,,,,green,0.3427498100843943,0.3445378151260504,0.004530199992586859,0.9967854999995325,7.259999983943999e-05,7e-05,,0.3416494999983115,0.37509689999569673,1.9995492000016384,,2.2991712000075495,2.2991712000075495,2.599130200003856,2.2991712000075495,0.0,2.9913812000013422,0.6922099999937927,0.6922099999937927,0.79517,0.0886941056910569,-0.11825880758807587,,,,None,,,,,,,,,p9_base2_01,001,2023-05-03_16h03.26.394,expectation_shapes_perceived_time,2022.2.4,119.80667994761953,
,,,,,,,,,,,,,3,0,3,0,testSingleStim,,,,,,green,0.7731385007506822,0.7815126050420168,0.004527700002654456,0.9963240999932168,3.9700011257082224e-05,4e-05,0.03343350000795908,0.7752193000051193,0.8083615000068676,2.0002443000121275,2.0334691000025487,2.2998963999998523,2.2998963999998523,2.600119300012011,2.308343500000774,0.008447100000921637,3.1081179000029806,0.8082215000031283,0.7997744000022067,0.90873,0.04180922173124903,-0.14178779543640976,,,,None,,,,,,,,,p9_base2_01,001,2023-05-03_16h03.26.394,expectation_shapes_perceived_time,2022.2.4,119.80667994761953,
,,,,,,,,,,,,,4,0,4,0,testSingleStim,,,,,,green,0.6745800284913511,0.680672268907563,0.0043012000096496195,0.9980130000039935,7.870000263210386e-05,8e-05,0.03321600001072511,0.6745406999980332,0.7077057999995304,1.9995093000034103,,2.2993255000037607,2.2993255000037607,2.599554200001876,2.2993255000037607,0.0,3.557875700003933,1.2585502000001725,1.2585502000001725,1.07253,-0.0333919238112229,-0.14400267143589873,,,,None,,,,,,,,,p9_base2_01,001,2023-05-03_16h03.26.394,expectation_shapes_perceived_time,2022.2.4,119.80667994761953,
,,,,,,,,,,,,,5,0,5,0,testSingleStim,,,,,,green,0.9233862391160231,0.9327731092436974,0.004533900006208569,0.9953453000052832,3.1799994758330286e-05,3e-05,,0.9252030000061495,0.9585770999983652,2.0001326000055997,,2.3001032000029227,2.3001032000029227,2.6000321000028634,2.3001032000029227,0.0,4.083354999995208,1.7832517999922857,1.7832517999922857,1.03748,-0.017363465047100457,-0.14680020448912204,,,,None,,,,,,,,,p9_base2_01,001,2023-05-03_16h03.26.394,expectation_shapes_perceived_time,2022.2.4,119.80667994761953,
,,,,,,,,,,,,,6,0,6,0,testSingleStim,,,,,,green,1.3526712855680416,1.361344537815126,0.004537199987680651,0.9965214999974705,7.20000098226592e-05,7e-05,0.033207900007255375,1.3498056000098586,1.3833865000051446,2.0000200000067707,2.033288500009803,2.299967300001299,2.299967300001299,2.602409800005262,2.299967300001299,0.0,4.058134000006248,1.7581667000049492,1.7581667000049492,1.50827,-0.14777367013455986,0.003838277146352205,,,,None,,,,,,,,,p9_base2_01,001,2023-05-03_16h03.26.394,expectation_shapes_perceived_time,2022.2.4,119.80667994761953,
,,,,,,,,,,,,,7,0,7,0,testSingleStim,,,,,,green,1.6682837825701426,1.680672268907563,0.004347899986896664,0.9973038999887649,3.189999551977962e-05,3e-05,,1.6666779999941355,1.7003170999960275,2.0000612000003457,,2.2999583999917377,2.2999583999917377,2.5998827000003075,2.2999583999917377,0.0,3.5582649999996647,1.258306600007927,1.258306600007927,0.8867,0.05151475250958606,-0.13855692054302454,,,,None,,,,,,,,,p9_base2_01,001,2023-05-03_16h03.26.394,expectation_shapes_perceived_time,2022.2.4,119.80667994761953,
,,,,,,,,,,,,,8,0,8,0,testSingleStim,,,,,,green,0.814039427955547,0.8235294117647058,0.0044541000097524375,0.9958771000092383,1.5600002370774746e-05,2e-05,,0.8175518000061857,0.8506169000029331,2.000392699992517,,2.300628400000278,2.300628400000278,2.6004618000006303,2.300628400000278,0.0,3.4253081000060774,1.1246797000057995,1.1246797000057995,0.75909,0.1014991003377513,-0.10746963565173664,,,,None,,,,,,,,,p9_base2_01,001,2023-05-03_16h03.26.394,expectation_shapes_perceived_time,2022.2.4,119.80667994761953,
,,,,,,,,,,,,,9,0,9,0,testSingleStim,,,,,,green,0.8006320407891946,0.8067226890756303,0.004448100007721223,0.9973692000057781,4.7200010158121586e-05,5e-05,0.033131100004538894,0.799394100002246,0.8329423000104725,1.9998976000060793,2.0330935000092722,2.299867000008817,2.299867000008817,2.5996848000067985,2.299867000008817,0.0,3.283076899999287,0.9832098999904701,0.9832098999904701,0.75723,0.10212502034502782,-0.10687502129130819,,,,None,,,,,,,,,p9_base2_01,001,2023-05-03_16h03.26.394,expectation_shapes_perceived_time,2022.2.4,119.80667994761953,
,,,,,,,,,,,,,10,0,10,0,testSingleStim,,,,,,red,0.34655775095010155,0.3529411764705882,0.004400200006784871,0.9968124000006355,5.800000508315861e-05,6e-05,0.03337660001125187,0.349952900010976,0.3835035000083735,1.9997301000112202,2.0331632000015816,2.299835500001791,2.299835500001791,2.599885700008599,2.299835500001791,0.0,3.250325900007738,0.9504904000059469,0.9504904000059469,0.26895,0.11056088409558243,0.0981227846348294,,,,None,,,,,,,,,p9_base2_01,001,2023-05-03_16h03.26.394,expectation_shapes_perceived_time,2022.2.4,119.80667994761953,
,,,,,,,,,,,,,11,0,11,0,testSingleStim,,,,,,red,0.9521295773184805,0.9579831932773109,0.0046975000004749745,0.9967384999908973,3.199999628122896e-05,3e-05,0.033318499990855344,0.9501387999916915,0.9837096999981441,1.999989199990523,2.0331357999966713,2.2997870999970473,2.2997870999970473,2.600164699993911,2.349988399990252,0.050201299993204884,3.416842099992209,1.1170549999951618,1.066853700001957,0.31525,0.12361657717412189,0.08106005060598157,,,,None,,,,,,,,,p9_base2_01,001,2023-05-03_16h03.26.394,expectation_shapes_perceived_time,2022.2.4,119.80667994761953,
,,,,,,,,,,,,,12,0,12,0,testSingleStim,,,,,,green,1.7764232002587963,1.7899159663865545,0.00458700000308454,0.9963285999983782,4.0099999750964344e-05,4e-05,0.033319900001515634,1.7750746999954572,1.8084305999946082,2.000053600000683,2.0332895000028657,2.3002126999926986,2.3002126999926986,2.599611700003152,2.3667081000021426,0.06649540000944398,3.474956399993971,1.1747437000012724,1.1082482999918284,1.80145,-0.08634443209391775,0.11998511992271688,,,,None,,,,,,,,,p9_base2_01,001,2023-05-03_16h03.26.394,expectation_shapes_perceived_time,2022.2.4,119.80667994761953,
,,,,,,,,,,,,,13,0,13,0,testSingleStim,,,,,,red,0.7783232650103327,0.7815126050420168,0.0045839999947929755,0.9973838000005344,3.9999998989515007e-05,4e-05,,0.7748480000009295,0.8084638000000268,1.9999731999996584,,2.30009560000326,2.30009560000326,2.599796399998013,2.358117099996889,0.05802149999362882,3.46643079999194,1.16633519998868,1.1083136999950511,0.79663,0.08815070666791745,-0.11866441282219657,,,,None,,,,,,,,,p9_base2_01,001,2023-05-03_16h03.26.394,expectation_shapes_perceived_time,2022.2.4,119.80667994761953,
,,,,,,,,,,,,,14,0,14,0,testSingleStim,,,,,,red,0.9114081193866416,0.9159663865546218,0.00445150000450667,0.9968387999979313,0.00011950000771321356,0.00012,0.03336860000854358,0.9085200000117766,0.9416829000110738,1.9999823000107426,2.0334590000129538,2.299955000009504,2.299955000009504,2.599854200001573,2.299955000009504,0.0,3.5166051000123844,1.2166501000028802,1.2166501000028802,0.78522,0.0923446142874532,-0.11543076785931652,,,,None,,,,,,,,,p9_base2_01,001,2023-05-03_16h03.26.394,expectation_shapes_perceived_time,2022.2.4,119.80667994761953,
,,,,,,,,,,,,,15,0,15,0,testSingleStim,,,,,,green,1.3182902832853283,1.3277310924369747,0.004422700003487989,0.9974236999987625,4.020000051241368e-05,4e-05,0.033513899994431995,1.3166646999889053,1.3502593000011984,2.0005650999955833,2.033782300000894,2.30024689999118,2.30024689999118,2.6001984999893466,2.825281699988409,0.5250347999972291,3.883119499994791,1.5828726000036113,1.0578378000063822,1.17624,-0.07772886782281463,-0.12573787441925893,,,,None,,,,,,,,,p9_base2_01,001,2023-05-03_16h03.26.394,expectation_shapes_perceived_time,2022.2.4,119.80667994761953,
,,,,,,,,,,,,,16,0,16,0,testSingleStim,,,,,,red,1.656421075789672,1.6638655462184873,0.004475100009585731,0.9973360000003595,5.200000305194408e-05,5e-05,0.03323050000471994,1.6503170000069076,1.6834838000067975,2.0001408999960404,2.0336593999963952,2.300323599993135,2.300323599993135,2.599981299994397,2.441729199999827,0.1414056000066921,3.274807800000417,0.9744842000072822,0.8330786000005901,0.81538,0.08101116464567484,-0.12364861972234584,,,,None,,,,,,,,,p9_base2_01,001,2023-05-03_16h03.26.394,expectation_shapes_perceived_time,2022.2.4,119.80667994761953,
,,,,,,,,,,,,,17,0,17,0,testSingleStim,,,,,,green,0.16484808250181662,0.1680672268907563,0.004493899992667139,0.997250400003395,6.369999027810991e-05,6e-05,,0.1663537999993423,0.19996889999310952,2.000214599989704,,2.3003179999941494,2.3003179999941494,2.600420299990219,2.3003179999941494,0.0,3.2336343999922974,0.933316399998148,0.933316399998148,0.17055,0.07546963036740462,0.1271067458819446,,,,None,,,,,,,,,p9_base2_01,001,2023-05-03_16h03.26.394,expectation_shapes_perceived_time,2022.2.4,119.80667994761953,
,,,,,,,,,,,,,18,0,18,0,testSingleStim,,,,,,green,1.1310720092636315,1.1428571428571428,0.004679999998188578,0.995893299987074,3.300000389572233e-05,3e-05,0.03332760000193957,1.1335479999979725,1.1669584000046598,2.0000673000031384,2.0336173999967286,2.3000284000008833,2.3000284000008833,2.600090799998725,2.308543400009512,0.008515000008628704,2.975174999999581,0.6751465999986976,0.6666315999900689,0.98656,0.006240495499627665,-0.14769172682452142,,,,None,,,,,,,,,p9_base2_01,001,2023-05-03_16h03.26.394,expectation_shapes_perceived_time,2022.2.4,119.80667994761953,
,,,,,,,,,,,,,19,0,19,0,testSingleStim,,,,,,green,1.4362665521172004,1.4453781512605042,0.004245400006766431,0.9977238999999827,5.370000144466758e-05,5e-05,,1.4329584000079194,1.4663956000003964,1.9993503000005148,,2.2998010000010254,2.2998010000010254,2.599755900009768,2.5493356000079075,0.2495346000068821,3.0997203000006266,0.7999192999996012,0.5503846999927191,1.2535,-0.10566927436135456,-0.10337211622306423,,,,None,,,,,,,,,p9_base2_01,001,2023-05-03_16h03.26.394,expectation_shapes_perceived_time,2022.2.4,119.80667994761953,
,,,,,,,,,,,,,20,0,20,0,testSingleStim,,,,,,green,0.5791147741088166,0.5798319327731092,0.004387900000438094,0.9973472000128822,4.0099999750964344e-05,4e-05,,0.5749614999949699,0.6084094999969238,2.0002774999884423,,2.299915299998247,2.299915299998247,2.5999192999879597,2.4082618999964325,0.10834659999818541,3.174791899989941,0.8748765999916941,0.7665299999935087,0.74525,0.10607529617523932,-0.1029554345230264,,,,None,,,,,,,,,p9_base2_01,001,2023-05-03_16h03.26.394,expectation_shapes_perceived_time,2022.2.4,119.80667994761953,
,,,,,,,,,,,,,21,0,21,0,testSingleStim,,,,,,red,0.4846292777788302,0.48739495798319327,0.004342299987911247,0.9967113999882713,6.710000161547214e-05,7e-05,0.033358200002112426,0.4829851999966195,0.5165520000009565,1.9997235000046203,2.033200999998371,2.2997596000059275,2.2997596000059275,2.59989399999904,2.2997596000059275,0.0,3.291531399998348,0.9917717999924207,0.9917717999924207,0.54807,0.14614110607861547,-0.022238863968484963,,,,None,,,,,,,,,p9_base2_01,001,2023-05-03_16h03.26.394,expectation_shapes_perceived_time,2022.2.4,119.80667994761953,
,,,,,,,,,,,,,22,0,22,0,testSingleStim,,,,,,green,0.5547240509529718,0.5546218487394958,0.004426200001034886,0.9966300000087358,3.99000127799809e-05,4e-05,0.033239900003536604,0.5499713000026532,0.5833819000108633,2.000041700011934,2.0332710000075167,2.300443800006178,2.300443800006178,2.5997154000069713,2.3083088000130374,0.00786500000685919,3.1830640000116546,0.8826202000054764,0.8747551999986172,0.60874,0.13928148220547426,-0.04952230478416862,,,,None,,,,,,,,,p9_base2_01,001,2023-05-03_16h03.26.394,expectation_shapes_perceived_time,2022.2.4,119.80667994761953,
,,,,,,,,,,,,,23,0,23,0,testSingleStim,,,,,,red,0.7912068700019838,0.7983193277310924,0.004466200000024401,0.9969013999943854,1.8699996871873736e-05,2e-05,,0.7925684000074398,0.8255786999943666,2.0005092000064906,,2.3005573999980697,2.3005573999980697,2.600308099994436,2.3005573999980697,0.0,3.375087899999926,1.0745305000018561,1.0745305000018561,0.59215,0.14167193518799379,-0.04220015090706199,,,,None,,,,,,,,,p9_base2_01,001,2023-05-03_16h03.26.394,expectation_shapes_perceived_time,2022.2.4,119.80667994761953,
,,,,,,,,,,,,,24,0,24,0,testSingleStim,,,,,,green,1.2311683243612987,1.2436974789915967,0.004414000010001473,0.9968135000090115,4.020000051241368e-05,4e-05,0.03362899999774527,1.2334799000091152,1.2668147000076715,2.0001617000089027,2.033467200002633,2.3001310999970883,2.3001310999970883,2.600033099995926,2.3001310999970883,0.0,3.066643700003624,0.7665126000065356,0.7665126000065356,0.68238,0.12421559954906998,-0.08013909648327096,,,,None,,,,,,,,,p9_base2_01,001,2023-05-03_16h03.26.394,expectation_shapes_perceived_time,2022.2.4,119.80667994761953,
,,,,,,,,,,,,,25,0,25,0,testSingleStim,,,,,,red,1.3048439404161714,1.3109243697478992,0.004520599992247298,0.9974703999905614,5.5500000598840415e-05,6e-05,0.0331443000031868,1.300169800000731,1.3332869000005303,1.999490500005777,,2.299761900008889,2.299761900008889,2.5998172000108752,2.416261200007284,0.11649929999839514,2.86655150000297,0.5667895999940811,0.4502902999956859,0.83859,0.07178944244345378,-0.1292209963982168,,,,None,,,,,,,,,p9_base2_01,001,2023-05-03_16h03.26.394,expectation_shapes_perceived_time,2022.2.4,119.80667994761953,
,,,,,,,,,,,,,26,0,26,0,testSingleStim,,,,,,green,1.836438650458154,1.8487394957983192,0.004365000000689179,0.9960811000055401,4.08000050811097e-05,4e-05,,1.8331669000035618,1.866705100008403,2.00019040000916,,2.2999471000075573,2.2999471000075573,2.5997377000021515,2.4665594000107376,0.16661230000318028,3.149496199999703,0.8495490999921458,0.6829367999889655,1.79097,-0.09024741448359194,0.11707772689763278,,,,None,,,,,,,,,p9_base2_01,001,2023-05-03_16h03.26.394,expectation_shapes_perceived_time,2022.2.4,119.80667994761953,
,,,,,,,,,,,,,27,0,27,0,testSingleStim,,,,,,red,1.7431837296831942,1.7563025210084033,0.0038065999979153275,0.9984218000026885,6.44000101601705e-05,6e-05,,1.7421966000110842,1.7753438000072492,2.0005383000097936,,2.30024830000184,2.30024830000184,2.5999920000031125,2.5332198000105564,0.23297150000871625,3.166772900003707,0.8665246000018669,0.6335530999931507,1.56911,-0.14435317128906605,0.03184261131376456,,,,None,,,,,,,,,p9_base2_01,001,2023-05-03_16h03.26.394,expectation_shapes_perceived_time,2022.2.4,119.80667994761953,
,,,,,,,,,,,,,28,0,28,0,testSingleStim,,,,,,red,1.4653989911932543,1.4789915966386553,0.00438340000982862,0.9969188000104623,3.980001201853156e-05,4e-05,0.03335700000752695,1.466698300006101,1.5001453000004403,1.9999354000028688,2.0334239000076195,2.3001446000125725,2.3001446000125725,2.6000553000048967,2.3001446000125725,0.0,3.1415173999994295,0.841372799986857,0.841372799986857,1.31402,-0.12330169789816214,-0.0815382195778169,,,,None,,,,,,,,,p9_base2_01,001,2023-05-03_16h03.26.394,expectation_shapes_perceived_time,2022.2.4,119.80667994761953,
,,,,,,,,,,,,,29,0,29,0,testSingleStim,,,,,,green,1.7759866995754952,1.7899159663865545,0.004196899986709468,0.9975975999986986,5.389998841565102e-05,5e-05,0.03346249999594875,1.7745149999973364,1.8078571999940323,1.9995968000002904,2.0329129999881843,2.2996669999993173,2.2996669999993173,2.599571599988849,3.0913052999967476,0.7916382999974303,3.7745088999945438,1.4748418999952264,0.6832035999977961,1.52684,-0.14729848352278516,0.01244775917093959,,,,None,,,,,,,,,p9_base2_01,001,2023-05-03_16h03.26.394,expectation_shapes_perceived_time,2022.2.4,119.80667994761953,
,,,,,,,,,,,,,30,0,30,0,testSingleStim,,,,,,red,0.46215217935758846,0.4621848739495798,0.004464700003154576,0.9972879999986617,2.7600006433203816e-05,3e-05,,0.45866420000675134,0.49180540000088513,2.0005411000020104,2.0337696000060532,2.300224900012836,2.300224900012836,2.600497200008249,2.8086830000102054,0.5084580999973696,4.066825300003984,1.7666003999911482,1.2581422999937786,1.95279,-0.021846028620396283,0.14620034538265209,,,,None,,,,,,,,,p9_base2_01,001,2023-05-03_16h03.26.394,expectation_shapes_perceived_time,2022.2.4,119.80667994761953,
,,,,,,,,,,,,,31,0,31,0,testSingleStim,,,,,,red,0.4933719718873117,0.49579831932773105,0.004459799994947389,0.997547899998608,3.569999535102397e-05,4e-05,0.03308079999987967,0.4913507000019308,0.524762400003965,1.9999475999939023,,2.2999145000067074,2.2999145000067074,2.5997563999990234,2.2999145000067074,0.0,2.9997701999964193,0.6998556999897119,0.6998556999897119,0.54798,0.14614708219749045,-0.022199556789492224,,,,None,,,,,,,,,p9_base2_01,001,2023-05-03_16h03.26.394,expectation_shapes_perceived_time,2022.2.4,119.80667994761953,
,,,,,,,,,,,,,32,0,32,0,testSingleStim,,,,,,red,0.5255684345099982,0.5294117647058824,0.004277399988495745,0.9974071999895386,5.220000457484275e-05,5e-05,,0.5247942999994848,0.5582521000033012,1.9998887999972794,,2.299821799999336,2.299821799999336,2.5993391999945743,2.449546499992721,0.149724699993385,3.2161081999947783,0.9162863999954425,0.7665617000020575,0.42747,0.14400267143589873,0.0333919238112229,,,,None,,,,,,,,,p9_base2_01,001,2023-05-03_16h03.26.394,expectation_shapes_perceived_time,2022.2.4,119.80667994761953,
,,,,,,,,,,,,,33,0,33,0,testSingleStim,,,,,,green,0.43048925489161644,0.4369747899159664,0.0044037000043317676,0.9976672999910079,8.129999332595617e-05,8e-05,0.03319289999490138,0.43328959999780636,0.46673119999468327,2.0000679999939166,2.0332880999922054,2.2996026999899186,2.2996026999899186,2.5992894999944838,2.632635999994818,0.3330333000048995,3.28310309999506,0.9835004000051413,0.6504671000002418,0.34105,0.12977360454963227,0.07078560248161761,,,,None,,,,,,,,,p9_base2_01,001,2023-05-03_16h03.26.394,expectation_shapes_perceived_time,2022.2.4,119.80667994761953,
,,,,,,,,,,,,,34,0,34,0,testSingleStim,,,,,,green,1.3360160117249387,1.3445378151260503,0.004201400006422773,0.9967321000003722,3.279998782090843e-05,3e-05,0.0334139999904437,1.3336463999876287,1.3668036999879405,2.000246799987508,,2.300067799995304,2.300067799995304,2.600413199994364,2.300067799995304,0.0,3.6665454999892972,1.3664776999939932,1.3664776999939932,1.13709,-0.061716340569255276,-0.1343238000624968,,,,None,,,,,,,,,p9_base2_01,001,2023-05-03_16h03.26.394,expectation_shapes_perceived_time,2022.2.4,119.80667994761953,
,,,,,,,,,,,,,35,0,35,0,testSingleStim,,,,,,red,0.3025650221365819,0.3025210084033613,0.004244800002197735,0.9973907999956282,4.030000127386302e-05,4e-05,0.033274799992796034,0.2998456999921473,0.3332814000023063,1.9994277999940095,2.0327322999946773,2.299364999998943,2.299364999998943,2.599390299990773,2.299364999998943,0.0,3.391143999993801,1.0917789999948582,1.0917789999948582,0.25,0.1045270059757045,0.1045270059757045,,,,None,,,,,,,,,p9_base2_01,001,2023-05-03_16h03.26.394,expectation_shapes_perceived_time,2022.2.4,119.80667994761953,
,,,,,,,,,,,,,36,0,36,0,testSingleStim,,,,,,green,1.1511121630886267,1.1596638655462184,0.0038780000031692907,0.9975791000033496,1.4599994756281376e-05,1e-05,0.033271499996772036,1.1499370999954408,1.1832895999978064,1.999990500000422,2.033259200004977,2.300029200006975,2.300029200006975,2.600096800000756,2.8916714999941178,0.5916422999871429,4.0167044999980135,1.7166752999910386,1.1250330000038957,0.70279,0.11882673061136624,-0.08793178065241102,,,,None,,,,,,,,,p9_base2_01,001,2023-05-03_16h03.26.394,expectation_shapes_perceived_time,2022.2.4,119.80667994761953,
,,,,,,,,,,,,,37,0,37,0,testSingleStim,,,,,,green,0.9456082181279357,0.9495798319327731,0.004228299992973916,0.9974120999977458,1.9799990695901215e-05,2e-05,0.03332339999906253,0.9416597999952501,0.974999799989746,2.0000044999906095,2.033371999990777,2.300037599998177,2.300037599998177,2.599975099990843,2.300037599998177,0.0,4.18333219998749,1.8832945999893127,1.8832945999893127,1.00624,-0.002897943157018526,-0.14779510100794482,,,,None,,,,,,,,,p9_base2_01,001,2023-05-03_16h03.26.394,expectation_shapes_perceived_time,2022.2.4,119.80667994761953,
,,,,,,,,,,,,,38,0,38,0,testSingleStim,,,,,,red,0.24481133061143487,0.24369747899159663,0.0025348000053782016,0.9979618000070332,2.0800012862309813e-05,2e-05,0.03335240000160411,0.24166660000628326,0.2750318000034895,2.0008900000102585,2.0342350999999326,2.3007321000040974,2.3007321000040974,2.600795600010315,2.7421215000067605,0.441389400002663,3.2168498000100954,0.9161177000059979,0.4747283000033349,0.44064,0.14526049429352608,0.02740764043274077,,,,None,,,,,,,,,p9_base2_01,001,2023-05-03_16h03.26.394,expectation_shapes_perceived_time,2022.2.4,119.80667994761953,
,,,,,,,,,,,,,39,0,39,0,testSingleStim,,,,,,red,0.9174149504209186,0.9243697478991596,0.00430410000262782,0.997600800008513,2.0000006770715117e-05,2e-05,0.03330690000439063,0.9166502000007313,0.9501129999989644,2.0001132000033977,2.033273900000495,2.300423500011675,2.300423500011675,2.5999270000029355,2.300423500011675,0.0,3.4581005000072764,1.1576769999956014,1.1576769999956014,1.0696,-0.032067421588962086,-0.14430339715032942,,,,None,,,,,,,,,p9_base2_01,001,2023-05-03_16h03.26.394,expectation_shapes_perceived_time,2022.2.4,119.80667994761953,
,,,,,,,,,0,0,0,0,0,-1,-1,0,fam,0.5647258999961196,0.5647258999961196,270.0,2.5645442999957595,2.5645442999957595,,,,,,,,,,,,,,,,,,,,,,,,,,,,,,,,,,,,p9_base2_01,001,2023-05-03_16h03.26.394,expectation_shapes_perceived_time,2022.2.4,119.80667994761953,
,,,,,,,,,1,0,1,0,0,-1,-1,0,fam,0.49746779999986757,0.49746779999986757,270.0,2.497332800005097,2.497332800005097,,,,,,,,,,,,,,,,,,,,,,,,,,,,,,,,,,,,p9_base2_01,001,2023-05-03_16h03.26.394,expectation_shapes_perceived_time,2022.2.4,119.80667994761953,
,,,,,,,,,2,0,2,0,0,-1,-1,0,fam,0.4976202999969246,0.4976202999969246,270.0,2.49753179999243,2.49753179999243,,,,,,,,,,,,,,,,,,,,,,,,,,,,,,,,,,,,p9_base2_01,001,2023-05-03_16h03.26.394,expectation_shapes_perceived_time,2022.2.4,119.80667994761953,
,,,,,,,,,3,0,3,0,0,-1,-1,0,fam,0.4975099000002956,0.4975099000002956,270.0,2.497627199991257,2.497627199991257,,,,,,,,,,,,,,,,,,,,,,,,,,,,,,,,,,,,p9_base2_01,001,2023-05-03_16h03.26.394,expectation_shapes_perceived_time,2022.2.4,119.80667994761953,
1,500,0.5,none,33,green,red,no_Expectation,,,,,,0,0,0,7,train_doubleStim,,,,,,green,0.23030644500195022,0.23529411764705882,2.299970599997323,0.9983037000056356,4e-05,4e-05,,0.2333603999868501,0.26647779998893384,1.9999714000005042,,2.299970599997323,2.299970599997323,2.499973999991198,2.8499611000006553,0.5499905000033323,7.26635069999611,4.966380099998787,4.416389599995455,0.72936,0.11108053123523809,-0.09753412498703833,,,,None,,0.5,0.5042016806722689,0.7636364450019503,0.7647058823529411,training_double_stim.csv,0.7582599999877857,0.7914954000007128,p9_base2_01,001,2023-05-03_16h03.26.394,expectation_shapes_perceived_time,2022.2.4,119.80667994761953,
1,-500,0.5,none,46,red,green,no_Expectation,,,,,,0,1,1,4,train_doubleStim,,,,,,red,0.994846707432474,1.0,2.2998537000094075,0.9965808999986621,5e-05,5e-05,0.03318,0.9912429000105476,1.0245851000072435,2.0000709000014467,2.033159300000989,2.2998537000094075,2.2998537000094075,2.4999389000004157,2.665954199997941,0.36610049998853356,3.9244352000096114,1.624581500000204,1.2584810000116704,0.88016,0.05434862732022664,-0.1374700573393968,,,,None,,-0.5,-0.5042016806722689,0.4615167074324741,0.4621848739495798,training_double_stim.csv,0.4578314000100363,0.4911417000112124,p9_base2_01,001,2023-05-03_16h03.26.394,expectation_shapes_perceived_time,2022.2.4,119.80667994761953,
1,-500,0.5,none,77,green,red,no_Expectation,,,,,,0,2,2,1,train_doubleStim,,,,,,green,1.821189467598988,1.8319327731092436,2.3000845999922603,0.9978414000070188,5e-05,5e-05,,1.8160567000013543,1.8493692000047304,1.999505899992073,,2.3000845999922603,2.3000845999922603,2.499681300003431,2.5078844999952707,0.2077999000030104,3.341352799994638,1.0412682000023779,0.8334682999993674,1.14461,-0.06487017391094851,-0.13282940372241842,,,,None,,-0.5,-0.5042016806722689,1.287859467598988,1.2941176470588234,training_double_stim.csv,1.2830140000005485,1.316005300002871,p9_base2_01,001,2023-05-03_16h03.26.394,expectation_shapes_perceived_time,2022.2.4,119.80667994761953,
1,500,0.5,none,88,red,green,no_Expectation,,,,,,0,3,3,9,train_doubleStim,,,,,,red,1.2354425554699333,1.2436974789915967,2.3001739000028465,0.9972713999886764,7e-05,7e-05,,1.2339321000035852,1.2669929999974556,2.000111700006528,2.033522099998663,2.3001739000028465,2.3001739000028465,2.500240399996983,2.9335007000045152,0.6333268000016687,5.049827399998321,2.7496534999954747,2.116326699993806,1.02155,-0.009998979634872101,-0.14748494961436348,,,,None,,0.5,0.5042016806722689,1.7687725554699332,1.7815126050420167,training_double_stim.csv,1.767256200007978,1.799853600008646,p9_base2_01,001,2023-05-03_16h03.26.394,expectation_shapes_perceived_time,2022.2.4,119.80667994761953,
1,500,0.5,none,25,green,red,no_Expectation,,,,,,0,4,4,6,train_doubleStim,,,,,,green,0.84056345937593,0.8487394957983193,2.299803100002464,0.9977272999967681,4e-05,4e-05,0.03349,0.8415867000003345,0.8749775000032969,2.0000347000022884,2.0332962999964366,2.299803100002464,2.299803100002464,2.499458999998751,2.850077199997031,0.5502740999945672,3.5331031999958213,1.2333000999933574,0.6830259999987902,0.74617,0.10577869041030741,-0.10326015016244294,,,,None,,0.5,0.5042016806722689,1.37389345937593,1.3865546218487395,training_double_stim.csv,1.3749737000034656,1.408316899993224,p9_base2_01,001,2023-05-03_16h03.26.394,expectation_shapes_perceived_time,2022.2.4,119.80667994761953,
1,-500,0.5,none,68,red,green,no_Expectation,,,,,,0,5,5,3,train_doubleStim,,,,,,red,0.6724834456782435,0.680672268907563,2.299673499990604,0.9983261999877868,7e-05,7e-05,0.03308,0.6745850000006612,0.7078920999920228,1.9996411000029184,2.0329418999899644,2.299673499990604,2.299673499990604,2.4996197000000393,2.299673499990604,0.0,4.440893299994059,2.141219800003455,2.141219800003455,0.81048,0.08290654110716368,-0.12238584639628922,,,,None,,-0.5,-0.5042016806722689,0.13915344567824348,0.14285714285714285,training_double_stim.csv,0.1411249999946449,0.17432959999132436,p9_base2_01,001,2023-05-03_16h03.26.394,expectation_shapes_perceived_time,2022.2.4,119.80667994761953,
1,500,0.5,none,60,red,green,no_Expectation,,,,,,0,6,6,8,train_doubleStim,,,,,,red,0.3328304743779211,0.3361344537815126,2.299772900005337,0.9973500999913085,4e-05,4e-05,0.03304,0.3331820000021253,0.36664870000095107,1.999876800007769,2.0334205999970436,2.299772900005337,2.299772900005337,2.4993339000066044,2.374435400008224,0.0746625000028871,3.8495857000089018,1.549812800003565,1.4751503000006778,0.63764,0.13421774268678338,-0.06194665047082311,,,,None,,0.5,0.5042016806722689,0.8661604743779211,0.8739495798319328,training_double_stim.csv,0.8664896999980556,0.8999774000112666,p9_base2_01,001,2023-05-03_16h03.26.394,expectation_shapes_perceived_time,2022.2.4,119.80667994761953,
1,-500,0.5,none,59,green,red,no_Expectation,,,,,,0,7,7,0,train_doubleStim,,,,,,green,1.788234973717668,1.7983193277310923,2.3005304999969667,0.9967066999961389,6e-05,6e-05,0.03337,1.7836723999935202,1.8170907999883639,2.000340899990988,2.033663999987766,2.3005304999969667,2.3005304999969667,2.5001179999962915,2.7998379999917233,0.49930749999475665,3.866884699993534,1.5663541999965673,1.0670467000018107,1.71827,-0.11440908415984052,0.09360743249441497,,,,None,,-0.5,-0.5042016806722689,1.254904973717668,1.2605042016806722,training_double_stim.csv,1.2504443999932846,1.2838919999921927,p9_base2_01,001,2023-05-03_16h03.26.394,expectation_shapes_perceived_time,2022.2.4,119.80667994761953,
1,500,0.5,none,98,red,green,no_Expectation,,,,,,0,8,8,5,train_doubleStim,,,,,,red,1.242168691424772,1.2521008403361344,2.299878100006026,0.9966920000006212,4e-05,4e-05,0.03325,1.241472399997292,1.2748853000084637,1.9999873000051593,2.033112200006144,2.299878100006026,2.299878100006026,2.499929300000076,2.7079459999949904,0.4080678999889642,3.907947800005786,1.60806969999976,1.2000018000107957,0.9773,0.010531988969672789,-0.147447845575419,,,,None,,0.5,0.5042016806722689,1.775498691424772,1.7899159663865545,training_double_stim.csv,1.775039400003152,1.808184399997117,p9_base2_01,001,2023-05-03_16h03.26.394,expectation_shapes_perceived_time,2022.2.4,119.80667994761953,
1,-500,0.5,none,23,green,red,no_Expectation,,,,,,0,9,9,2,train_doubleStim,,,,,,green,0.9370546908837993,0.9411764705882353,2.299984500001301,0.9972513999964576,4e-05,4e-05,,0.9333917999902042,0.9666774999932386,2.0002056999946944,2.0333438999950886,2.299984500001301,2.299984500001301,2.5000617999903625,3.0827977000008104,0.7828131999995094,3.9416271999944,1.641642699993099,0.8588294999935897,0.95375,0.021404722975486765,-0.14626560699915955,,,,None,,-0.5,-0.5042016806722689,0.40372469088379936,0.40336134453781514,training_double_stim.csv,0.4000180000002729,0.43330669999704696,p9_base2_01,001,2023-05-03_16h03.26.394,expectation_shapes_perceived_time,2022.2.4,119.80667994761953,
1,-500,0.5,none,23,green,red,no_Expectation,,,,,,1,0,10,2,train_doubleStim,,,,,,green,0.8770762433892763,0.8823529411764706,2.299763200004236,0.9975915000104578,4e-05,4e-05,0.03336,0.8748265000031097,0.9083378000068478,1.9998574000055669,2.033178300000145,2.299763200004236,2.299763200004236,2.4998284000030253,2.299763200004236,0.0,3.7247635000094306,1.4250003000051947,1.4250003000051947,0.89758,0.046745898169240394,-0.1402376945077212,,,,None,,-0.5,-0.5042016806722689,0.34374624338927623,0.3445378151260504,training_double_stim.csv,0.34149480001360644,0.37507030001142994,p9_base2_01,001,2023-05-03_16h03.26.394,expectation_shapes_perceived_time,2022.2.4,119.80667994761953,
1,500,0.5,none,98,red,green,no_Expectation,,,,,,1,1,11,5,train_doubleStim,,,,,,red,0.8775923067154218,0.8823529411764706,2.300077500010957,0.9966371999908006,9e-05,9e-05,,0.8751582000113558,0.9084861000010278,1.9999733000004198,,2.300077500010957,2.300077500010957,2.500084200000856,2.458356000002823,0.15827849999186583,3.716534100007266,1.4164565999963088,1.258178100004443,0.9444,0.025689557955474486,-0.14557416174768872,,,,None,,0.5,0.5042016806722689,1.4109223067154217,1.4201680672268906,training_double_stim.csv,1.4082659000123385,1.4415471000102116,p9_base2_01,001,2023-05-03_16h03.26.394,expectation_shapes_perceived_time,2022.2.4,119.80667994761953,
1,-500,0.5,none,59,green,red,no_Expectation,,,,,,1,2,12,0,train_doubleStim,,,,,,green,1.6290584257541487,1.638655462184874,2.2998793000006117,0.9972656999889296,4e-05,4e-05,0.03322,1.625585499990848,1.6587078000011388,2.000430999993114,2.03346849999798,2.2998793000006117,2.2998793000006117,2.4999929999903543,2.924796099992818,0.6249167999922065,3.716167399994447,1.4162880999938352,0.7913713000016287,1.26617,-0.10970021704963684,-0.0990840670125752,,,,None,,-0.5,-0.5042016806722689,1.0957284257541486,1.1008403361344536,training_double_stim.csv,1.092214399992372,1.1254610000032699,p9_base2_01,001,2023-05-03_16h03.26.394,expectation_shapes_perceived_time,2022.2.4,119.80667994761953,
1,-500,0.5,none,68,red,green,no_Expectation,,,,,,1,3,13,3,train_doubleStim,,,,,,red,0.8032189623605336,0.8067226890756303,2.299605899999733,0.9911107999942033,6e-05,6e-05,0.03302,0.7999723000102676,0.8331029000109993,1.9997042000031797,2.033456000004662,2.299605899999733,2.299605899999733,2.499483699997654,2.616034500009846,0.31642860001011286,4.0573806000029435,1.7577747000032105,1.4413460999930976,0.90895,0.04171081627093926,-0.1418167753211935,,,,None,,-0.5,-0.5042016806722689,0.2698889623605336,0.2689075630252101,training_double_stim.csv,0.2666643999982625,0.2997128999995766,p9_base2_01,001,2023-05-03_16h03.26.394,expectation_shapes_perceived_time,2022.2.4,119.80667994761953,
1,-500,0.5,none,77,green,red,no_Expectation,,,,,,1,4,14,1,train_doubleStim,,,,,,green,1.257944977939748,1.26890756302521,2.299991099993349,0.9909907999972347,5e-05,5e-05,0.0336,1.2578142999991542,1.2913952999952016,1.99972429999616,2.0332861999922898,2.299991099993349,2.299991099993349,2.4995125999994343,2.6579592999914894,0.35796819999814034,3.6327462999906857,1.3327551999973366,0.9747869999991963,1.57798,-0.1434098690721271,0.035852467268031776,,,,None,,-0.5,-0.5042016806722689,0.7246149779397479,0.7310924369747899,training_double_stim.csv,0.7248518999986118,0.7583731999911834,p9_base2_01,001,2023-05-03_16h03.26.394,expectation_shapes_perceived_time,2022.2.4,119.80667994761953,
1,500,0.5,none,88,red,green,no_Expectation,,,,,,1,5,15,9,train_doubleStim,,,,,,red,0.4000870345592211,0.40336134453781514,2.299838599996292,0.9978542000026209,4e-05,4e-05,0.03315,0.39979239999956917,0.4332935999991605,2.000051600000006,2.033236899995245,2.299838599996292,2.299838599996292,2.5000968999956967,2.5831447999953525,0.2833061999990605,3.2663040999905206,0.9664654999942286,0.6831592999951681,0.55641,0.14550809711959423,-0.026061151722912394,,,,None,,0.5,0.5042016806722689,0.9334170345592212,0.9411764705882353,training_double_stim.csv,0.9333795999991708,0.9667249999911292,p9_base2_01,001,2023-05-03_16h03.26.394,expectation_shapes_perceived_time,2022.2.4,119.80667994761953,
1,500,0.5,none,25,green,red,no_Expectation,,,,,,1,6,16,6,train_doubleStim,,,,,,green,0.5148214628655834,0.5210084033613445,2.300531699991552,0.9966291000018828,4e-05,4e-05,0.03328,0.5173169999907259,0.5505887999897823,2.000379699995392,2.0337759999965783,2.300531699991552,2.300531699991552,2.5005955999949947,2.792091099996469,0.4915594000049168,3.658725899993442,1.3581942000018898,0.866634799996973,1.28438,-0.11518606686317054,-0.09264966247689804,,,,None,,0.5,0.5042016806722689,1.0481514628655835,1.0588235294117647,training_double_stim.csv,1.050812199988286,1.0838268999941647,p9_base2_01,001,2023-05-03_16h03.26.394,expectation_shapes_perceived_time,2022.2.4,119.80667994761953,
1,-500,0.5,none,46,red,green,no_Expectation,,,,,,1,7,17,4,train_doubleStim,,,,,,red,0.8998308311548092,0.907563025210084,2.2999311000021407,0.9966920000006212,7e-05,7e-05,0.03325,0.899491999996826,0.9329836999968393,1.9998860000050627,2.0330993000097806,2.2999311000021407,2.2999311000021407,2.4996431000035955,2.5365979000052903,0.23666680000314955,3.666067199999816,1.366136099997675,1.1294692999945255,0.94048,0.02747915876329749,-0.14524698203457245,,,,None,,-0.5,-0.5042016806722689,0.3665008311548092,0.36974789915966383,training_double_stim.csv,0.3658146000088891,0.3990071000007447,p9_base2_01,001,2023-05-03_16h03.26.394,expectation_shapes_perceived_time,2022.2.4,119.80667994761953,
1,500,0.5,none,33,green,red,no_Expectation,,,,,,1,8,18,7,train_doubleStim,,,,,,green,0.857229563768183,0.8655462184873949,2.300107200004277,0.9973011999973096,4e-05,4e-05,,0.8582663999986835,0.8914068000012776,1.9997838999988744,,2.300107200004277,2.300107200004277,2.499995800011675,2.7839039000100456,0.4837967000057688,3.433245200008969,1.133138000004692,0.6493412999989232,0.93364,0.030593345246272458,-0.1446230866187425,,,,None,,0.5,0.5042016806722689,1.3905595637681831,1.403361344537815,training_double_stim.csv,1.3915745000122115,1.4251894000044558,p9_base2_01,001,2023-05-03_16h03.26.394,expectation_shapes_perceived_time,2022.2.4,119.80667994761953,
1,500,0.5,none,60,red,green,no_Expectation,,,,,,1,9,19,8,train_doubleStim,,,,,,red,0.8972051398419532,0.8991596638655461,2.3001198999991175,0.9968122999998741,4e-05,4e-05,0.03324,0.8920440999936545,0.9250152000022354,2.00030610000249,2.0333185000054073,2.3001198999991175,2.3001198999991175,2.50049360000412,2.616491299995687,0.3163713999965694,3.6413570000004256,1.3412371000013081,1.0248657000047388,0.91233,0.04020163894155586,-0.14225195317781303,,,,None,,0.5,0.5042016806722689,1.430535139841953,1.4369747899159664,training_double_stim.csv,1.424910200003069,1.4580910999939078,p9_base2_01,001,2023-05-03_16h03.26.394,expectation_shapes_perceived_time,2022.2.4,119.80667994761953,
,,,,,,,,,0,0,0,0,0,-1,-1,0,fam,0.5562344000063604,0.5562344000063604,270.0,2.5565423000080045,2.5565423000080045,,,,,,,,,,,,,,,,,,,,,,,,,,,,,,,,,,,,p9_base2_01,001,2023-05-03_16h03.26.394,expectation_shapes_perceived_time,2022.2.4,119.80667994761953,
,,,,,,,,,1,0,1,0,0,-1,-1,0,fam,0.49848939999355935,0.49848939999355935,270.0,2.498576600002707,2.498576600002707,,,,,,,,,,,,,,,,,,,,,,,,,,,,,,,,,,,,p9_base2_01,001,2023-05-03_16h03.26.394,expectation_shapes_perceived_time,2022.2.4,119.80667994761953,
,,,,,,,,,2,0,2,0,0,-1,-1,0,fam,0.49742569999943953,0.49742569999943953,270.0,2.497497599993949,2.497497599993949,,,,,,,,,,,,,,,,,,,,,,,,,,,,,,,,,,,,p9_base2_01,001,2023-05-03_16h03.26.394,expectation_shapes_perceived_time,2022.2.4,119.80667994761953,
,,,,,,,,,3,0,3,0,0,-1,-1,0,fam,0.4977851000003284,0.4977851000003284,270.0,2.4979251000040676,2.4979251000040676,,,,,,,,,,,,,,,,,,,,,,,,,,,,,,,,,,,,p9_base2_01,001,2023-05-03_16h03.26.394,expectation_shapes_perceived_time,2022.2.4,119.80667994761953,
,100,0.5,none,,red,green,,1297.864833308925,,,,,0,0,0,166,trial,,,,,,red,1.2978648333089249,1.3025210084033614,2.300134600009187,0.9986527000000933,4e-05,4e-05,0.03324,1.291740700005903,1.3253956999978982,1.9996010000031674,2.033198300006916,2.300134600009187,2.300134600009187,2.500256500003161,2.9496436000044923,0.6495089999953052,3.8414785000059055,1.5413438999967184,0.8918349000014132,0.9495,0.02335471033889714,-0.14596693961810714,,,,None,,0.1,0.10084033613445378,1.4311948333089248,1.4369747899159664,trial_list_0.5_red.csv,1.4251496000069892,1.4584373999969102,p9_base2_01,001,2023-05-03_16h03.26.394,expectation_shapes_perceived_time,2022.2.4,119.80667994761953,
,-33,0.5,none,,red,green,,620.1385872363272,,,,,0,1,1,164,trial,,,,,,red,0.6201385872363272,0.6218487394957983,2.3003268000029493,0.995851900006528,6e-05,6e-05,,0.6168244000000414,0.6501717000064673,2.0003699000080815,,2.3003268000029493,2.3003268000029493,2.500537700005225,2.816812100005336,0.5164853000023868,5.466596600002958,3.166269800000009,2.6497844999976223,0.52508,0.14736498293314948,-0.011634077599985486,,,,None,,-0.033,-0.03361344537815126,0.5538085872363272,0.5546218487394958,trial_list_0.5_red.csv,0.5501472000032663,0.5835614999959944,p9_base2_01,001,2023-05-03_16h03.26.394,expectation_shapes_perceived_time,2022.2.4,119.80667994761953,
,100,0.5,none,,red,green,,754.5136739146736,,,,,0,2,2,26,trial,,,,,,red,0.7545136739146736,0.7563025210084033,2.3000522000074852,0.9971113000065088,5e-05,5e-05,0.03345,0.7502703000063775,0.7836688000097638,1.9995463000086602,2.0329076000052737,2.3000522000074852,2.3000522000074852,2.5001954000035767,2.9667244000011124,0.6666721999936271,4.108292900011293,1.8082407000038074,1.1415685000101803,0.50677,0.14779006146803922,-0.003144469392937004,,,,None,,0.1,0.10084033613445378,0.8878436739146737,0.8907563025210083,trial_list_0.5_red.csv,0.8838907000026666,0.9169828000012785,p9_base2_01,001,2023-05-03_16h03.26.394,expectation_shapes_perceived_time,2022.2.4,119.80667994761953,
,100,0.5,none,,green,red,,1112.3294802182008,,,,,0,3,3,7,trial,,,,,,green,1.1123294802182009,1.1176470588235294,2.2997624999989057,0.9973497000028146,4e-05,4e-05,0.03332,1.1086970000033034,1.141687399998773,1.9995160999969812,2.0333012000046438,2.2997624999989057,2.2997624999989057,2.4997623000090243,2.2997624999989057,0.0,3.4997830000065733,1.2000205000076676,1.2000205000076676,0.9874,0.005849810575781081,-0.14770771703847232,,,,None,,0.1,0.10084033613445378,1.2456594802182008,1.2521008403361344,trial_list_0.5_red.csv,1.2418767000053776,1.2751471000083257,p9_base2_01,001,2023-05-03_16h03.26.394,expectation_shapes_perceived_time,2022.2.4,119.80667994761953,
,300,0.5,none,,red,green,,488.16463596578063,,,,,0,4,4,492,trial,,,,,,red,0.48816463596578064,0.48739495798319327,2.299351599998772,0.9971362000069348,7e-05,7e-05,0.03318,0.4834032000071602,0.516668700001901,1.9999573999957647,2.0332992000039667,2.299351599998772,2.299351599998772,2.4993566000048304,3.0249524999962887,0.7256008999975165,3.507973800005857,1.2086222000070848,0.4830213000095682,0.67405,0.12627062828802527,-0.0768603824361893,,,,None,,0.3,0.3025210084033613,0.8214946359657808,0.8235294117647058,trial_list_0.5_red.csv,0.816703000004054,0.8498342999955639,p9_base2_01,001,2023-05-03_16h03.26.394,expectation_shapes_perceived_time,2022.2.4,119.80667994761953,
,167,0.5,none,,green,red,,1191.520393902099,,,,,0,5,5,461,trial,,,,,,green,1.1915203939020989,1.2016806722689075,2.3001006999984384,0.9977044999977807,6e-05,6e-05,0.0335,1.191944499994861,1.2250388999964343,2.000088799992227,2.0334811999928206,2.3001006999984384,2.3001006999984384,2.4999994999961928,2.6664422000030754,0.36634150000463706,3.541581600002246,1.2414809000038076,0.8751393999991706,1.0461,-0.021331951376753235,-0.1462762380120222,,,,None,,0.167,0.1680672268907563,1.3918503939020987,1.403361344537815,trial_list_0.5_red.csv,1.3916972000006353,1.4251938999950653,p9_base2_01,001,2023-05-03_16h03.26.394,expectation_shapes_perceived_time,2022.2.4,119.80667994761953,
,233,0.5,none,,green,red,,718.0757334461382,,,,,0,6,6,167,trial,,,,,,green,0.7180757334461382,0.7226890756302521,2.300296300003538,0.9965438000072027,4e-05,4e-05,0.03327,0.7168093000072986,0.7498787000076845,1.9996787999989465,2.0330552000086755,2.300296300003538,2.300296300003538,2.499810699999216,2.7166043000033824,0.41630799999984447,3.9914972000115085,1.6912009000079706,1.2748929000081262,1.01719,-0.00797881206514086,-0.1476080232051059,,,,None,,0.233,0.23529411764705882,0.9844057334461382,0.9915966386554621,trial_list_0.5_red.csv,0.9836082000110764,1.0168455000093672,p9_base2_01,001,2023-05-03_16h03.26.394,expectation_shapes_perceived_time,2022.2.4,119.80667994761953,
,-300,0.5,none,,green,red,,1366.928480394548,,,,,0,7,7,393,trial,,,,,,green,1.3669284803945478,1.3781512605042017,2.300010700011626,0.9973285000014585,6e-05,6e-05,0.03315,1.3667593000136549,1.400065200010431,1.999865800011321,2.0332926000119187,2.300010700011626,2.300010700011626,2.499984800000675,3.257673000000068,0.9576622999884421,5.116275300009875,2.8162645999982487,1.8586023000098066,1.06113,-0.02821502286271445,-0.14510583186538858,,,,None,,-0.3,-0.3025210084033613,1.033598480394548,1.042016806722689,trial_list_0.5_red.csv,1.0334514999995008,1.066611300004297,p9_base2_01,001,2023-05-03_16h03.26.394,expectation_shapes_perceived_time,2022.2.4,119.80667994761953,
,100,0.5,none,,red,green,,1497.438700847606,,,,,0,8,8,320,trial,,,,,,red,1.497438700847606,1.504201680672269,2.299080500000855,0.9982776000106242,5e-05,5e-05,0.03307,1.4913585000031162,1.524790800001938,1.9991852000093786,2.032321300008334,2.299080500000855,2.299080500000855,2.4997280000097817,2.816133500004071,0.5170530000032159,3.3494719000009354,1.0503914000000805,0.5333383999968646,0.8196,0.07936281941253043,-0.12471300193397641,,,,None,,0.1,0.10084033613445378,1.630768700847606,1.638655462184874,trial_list_0.5_red.csv,1.6246265000081621,1.6582628000032855,p9_base2_01,001,2023-05-03_16h03.26.394,expectation_shapes_perceived_time,2022.2.4,119.80667994761953,
,-33,0.5,none,,green,red,,1049.449595621009,,,,,0,9,9,403,trial,,,,,,green,1.049449595621009,1.0588235294117647,2.3001848999992944,0.9962980999989668,5e-05,5e-05,0.03342,1.0499723999964772,1.0831624999991618,1.999928599994746,2.0330265999946278,2.3001848999992944,2.3001848999992944,2.499907899997197,2.3081526000023587,0.007967700003064238,5.724881599991932,3.424696699992637,3.416728999989573,1.04428,-0.02049541096161975,-0.14639579258299823,,,,None,,-0.033,-0.03361344537815126,0.9831195956210089,0.9915966386554621,trial_list_0.5_red.csv,0.9832525999954669,1.0166477000020677,p9_base2_01,001,2023-05-03_16h03.26.394,expectation_shapes_perceived_time,2022.2.4,119.80667994761953,
,167,0.5,none,,red,green,,179.91946701493285,,,,,0,10,10,228,trial,,,,,,red,0.17991946701493286,0.18487394957983191,2.299777799998992,0.9967137000057846,4e-05,4e-05,0.03318,0.18324080000456888,0.21677500000805594,2.000082200000179,2.0335373999987496,2.299777799998992,2.299777799998992,2.499701799999457,2.408300099996268,0.1085222999972757,3.1249204000050668,0.8251426000060746,0.716620300008799,0.14758,0.06610868317625139,0.13221736635250278,,,,None,,0.167,0.1680672268907563,0.3802494670149328,0.38655462184873945,trial_list_0.5_red.csv,0.3833331000059843,0.4166296000039438,p9_base2_01,001,2023-05-03_16h03.26.394,expectation_shapes_perceived_time,2022.2.4,119.80667994761953,
,-167,0.5,none,,green,red,,970.2122022512292,,,,,0,11,11,489,trial,,,,,,green,0.9702122022512292,0.9747899159663865,2.299656400005915,0.9972284000104992,7e-05,7e-05,0.03324,0.9665804999967804,1.0000698000076227,1.9992477000050712,2.0326177999959327,2.299656400005915,2.299656400005915,2.499741899999208,2.649641900003189,0.349985499997274,4.2746997000067495,1.9750433000008343,1.6250578000035603,0.34456,0.1305452649316489,0.06935217199493847,,,,None,,-0.167,-0.1680672268907563,0.7698822022512292,0.7731092436974789,trial_list_0.5_red.csv,0.7667342000058852,0.7998765999946045,p9_base2_01,001,2023-05-03_16h03.26.394,expectation_shapes_perceived_time,2022.2.4,119.80667994761953,
,167,0.5,none,,green,red,,1221.5873088244275,,,,,0,12,12,447,trial,,,,,,green,1.2215873088244276,1.2268907563025209,2.299715600005584,0.997862600008375,6e-05,6e-05,0.03317,1.2166608999978052,1.2503665999975055,1.9995645000017248,2.0330860999965807,2.299715600005584,2.299715600005584,2.4996555999969132,2.6412939000001643,0.34157829999458045,3.9826818000001367,1.6829661999945529,1.3413878999999724,0.61291,0.13862131282547635,-0.051341226972398644,,,,None,,0.167,0.1680672268907563,1.4219173088244275,1.4285714285714286,trial_list_0.5_red.csv,1.416860800003633,1.4503671999991639,p9_base2_01,001,2023-05-03_16h03.26.394,expectation_shapes_perceived_time,2022.2.4,119.80667994761953,
,-233,0.5,none,,red,green,,1378.928151798883,,,,,0,13,13,18,trial,,,,,,red,1.378928151798883,1.3865546218487395,2.300139799990575,0.9971033000038005,4e-05,4e-05,,1.3748724999895785,1.4081508999952348,1.9996683999925153,,2.300139799990575,2.300139799990575,2.5000155000016093,2.58310389998951,0.2829640999989351,3.1328714999981457,0.8327317000075709,0.5497676000086358,0.95781,0.019536904930460012,-0.1465267869784501,,,,None,,-0.233,-0.23529411764705882,1.112598151798883,1.1176470588235294,trial_list_0.5_red.csv,1.1083370999986073,1.1417449000000488,p9_base2_01,001,2023-05-03_16h03.26.394,expectation_shapes_perceived_time,2022.2.4,119.80667994761953,
,-300,0.5,none,,green,red,,1404.5535194798424,,,,,0,14,14,137,trial,,,,,,green,1.4045535194798424,1.4117647058823528,2.3003924999939045,0.9977034999901662,4e-05,4e-05,0.0333,1.4001153999997769,1.4337942999991355,2.000156699999934,2.033450000002631,2.3003924999939045,2.3003924999939045,2.499740400002338,2.6078367000009166,0.3074442000070121,3.424753300001612,1.1243608000077074,0.8169166000006953,1.08859,-0.04061024125549402,-0.14213584439422905,,,,None,,-0.3,-0.3025210084033613,1.0712235194798425,1.0756302521008403,trial_list_0.5_red.csv,1.0669736999989254,1.1002481000032276,p9_base2_01,001,2023-05-03_16h03.26.394,expectation_shapes_perceived_time,2022.2.4,119.80667994761953,
,33,0.5,none,,red,green,,641.3628858813165,,,,,0,15,15,360,trial,,,,,,red,0.6413628858813165,0.6470588235294117,2.2998397999908775,0.9974690999952145,4e-05,4e-05,,0.6416545999964001,0.674871199997142,2.0000394999951823,,2.2998397999908775,2.2998397999908775,2.499973099998897,2.2998397999908775,0.0,2.93299859999388,0.6331588000030024,0.6331588000030024,0.15028,0.06722675531467652,0.13165239582457486,,,,None,,0.033,0.03361344537815126,0.7076928858813165,0.7142857142857143,trial_list_0.5_red.csv,0.7083272999880137,0.741690099996049,p9_base2_01,001,2023-05-03_16h03.26.394,expectation_shapes_perceived_time,2022.2.4,119.80667994761953,
,-33,0.5,none,,green,red,,1718.6580890384073,,,,,0,16,16,253,trial,,,,,,green,1.7186580890384073,1.7310924369747898,2.3084510999906342,0.9969816000084393,5e-05,5e-05,0.03318,1.7165461999975378,1.7500720999960322,2.000162600001204,2.033307599995169,2.3084510999906342,2.3084510999906342,2.508101400002488,2.3084510999906342,0.0,3.099892899990664,0.7914418000000296,0.7914418000000296,1.0,0.0,-0.14782350948509485,,,,None,,-0.033,-0.03361344537815126,1.6523280890384073,1.6638655462184873,trial_list_0.5_red.csv,1.6499554000038188,1.6831785999966087,p9_base2_01,001,2023-05-03_16h03.26.394,expectation_shapes_perceived_time,2022.2.4,119.80667994761953,
,-33,0.5,none,,red,green,,1069.0201865243182,,,,,0,17,17,300,trial,,,,,,red,1.0690201865243183,1.0756302521008403,2.3001067000004696,0.9973507999966387,8e-05,8e-05,0.03277,1.0666296999988845,1.099804800003767,2.0002440999960527,2.03352929999528,2.3001067000004696,2.3001067000004696,2.4998096999916015,2.4498412999964785,0.1497345999960089,3.4413964999985183,1.1412897999980487,0.9915552000020398,1.0,0.0,-0.14782350948509485,,,,None,,-0.033,-0.03361344537815126,1.002690186524318,1.0084033613445378,trial_list_0.5_red.csv,0.999853000001167,1.033352400001604,p9_base2_01,001,2023-05-03_16h03.26.394,expectation_shapes_perceived_time,2022.2.4,119.80667994761953,
,167,0.5,none,,green,red,,1174.657361705926,,,,,0,18,18,135,trial,,,,,,green,1.174657361705926,1.184873949579832,2.3000272999925073,0.997247100007371,4e-05,4e-05,0.0333,1.1751504999992903,1.2081301999860443,1.9999447999871336,2.0333953999943333,2.3000272999925073,2.3000272999925073,2.4999663999915356,2.65019059999031,0.3501632999978028,3.233301499989466,0.9332741999969585,0.5831108999991557,1.02311,-0.010722481112968554,-0.14743411530331763,,,,None,,0.167,0.1680672268907563,1.3749873617059258,1.3865546218487395,trial_list_0.5_red.csv,1.3753014999965671,1.4091772999963723,p9_base2_01,001,2023-05-03_16h03.26.394,expectation_shapes_perceived_time,2022.2.4,119.80667994761953,
,-100,0.5,none,,green,red,,343.7735246839316,,,,,0,19,19,189,trial,,,,,,green,0.34377352468393163,0.3445378151260504,2.299781699999585,0.9976790000073379,4e-05,4e-05,0.03335,0.3413826999894809,0.3749039999966044,1.9997600999922724,2.0329438999906415,2.299781699999585,2.299781699999585,2.499619900001562,2.358186500001466,0.058404800001881085,3.01629359999788,0.7165118999982951,0.658107099996414,0.40646,0.14148635407123916,0.04281823873208553,,,,None,,-0.1,-0.10084033613445378,0.21044352468393163,0.21008403361344538,trial_list_0.5_red.csv,0.20819429999392014,0.2413588999916101,p9_base2_01,001,2023-05-03_16h03.26.394,expectation_shapes_perceived_time,2022.2.4,119.80667994761953,
,167,0.5,none,,red,green,,768.8323120062184,,,,,0,20,20,314,trial,,,,,,red,0.7688323120062185,0.7731092436974789,2.299814600002719,0.9976960999920266,4e-05,4e-05,0.03339,0.7666683999996167,0.7998852000018815,1.9999107000039658,2.033110000003944,2.299814600002719,2.299814600002719,2.4993422999978065,2.299814600002719,0.0,3.2746385000064038,0.9748239000036847,0.9748239000036847,0.58677,0.14236460811719537,-0.03980085818330194,,,,None,,0.167,0.1680672268907563,0.9691623120062185,0.9747899159663865,trial_list_0.5_red.csv,0.9667920000065351,0.9998570000025211,p9_base2_01,001,2023-05-03_16h03.26.394,expectation_shapes_perceived_time,2022.2.4,119.80667994761953,
,167,0.5,none,,red,green,,388.4944868693156,,,,,0,21,21,416,trial,,,,,,red,0.3884944868693156,0.3949579831932773,2.299949700012803,0.9976739999983693,4e-05,4e-05,,0.3919756000104826,0.42512090000673197,2.000071900009061,,2.299949700012803,2.299949700012803,2.4999666000076104,2.566592800008948,0.2666430999961449,3.1662071000027936,0.8662573999899905,0.5996142999938456,0.47675,0.14742937114914278,0.010787514962132398,,,,None,,0.167,0.1680672268907563,0.5888244868693155,0.5966386554621849,trial_list_0.5_red.csv,0.5918276000011247,0.6253419000131544,p9_base2_01,001,2023-05-03_16h03.26.394,expectation_shapes_perceived_time,2022.2.4,119.80667994761953,
,-300,0.5,none,,red,green,,1408.1543385188183,,,,,0,22,22,276,trial,,,,,,red,1.4081543385188184,1.4201680672268906,2.3001627000048757,0.9990207999944687,5e-05,5e-05,0.03308,1.4082449999987148,1.4414403999981005,2.000198100009584,2.0331903000042075,2.3001627000048757,2.3001627000048757,2.4999941999994917,2.6831164000032004,0.38295369999832474,3.3081740000052378,1.008011300000362,0.6250576000020374,1.01742,-0.008087785884026802,-0.14760209238348912,,,,None,,-0.3,-0.3025210084033613,1.0748243385188183,1.084033613445378,trial_list_0.5_red.csv,1.075160100008361,1.1082861000031698,p9_base2_01,001,2023-05-03_16h03.26.394,expectation_shapes_perceived_time,2022.2.4,119.80667994761953,
,-300,0.5,none,,red,green,,520.2885305653248,,,,,0,23,23,174,trial,,,,,,red,0.5202885305653248,0.5210084033613445,2.3000003000051947,0.9970073000004049,2e-05,2e-05,0.03322,0.5167685000051279,0.5499184000073001,1.9999602000025334,2.033288000005996,2.3000003000051947,2.3000003000051947,2.500007299997378,2.6418498999992153,0.34184959999402054,3.2999908000056166,0.9999905000004219,0.6581409000064014,0.28281,0.11472789525770169,0.09321641489688262,,,,None,,-0.3,-0.3025210084033613,0.1869585305653248,0.18487394957983191,trial_list_0.5_red.csv,0.1833861000050092,0.21692380000604317,p9_base2_01,001,2023-05-03_16h03.26.394,expectation_shapes_perceived_time,2022.2.4,119.80667994761953,
,100,0.5,none,,red,green,,1284.02140077551,,,,,0,24,24,256,trial,,,,,,red,1.28402140077551,1.2941176470588234,2.3000176000059582,0.997056700012763,4e-05,4e-05,0.03336,1.2839514000079362,1.3173194999981206,2.0000093999988167,2.0334640000073705,2.3000176000059582,2.3000176000059582,2.5000110999972094,2.5082780000084313,0.20826040000247303,3.17500889999792,0.8749912999919616,0.6667308999894885,0.48383,0.14763278306556854,0.007506751681300094,,,,None,,0.1,0.10084033613445378,1.41735140077551,1.4285714285714286,trial_list_0.5_red.csv,1.4173233000037726,1.4499266000057105,p9_base2_01,001,2023-05-03_16h03.26.394,expectation_shapes_perceived_time,2022.2.4,119.80667994761953,
,-300,0.5,none,,green,red,,1071.9775396473449,0,0,0,0,0,25,25,47,fam,0.5567147999972804,0.5567147999972804,270.0,2.557017699989956,2.557017699989956,,,,,,,,,,,,,,,,,,,,,,,,,,,,,,,,,,,,p9_base2_01,001,2023-05-03_16h03.26.394,expectation_shapes_perceived_time,2022.2.4,119.80667994761953,
,-300,0.5,none,,green,red,,1071.9775396473449,1,0,1,0,0,25,25,47,fam,0.497008200007258,0.497008200007258,270.0,2.4967730000062147,2.4967730000062147,,,,,,,,,,,,,,,,,,,,,,,,,,,,,,,,,,,,p9_base2_01,001,2023-05-03_16h03.26.394,expectation_shapes_perceived_time,2022.2.4,119.80667994761953,
,-300,0.5,none,,green,red,,1071.9775396473449,2,0,2,0,0,25,25,47,fam,0.4977241000015056,0.4977241000015056,270.0,2.4974243999895407,2.4974243999895407,,,,,,,,,,,,,,,,,,,,,,,,,,,,,,,,,,,,p9_base2_01,001,2023-05-03_16h03.26.394,expectation_shapes_perceived_time,2022.2.4,119.80667994761953,
,-300,0.5,none,,green,red,,1071.9775396473449,3,0,3,0,0,25,25,47,fam,0.49850830000650603,0.49850830000650603,270.0,2.4987435000075493,2.4987435000075493,,,,,,,,,,,,,,,,,,,,,,,,,,,,,,,,,,,,p9_base2_01,001,2023-05-03_16h03.26.394,expectation_shapes_perceived_time,2022.2.4,119.80667994761953,
,-300,0.5,none,,green,red,,1071.9775396473449,,,,,0,25,25,47,trial,,,,,,green,1.071977539647345,1.0756302521008403,2.29964050000126,0.9987044000008609,4e-05,4e-05,,1.0665085000073304,1.0997515000053681,1.9992519000079483,,2.29964050000126,2.29964050000126,2.4996548000053735,2.29964050000126,0.0,3.8661194000014802,1.5664789000002202,1.5664789000002202,0.93426,0.030314289547117384,-0.1446818364748784,,,,None,,-0.3,-0.3025210084033613,0.7386475396473449,0.7394957983193277,trial_list_0.5_red.csv,0.7330871000012849,0.7662779999955092,p9_base2_01,001,2023-05-03_16h03.26.394,expectation_shapes_perceived_time,2022.2.4,119.80667994761953,
,-100,0.5,none,,green,red,,1546.5234159073605,,,,,0,26,26,459,trial,,,,,,green,1.5465234159073604,1.5546218487394958,2.299520099986694,0.9974159999983385,3e-05,3e-05,0.03333,1.5416143999900669,1.5749115999933565,1.9996119999996154,2.0331465999915963,2.299520099986694,2.299520099986694,2.4998594999924535,2.299520099986694,0.0,3.1417097999947146,0.8421897000080207,0.8421897000080207,1.0,0.0,-0.14782350948509485,,,,None,,-0.1,-0.10084033613445378,1.4131934159073605,1.4201680672268906,trial_list_0.5_red.csv,1.4082774999988033,1.4415384999883827,p9_base2_01,001,2023-05-03_16h03.26.394,expectation_shapes_perceived_time,2022.2.4,119.80667994761953,
,100,0.5,none,,red,green,,1047.783298566238,,,,,0,27,27,98,trial,,,,,,red,1.047783298566238,1.0588235294117647,2.300185000000056,0.9966701999946963,4e-05,4e-05,,1.0499166999943554,1.0834608000004664,1.9999192999966908,,2.300185000000056,2.300185000000056,2.500092300004326,2.716535700004897,0.4163507000048412,3.1160759999911534,0.8158909999910975,0.3995402999862563,1.0,0.0,-0.14782350948509485,,,,None,,0.1,0.10084033613445378,1.181113298566238,1.1932773109243697,trial_list_0.5_red.csv,1.1835729000013089,1.2166195000027074,p9_base2_01,001,2023-05-03_16h03.26.394,expectation_shapes_perceived_time,2022.2.4,119.80667994761953,
,-233,0.5,none,,green,red,,964.3409681494982,,,,,0,28,28,333,trial,,,,,,green,0.9643409681494982,0.9747899159663865,2.2998460000089835,0.9992476999905193,6e-05,6e-05,0.03297,0.9663124000071548,0.9996147000056226,1.9998265000031097,2.0329243000014685,2.2998460000089835,2.2998460000089835,2.4997084000060568,3.1994287999987137,0.8995827999897301,3.690926600000239,1.3910805999912554,0.4914978000015253,1.02646,-0.012276074278853584,-0.14731289134624298,,,,None,,-0.233,-0.23529411764705882,0.6980109681494981,0.7058823529411764,trial_list_0.5_red.csv,0.6996396000031382,0.733005600006436,p9_base2_01,001,2023-05-03_16h03.26.394,expectation_shapes_perceived_time,2022.2.4,119.80667994761953,
,33,0.5,none,,green,red,,805.8340049702664,,,,,0,29,29,259,trial,,,,,,green,0.8058340049702664,0.8151260504201681,2.300211900001159,0.9978439000115031,4e-05,4e-05,0.03314,0.8082413999945857,0.8415810000005877,2.0002748999977484,2.0332937000057427,2.300211900001159,2.300211900001159,2.4999843999976292,2.6496811999968486,0.34946929999568965,3.3328841000038665,1.0326722000027075,0.6832029000070179,1.0,0.0,-0.14782350948509485,,,,None,,0.033,0.03361344537815126,0.8721640049702665,0.8739495798319328,trial_list_0.5_red.csv,0.8665382000035606,0.8999447999958647,p9_base2_01,001,2023-05-03_16h03.26.394,expectation_shapes_perceived_time,2022.2.4,119.80667994761953,
,-300,0.5,none,,red,green,,1496.9385574237808,,,,,0,30,30,136,trial,,,,,,red,1.4969385574237808,1.504201680672269,2.3008629999967525,0.9972013000078732,1e-05,1e-05,,1.4925365999952191,1.5257354000059422,2.0007209000032162,,2.3008629999967525,2.3008629999967525,2.500656499993056,2.7752873999997973,0.47442440000304487,3.2755910999985645,0.974728100001812,0.5003036999987671,1.09277,-0.04247677288753861,-0.14158924295846204,,,,None,,-0.3,-0.3025210084033613,1.1636085574237809,1.1680672268907561,trial_list_0.5_red.csv,1.1592531000060262,1.1922215999948094,p9_base2_01,001,2023-05-03_16h03.26.394,expectation_shapes_perceived_time,2022.2.4,119.80667994761953,
,100,0.5,none,,green,red,,175.75173671486138,,,,,0,31,31,191,trial,,,,,,green,0.17575173671486138,0.1764705882352941,2.300187199987704,0.996383199992124,4e-05,4e-05,0.0332,0.1750356999982614,0.20832099999825004,1.9998215999949025,2.0335783999908017,2.300187199987704,2.300187199987704,2.500003499997547,2.300187199987704,0.0,3.1999836999893887,0.8997965000016848,0.8997965000016848,0.76767,0.09856795623345027,-0.11016418637856207,,,,None,,0.1,0.10084033613445378,0.3090817367148614,0.31092436974789917,trial_list_0.5_red.csv,0.3082616999890888,0.3418276999873342,p9_base2_01,001,2023-05-03_16h03.26.394,expectation_shapes_perceived_time,2022.2.4,119.80667994761953,
,33,0.5,none,,green,red,,1072.4574842770958,,,,,0,32,32,199,trial,,,,,,green,1.0724574842770958,1.0756302521008403,2.2998366999963764,0.9975053000089247,4e-05,4e-05,0.03334,1.0667151999950875,1.0998895999946399,1.9996891999908257,2.0330630999960704,2.2998366999963764,2.2998366999963764,2.4997906999924453,2.2998366999963764,0.0,3.9079093000036664,1.60807260000729,1.60807260000729,0.9935,0.0030161782726479893,-0.1477927353597515,,,,None,,0.033,0.03361344537815126,1.1387874842770958,1.1428571428571428,trial_list_0.5_red.csv,1.1332248999970034,1.1665474000037648,p9_base2_01,001,2023-05-03_16h03.26.394,expectation_shapes_perceived_time,2022.2.4,119.80667994761953,
,300,0.5,none,,red,green,,1010.7287665074036,,,,,0,33,33,462,trial,,,,,,red,1.0107287665074036,1.0168067226890756,2.2997771999944234,0.9977291999966837,5e-05,5e-05,0.0336,1.0086359999986598,1.041758799998206,1.9997941000037827,2.0333612999966135,2.2997771999944234,2.2997771999944234,2.499779399993713,2.6162684000009904,0.31649120000656694,3.2164826999942306,0.9167054999998072,0.6002142999932403,1.00936,-0.004345870983325183,-0.14775961343305624,,,,None,,0.3,0.3025210084033613,1.3440587665074035,1.352941176470588,trial_list_0.5_red.csv,1.3417646000016248,1.3744532999990042,p9_base2_01,001,2023-05-03_16h03.26.394,expectation_shapes_perceived_time,2022.2.4,119.80667994761953,
,233,0.5,none,,red,green,,1121.6972027350826,,,,,0,34,34,222,trial,,,,,,red,1.1216972027350827,1.1260504201680672,2.2996762999973726,0.9963508999935584,3e-05,3e-05,,1.1171360999869648,1.1502530999860028,2.00018089999503,,2.2996762999973726,2.2996762999973726,2.4997093999991193,2.308006099992781,0.008329799995408393,3.11660129998927,0.8169249999918975,0.8085951999964891,0.97252,0.012744785856570583,-0.1472730810092601,,,,None,,0.233,0.23529411764705882,1.3880272027350824,1.3949579831932772,trial_list_0.5_red.csv,1.3834423999942373,1.4168645999889122,p9_base2_01,001,2023-05-03_16h03.26.394,expectation_shapes_perceived_time,2022.2.4,119.80667994761953,
,-100,0.5,none,,green,red,,969.447582893914,,,,,0,35,35,53,trial,,,,,,green,0.9694475828939141,0.9747899159663865,2.2992283000057796,0.9969496999983676,5e-05,5e-05,0.03296,0.9664923999953317,0.9999148000060814,1.9998626000015065,2.033025600001565,2.2992283000057796,2.2992283000057796,2.499264400001266,2.2992283000057796,0.0,3.5747092999954475,1.275480999989668,1.275480999989668,0.82748,0.0762547220227304,-0.12663730621632013,,,,None,,-0.1,-0.10084033613445378,0.836117582893914,0.8403361344537815,trial_list_0.5_red.csv,0.8333030999929179,0.866592699996545,p9_base2_01,001,2023-05-03_16h03.26.394,expectation_shapes_perceived_time,2022.2.4,119.80667994761953,
,-233,0.5,none,,green,red,,849.837306466305,,,,,0,36,36,15,trial,,,,,,green,0.849837306466305,0.8571428571428571,2.3000751999934437,0.9969093999970937,5e-05,5e-05,0.03352,0.8498702999931993,0.8831103999982588,1.9997948999953223,2.0333675000001676,2.3000751999934437,2.3000751999934437,2.499753800002509,2.7582652999990387,0.458190100005595,3.3246875000040745,1.0246123000106309,0.5664222000050358,0.98727,0.005908215695965052,-0.14770539239912628,,,,None,,-0.233,-0.23529411764705882,0.583507306466305,0.5882352941176471,trial_list_0.5_red.csv,0.5831073000008473,0.616599100001622,p9_base2_01,001,2023-05-03_16h03.26.394,expectation_shapes_perceived_time,2022.2.4,119.80667994761953,
,-300,0.5,none,,red,green,,804.9164973392105,,,,,0,37,37,480,trial,,,,,,red,0.8049164973392106,0.8067226890756303,2.2993588999961503,0.997447599991574,7e-05,7e-05,0.03294,0.7998974999936763,0.8329639000003226,1.999726299996837,2.0329896999901393,2.2993588999961503,2.2993588999961503,2.4993736000033095,2.757647699996596,0.4582888000004459,3.5659785000025295,1.2666196000063792,0.8083308000059333,0.6346,0.1348034372699143,-0.06066154677146144,,,,None,,-0.3,-0.3025210084033613,0.47158649733921054,0.47058823529411764,trial_list_0.5_red.csv,0.4661857999890344,0.4996441999974195,p9_base2_01,001,2023-05-03_16h03.26.394,expectation_shapes_perceived_time,2022.2.4,119.80667994761953,
,33,0.5,none,,green,red,,342.2995598128512,,,,,0,38,38,437,trial,,,,,,green,0.3422995598128512,0.3445378151260504,2.300403000001097,0.9964099000062561,2e-05,2e-05,0.03371,0.3421612000092864,0.3752946000022348,2.000306300004013,2.03374860000622,2.300403000001097,2.300403000001097,2.500233400001889,2.300403000001097,0.0,3.0835973000066588,0.7831943000055617,0.7831943000055617,0.17781,0.07834630333465029,0.12535408533544046,,,,None,,0.033,0.03361344537815126,0.4086295598128512,0.4117647058823529,trial_list_0.5_red.csv,0.40887290000682697,0.44207380000443663,p9_base2_01,001,2023-05-03_16h03.26.394,expectation_shapes_perceived_time,2022.2.4,119.80667994761953,
,-100,0.5,none,,red,green,,521.4717817877367,,,,,0,39,39,422,trial,,,,,,red,0.5214717817877368,0.5210084033613445,2.2997128999995766,0.9962791999860201,4e-05,4e-05,0.03344,0.5163208000012673,0.5497395999991568,1.9996955000096932,2.0333327000116697,2.2997128999995766,2.2997128999995766,2.4998125999991316,2.633288299999549,0.33357539999997243,3.2246918000018923,0.9249789000023156,0.5914035000023432,0.25,0.10452700597570448,0.10452700597570448,,,,None,,-0.1,-0.10084033613445378,0.3881417817877368,0.3949579831932773,trial_list_0.5_red.csv,0.3914342000061879,0.42470240000693593,p9_base2_01,001,2023-05-03_16h03.26.394,expectation_shapes_perceived_time,2022.2.4,119.80667994761953,
,300,0.5,none,,red,green,,214.48277442368104,,,,,0,40,40,330,trial,,,,,,red,0.21448277442368105,0.2184873949579832,2.300094399994123,0.9968481000105385,4e-05,4e-05,0.03338,0.2167159999953583,0.24996430000464898,1.999845500002266,2.0336821999953827,2.300094399994123,2.300094399994123,2.499942299997201,2.5082213999994565,0.20812700000533368,3.2998382999940077,0.9997438999998849,0.7916168999945512,0.189,0.08270324088790265,0.12252331983392986,,,,None,,0.3,0.3025210084033613,0.547812774423681,0.5546218487394958,trial_list_0.5_red.csv,0.5499287999991793,0.5832751999987522,p9_base2_01,001,2023-05-03_16h03.26.394,expectation_shapes_perceived_time,2022.2.4,119.80667994761953,
,300,0.5,none,,red,green,,844.8682961086574,,,,,0,41,41,246,trial,,,,,,red,0.8448682961086574,0.8487394957983193,2.2992271999974037,0.997426700007054,5e-05,5e-05,0.03326,0.8414121999958297,0.874766399996588,1.9995161999977427,2.0327035000082105,2.2992271999974037,2.2992271999974037,2.4996239000029163,2.5330341999942902,0.2338069999968866,3.8662048999976832,1.5669777000002796,1.333170700003393,0.52514,0.14736279141094527,-0.011661803636837397,,,,None,,0.3,0.3025210084033613,1.1781982961086575,1.184873949579832,trial_list_0.5_red.csv,1.1747021000046516,1.2079990000056569,p9_base2_01,001,2023-05-03_16h03.26.394,expectation_shapes_perceived_time,2022.2.4,119.80667994761953,
,167,0.5,none,,green,red,,1476.9038168940533,,,,,0,42,42,411,trial,,,,,,green,1.4769038168940534,1.4873949579831933,2.2994803999899887,0.9972205999947619,4e-05,4e-05,,1.474955099998624,1.5085327999986475,2.000221900001634,,2.2994803999899887,2.2994803999899887,2.4994730999897,2.2994803999899887,0.0,4.083132300002035,1.783651900012046,1.783651900012046,1.22171,-0.09483694126500895,-0.11339199499077157,,,,None,,0.167,0.1680672268907563,1.6772338168940533,1.6890756302521008,trial_list_0.5_red.csv,1.674958899995545,1.7082950999902096,p9_base2_01,001,2023-05-03_16h03.26.394,expectation_shapes_perceived_time,2022.2.4,119.80667994761953,
,-300,0.5,none,,green,red,,1204.9769083726474,,,,,0,43,43,491,trial,,,,,,green,1.2049769083726474,1.2100840336134453,2.2998197999986587,0.9972619000036502,3e-05,3e-05,0.03358,1.2002696999988984,1.2335066000086954,2.000110400011181,2.0333849000016926,2.2998197999986587,2.2998197999986587,2.5002041999978246,2.650032800011104,0.35021300001244526,3.2668534999975236,0.9670336999988649,0.6168206999864196,0.92756,0.033350224810237444,-0.1440123344078435,,,,None,,-0.3,-0.3025210084033613,0.8716469083726474,0.8739495798319328,trial_list_0.5_red.csv,0.8667875000101048,0.9005092000006698,p9_base2_01,001,2023-05-03_16h03.26.394,expectation_shapes_perceived_time,2022.2.4,119.80667994761953,
,-100,0.5,none,,green,red,,1338.894047433705,,,,,0,44,44,247,trial,,,,,,green,1.338894047433705,1.3445378151260503,2.3000575000041863,0.9968015999911586,4e-05,4e-05,,1.333834899996873,1.3671709999907762,2.0003802999999607,,2.3000575000041863,2.3000575000041863,2.4996232999983476,2.3000575000041863,0.0,3.7246756999957142,1.424618199991528,1.424618199991528,1.2313,-0.09820859423082864,-0.11048466850968224,,,,None,,-0.1,-0.10084033613445378,1.205564047433705,1.2100840336134453,trial_list_0.5_red.csv,1.200435299993842,1.2335404999903403,p9_base2_01,001,2023-05-03_16h03.26.394,expectation_shapes_perceived_time,2022.2.4,119.80667994761953,
,-167,0.5,none,,red,green,,1318.6493875830588,,,,,0,45,45,14,trial,,,,,,red,1.3186493875830587,1.3277310924369747,2.299930900000618,0.9977343000064138,5e-05,5e-05,0.0332,1.3167221000039717,1.3500921000086237,2.000018100006855,2.033170599999721,2.299930900000618,2.299930900000618,2.4999853000044823,2.8248867000074824,0.5249558000068646,3.2327851000009105,0.9328542000002926,0.40789839999342803,1.36102,-0.13395517199032314,-0.06251241359548412,,,,None,,-0.167,-0.1680672268907563,1.1183193875830588,1.1260504201680672,trial_list_0.5_red.csv,1.1165708000044106,1.1498454000102356,p9_base2_01,001,2023-05-03_16h03.26.394,expectation_shapes_perceived_time,2022.2.4,119.80667994761953,
,-100,0.5,none,,green,red,,1680.934290732484,,,,,0,46,46,373,trial,,,,,,green,1.680934290732484,1.6890756302521008,2.2997580999945058,0.9990185999922687,0.00015,0.00015,0.03321,1.6751397000043653,1.7084085999958916,2.000050899994676,2.0332040000066627,2.2997580999945058,2.2997580999945058,2.4998217999964254,2.924568400005228,0.6248103000107221,3.6827209000039147,1.382962800009409,0.7581524999986868,1.52886,-0.14721642885242012,0.013383311713856375,,,,None,,-0.1,-0.10084033613445378,1.547604290732484,1.5546218487394958,trial_list_0.5_red.csv,1.5417556000029435,1.575029200001154,p9_base2_01,001,2023-05-03_16h03.26.394,expectation_shapes_perceived_time,2022.2.4,119.80667994761953,
,33,0.5,none,,red,green,,1053.122430852518,,,,,0,47,47,240,trial,,,,,,red,1.053122430852518,1.0588235294117647,2.2997828000079608,0.9977091000037035,8e-05,8e-05,,1.0500018000020646,1.0830220000061672,2.0000160000054166,,2.2997828000079608,2.2997828000079608,2.4996929000044474,2.3578211999993073,0.05803839999134652,3.716365600004792,1.4165827999968315,1.358544400005485,0.97936,0.009578755718809874,-0.14751283806967208,,,,None,,0.033,0.03361344537815126,1.1194524308525178,1.1260504201680672,trial_list_0.5_red.csv,1.116390399998636,1.1497880000097211,p9_base2_01,001,2023-05-03_16h03.26.394,expectation_shapes_perceived_time,2022.2.4,119.80667994761953,
,233,0.5,none,,red,green,,265.66182184636153,,,,,0,48,48,102,trial,,,,,,red,0.26566182184636156,0.2689075630252101,2.299879400001373,0.9975912000081735,4e-05,4e-05,0.03316,0.2663238000095589,0.29980049999721814,1.9999936999956844,2.0332406000088667,2.299879400001373,2.299879400001373,2.500077400007285,2.299879400001373,0.0,3.2246046000072965,0.9247252000059234,0.9247252000059234,0.56197,0.1450309094883583,-0.028597644124465017,,,,None,,0.233,0.23529411764705882,0.5319918218463615,0.5378151260504201,trial_list_0.5_red.csv,0.5331270000024233,0.5664942000003066,p9_base2_01,001,2023-05-03_16h03.26.394,expectation_shapes_perceived_time,2022.2.4,119.80667994761953,
,100,0.5,none,,red,green,,657.4586491517475,,,,,0,49,49,376,trial,,,,,,red,0.6574586491517476,0.6638655462184874,2.299652799993055,0.9977134999935515,5e-05,5e-05,0.03307,0.6580230999970809,0.6911436999944272,1.9996280999912415,2.0329301999881864,2.299652799993055,2.299652799993055,2.4995745999913197,2.299652799993055,0.0,3.5497073999868007,1.2500545999937458,1.2500545999937458,0.44275,0.1454391029877531,0.02644347327050056,,,,None,,0.1,0.10084033613445378,0.7907886491517475,0.7983193277310924,trial_list_0.5_red.csv,0.7911043999920366,0.8250879999977769,p9_base2_01,001,2023-05-03_16h03.26.394,expectation_shapes_perceived_time,2022.2.4,119.80667994761953,
,-100,0.5,none,,green,red,,1126.5203597642717,0,0,0,0,0,50,50,61,fam,0.5565566000004765,0.5565566000004765,270.0,2.5564873999974225,2.5564873999974225,,,,,,,,,,,,,,,,,,,,,,,,,,,,,,,,,,,,p9_base2_01,001,2023-05-03_16h03.26.394,expectation_shapes_perceived_time,2022.2.4,119.80667994761953,
,-100,0.5,none,,green,red,,1126.5203597642717,1,0,1,0,0,50,50,61,fam,0.4988694000057876,0.4988694000057876,270.0,2.49906300001021,2.49906300001021,,,,,,,,,,,,,,,,,,,,,,,,,,,,,,,,,,,,p9_base2_01,001,2023-05-03_16h03.26.394,expectation_shapes_perceived_time,2022.2.4,119.80667994761953,
,-100,0.5,none,,green,red,,1126.5203597642717,2,0,2,0,0,50,50,61,fam,0.49729040000238456,0.49729040000238456,270.0,2.497374900005525,2.497374900005525,,,,,,,,,,,,,,,,,,,,,,,,,,,,,,,,,,,,p9_base2_01,001,2023-05-03_16h03.26.394,expectation_shapes_perceived_time,2022.2.4,119.80667994761953,
,-100,0.5,none,,green,red,,1126.5203597642717,3,0,3,0,0,50,50,61,fam,0.4969699999928707,0.4969699999928707,270.0,2.496979100003955,2.496979100003955,,,,,,,,,,,,,,,,,,,,,,,,,,,,,,,,,,,,p9_base2_01,001,2023-05-03_16h03.26.394,expectation_shapes_perceived_time,2022.2.4,119.80667994761953,
,-100,0.5,none,,green,red,,1126.5203597642717,,,,,0,50,50,61,trial,,,,,,green,1.1265203597642717,1.134453781512605,2.299526299990248,0.9975904000020819,4e-05,4e-05,0.03334,1.1248660999990534,1.1585507999989204,2.000008999995771,2.0334809999912977,2.299526299990248,2.299526299990248,2.499485899999854,2.299526299990248,0.0,3.141439499988337,0.8419131999980891,0.8419131999980891,1.01497,-0.006948710627291302,-0.14766010082994016,,,,None,,-0.1,-0.10084033613445378,0.9931903597642716,1.0,trial_list_0.5_red.csv,0.991655499994522,1.0248044999898411,p9_base2_01,001,2023-05-03_16h03.26.394,expectation_shapes_perceived_time,2022.2.4,119.80667994761953,
,-300,0.5,none,,green,red,,897.2780234932461,,,,,0,51,51,55,trial,,,,,,green,0.8972780234932461,0.8991596638655461,2.299771999998484,0.9959741000056965,4e-05,4e-05,0.03332,0.8914130000048317,0.9248871000017971,1.9998177999950713,2.0333893000060925,2.299771999998484,2.299771999998484,2.499841299999389,2.774855600000592,0.47508360000210814,3.524693600003957,1.224921600005473,0.7498380000033649,0.50568,0.14779994632092425,-0.0026392847557307904,,,,None,,-0.3,-0.3025210084033613,0.563948023493246,0.5714285714285714,trial_list_0.5_red.csv,0.5665860000008252,0.599904400005471,p9_base2_01,001,2023-05-03_16h03.26.394,expectation_shapes_perceived_time,2022.2.4,119.80667994761953,
,-233,0.5,none,,red,green,,1319.8224765272143,,,,,0,52,52,424,trial,,,,,,red,1.3198224765272144,1.3277310924369747,2.3000176000059582,0.9972769999876618,4e-05,4e-05,,1.3166341000032844,1.3500041000079364,2.0000532000121893,,2.3000176000059582,2.3000176000059582,2.4998769000085304,2.3000176000059582,0.0,2.9582166000036523,0.658198999997694,0.658198999997694,1.33039,-0.12733013078899288,-0.07509212841402144,,,,None,,-0.233,-0.23529411764705882,1.0534924765272144,1.0588235294117647,trial_list_0.5_red.csv,1.049906500003999,1.0832451000023866,p9_base2_01,001,2023-05-03_16h03.26.394,expectation_shapes_perceived_time,2022.2.4,119.80667994761953,
,33,0.5,none,,red,green,,1358.59990891778,,,,,0,53,53,100,trial,,,,,,red,1.35859990891778,1.3697478991596639,2.3000678999960655,0.9963923000032082,2e-05,2e-05,0.0332,1.3583463999966625,1.3917757000017446,2.000050000002375,2.0335550000017975,2.3000678999960655,2.3000678999960655,2.5000823000009404,2.5668009000073653,0.26673300001129974,4.4166475999954855,2.11657969999942,1.8498466999881202,0.99581,0.0019448778261842293,-0.14781071479000144,,,,None,,0.033,0.03361344537815126,1.42492990891778,1.4369747899159664,trial_list_0.5_red.csv,1.424886000007973,1.4582673999975668,p9_base2_01,001,2023-05-03_16h03.26.394,expectation_shapes_perceived_time,2022.2.4,119.80667994761953,
,233,0.5,none,,red,green,,556.9204719265811,,,,,0,54,54,418,trial,,,,,,red,0.556920471926581,0.5630252100840336,2.299980299998424,0.995716799996444,6e-05,6e-05,0.03326,0.5584260000032373,0.5916523999912897,1.9999817999923835,2.0333337999909418,2.299980299998424,2.299980299998424,2.500194099993678,2.299980299998424,0.0,3.083026799999061,0.783046500000637,0.783046500000637,0.50922,0.14776145091414616,-0.004282940606207135,,,,None,,0.233,0.23529411764705882,0.8232504719265811,0.8319327731092436,trial_list_0.5_red.csv,0.8251057000015862,0.8583759000030113,p9_base2_01,001,2023-05-03_16h03.26.394,expectation_shapes_perceived_time,2022.2.4,119.80667994761953,
,300,0.5,none,,red,green,,1370.4976931534418,,,,,0,55,55,478,trial,,,,,,red,1.3704976931534418,1.3781512605042017,2.3002879999985453,0.9978751000016928,7e-05,7e-05,0.03311,1.3666038999945158,1.399885999999242,1.9997831999935443,2.0331178000051295,2.3002879999985453,2.3002879999985453,2.500097600001027,2.7996914999966975,0.49940349999815226,3.6081949999934295,1.3079069999948842,0.808503499996732,0.91525,0.03889493833080333,-0.14261477387961224,,,,None,,0.3,0.3025210084033613,1.7038276931534417,1.7142857142857142,trial_list_0.5_red.csv,1.6999710999953095,1.7334464000014123,p9_base2_01,001,2023-05-03_16h03.26.394,expectation_shapes_perceived_time,2022.2.4,119.80667994761953,
,-100,0.5,none,,red,green,,713.0572550429758,,,,,0,56,56,328,trial,,,,,,red,0.7130572550429758,0.7142857142857143,2.2998995000089053,0.996856800004025,4e-05,4e-05,0.03337,0.7077951999963261,0.7411200000060489,2.0000631000002613,2.0332855000015115,2.2998995000089053,2.2998995000089053,2.4999371000012616,2.2998995000089053,0.0,2.9582755000010366,0.6583759999921313,0.6583759999921313,0.59693,0.14102269925907363,-0.044321419767137424,,,,None,,-0.1,-0.10084033613445378,0.5797272550429758,0.5798319327731092,trial_list_0.5_red.csv,0.5745060000044759,0.6077538999961689,p9_base2_01,001,2023-05-03_16h03.26.394,expectation_shapes_perceived_time,2022.2.4,119.80667994761953,
,100,0.5,none,,green,red,,515.8552651466734,,,,,0,57,57,77,trial,,,,,,green,0.5158552651466735,0.5210084033613445,2.2998978000105126,0.9965135999955237,4e-05,4e-05,0.03336,0.5168598000018392,0.5499888000049395,1.9998205000010785,2.0331322999991244,2.2998978000105126,2.2998978000105126,2.4996062999998685,2.3081490000040503,0.008251199993537739,2.858113100010087,0.5582152999995742,0.5499641000060365,0.57914,0.14327790473271712,-0.03637625560571574,,,,None,,0.1,0.10084033613445378,0.6491852651466735,0.6554621848739496,trial_list_0.5_red.csv,0.6498732000036398,0.6834902000118745,p9_base2_01,001,2023-05-03_16h03.26.394,expectation_shapes_perceived_time,2022.2.4,119.80667994761953,
,-100,0.5,none,,red,green,,1480.556053040618,,,,,0,58,58,110,trial,,,,,,red,1.480556053040618,1.4873949579831933,2.299934900001972,0.9973485999944387,4e-05,4e-05,0.03337,1.4751622000039788,1.508335899998201,2.000122500001453,2.033370899996953,2.299934900001972,2.299934900001972,2.499984800000675,2.3500222000002395,0.050087299998267554,3.441536600003019,1.141601700001047,1.0915144000027794,1.06283,-0.02899057536277949,-0.14495287681389746,,,,None,,-0.1,-0.10084033613445378,1.3472260530406182,1.352941176470588,trial_list_0.5_red.csv,1.341731599997729,1.375044500004151,p9_base2_01,001,2023-05-03_16h03.26.394,expectation_shapes_perceived_time,2022.2.4,119.80667994761953,
,-167,0.5,none,,green,red,,710.2915798632205,,,,,0,59,59,425,trial,,,,,,green,0.7102915798632204,0.7142857142857143,2.3000157000060426,0.9976257999951486,4e-05,4e-05,0.0334,0.7085194999963278,0.7416570000059437,1.9999475000076927,2.0333300000056624,2.3000157000060426,2.3000157000060426,2.499996700003976,2.3000157000060426,0.0,3.8999107999989064,1.5998950999928638,1.5998950999928638,0.96827,0.014708988952502843,-0.14708988952502844,,,,None,,-0.167,-0.1680672268907563,0.5099615798632204,0.5126050420168067,trial_list_0.5_red.csv,0.5084129000024404,0.5416704000090249,p9_base2_01,001,2023-05-03_16h03.26.394,expectation_shapes_perceived_time,2022.2.4,119.80667994761953,
,300,0.5,none,,green,red,,1036.0338891295416,,,,,0,60,60,389,trial,,,,,,green,1.0360338891295418,1.042016806722689,2.2995632000092883,0.997637799999211,5e-05,5e-05,0.03319,1.0333553000091342,1.0664490000053775,1.9994856000121217,2.033013899999787,2.2995632000092883,2.2995632000092883,2.4996096000104444,2.9659664000064367,0.6664031999971485,3.782759800000349,1.4831965999910608,0.8167933999939123,0.9813,0.008680495368927125,-0.1475684212717611,,,,None,,0.3,0.3025210084033613,1.3693638891295417,1.3781512605042017,trial_list_0.5_red.csv,1.3665521000075387,1.3997243000048911,p9_base2_01,001,2023-05-03_16h03.26.394,expectation_shapes_perceived_time,2022.2.4,119.80667994761953,
