id,delay,expectation,congruency,trial_num,stim_color,distractor_color,block,targetTimeMs,famLoop.thisRepN,famLoop.thisTrialN,famLoop.thisN,famLoop.thisIndex,trialss.thisRepN,trialss.thisTrialN,trialss.thisN,trialss.thisIndex,isTrial,handMove.started,audioCue2Start.started,handOri,handMove.ended,audioCue2End.started,target_color,expected_target_onset,expected_target_onset_in_frames,fixationPoint.started,fixationPoint.stopped,audCueStart.started,placeholder.started,audCueStart.stopped,target.started,target.stopped,audCueEnd.started,audCueEnd.stopped,responsePointer.started,cueForRep.started,space2pass.started,responseStarted,rtUntillMotionTreshold,responsePointer.stopped,rTAfterMotionTreshold,rtDurationBtwRespMotion,perceivedTime,resp_x_coord,resp_y_coord,feedbackPointer.stopped,actualTime_x_coord,actualTime_y_coord,space2pass.keys,space2pass.rt,expected_delay,expected_delays_frame,expected_distractor,expected_distractor_frame,expBlockFiles,distractor.started,distractor.stopped,participant,session,date,expName,psychopyVersion,frameRate,
,,,,,,,,,0,0,0,0,,,,,fam,1.2979593000054592,1.2979593000054592,269.99999999999955,3.3063120000006165,3.3063120000006165,,,,,,,,,,,,,,,,,,,,,,,,,,,,,,,,,,,,p9_high1_01,001,2023-05-03_17h05.42.805,expectation_shapes_perceived_time,2022.2.4,120.41606156185833,
,,,,,,,,,1,0,1,0,,,,,fam,0.4973604999977397,0.4973604999977397,269.99999999999955,2.506205699988641,2.506205699988641,,,,,,,,,,,,,,,,,,,,,,,,,,,,,,,,,,,,p9_high1_01,001,2023-05-03_17h05.42.805,expectation_shapes_perceived_time,2022.2.4,120.41606156185833,
,,,,,,,,,2,0,2,0,,,,,fam,0.4980801999918185,0.4980801999918185,269.99999999999955,2.5059478000039235,2.5059478000039235,,,,,,,,,,,,,,,,,,,,,,,,,,,,,,,,,,,,p9_high1_01,001,2023-05-03_17h05.42.805,expectation_shapes_perceived_time,2022.2.4,120.41606156185833,
,,,,,,,,,3,0,3,0,,,,,fam,0.4969983999908436,0.4969983999908436,269.99999999999955,2.505152799989446,2.505152799989446,,,,,,,,,,,,,,,,,,,,,,,,,,,,,,,,,,,,p9_high1_01,001,2023-05-03_17h05.42.805,expectation_shapes_perceived_time,2022.2.4,120.41606156185833,
,,,,,,,,,4,0,4,0,,,,,fam,0.4989110000024084,0.4989110000024084,269.99999999999955,2.5072436000045855,2.5072436000045855,,,,,,,,,,,,,,,,,,,,,,,,,,,,,,,,,,,,p9_high1_01,001,2023-05-03_17h05.42.805,expectation_shapes_perceived_time,2022.2.4,120.41606156185833,
,,,,,,,,,,,,,0,0,0,0,test,,,,,,green,1.623813029729889,1.6333333333333333,2.309250099991914,0.9978568000078667,3.1799994758330286e-05,3e-05,0.03347899999062065,1.634349599989946,1.6676405999896815,2.000921999991988,2.034299099992495,2.309250099991914,2.309250099991914,2.609218999990844,3.6506192999950144,1.3413692000031006,7.658660599990981,5.349410499999067,4.008041299995966,0.92682,0.033686681724940784,-0.1439340037338379,7.658660599990981,-0.1367811115920403,0.05605994530978196,space,5.0442175999924075,,,,,,,,p9_high1_01,001,2023-05-03_17h05.42.805,expectation_shapes_perceived_time,2022.2.4,120.41606156185833,
,,,,,,,,,,,,,1,0,1,0,test,,,,,,green,0.48021580268522224,0.48333333333333334,2.3080448000109755,0.9971948000020348,3.9999998989515007e-05,4e-05,0.033133000004454516,0.48321320000104606,0.5165643000073032,1.999834500005818,,2.3080448000109755,2.3080448000109755,2.608016199999838,2.374642100010533,0.06659729999955744,5.166303200006951,2.858258399995975,2.7916610999964178,0.55463,0.14565168949928636,-0.025246292846542968,5.166303200006951,0.1475380724556996,0.009181891556028074,space,2.5542544000054477,,,,,,,,p9_high1_01,001,2023-05-03_17h05.42.805,expectation_shapes_perceived_time,2022.2.4,120.41606156185833,
,,,,,,,,,,,,,2,0,2,0,test,,,,,,green,1.7089860476954215,1.7166666666666666,2.308835200004978,0.9967026000085752,2.4900000425986946e-05,2e-05,0.03352840000297874,1.7171280000038678,1.7505611999949906,2.0005015000060666,2.0338394999998854,2.308835200004978,2.308835200004978,2.608726000005845,2.308835200004978,0.0,5.9171277999994345,3.6082925999944564,3.6082925999944564,1.67359,-0.12638018263342532,0.07668011081129177,5.9171277999994345,-0.11709149999463589,0.09022954386173138,space,3.3078390000009676,,,,,,,,p9_high1_01,001,2023-05-03_17h05.42.805,expectation_shapes_perceived_time,2022.2.4,120.41606156185833,
,,,,,,,,,,,,,3,0,3,0,test,,,,,,green,1.6781040823890419,1.6833333333333333,2.3081325000093784,0.9971254999982193,4.0700004319660366e-05,4e-05,0.033423700006096624,1.6834512000059476,1.7171718000026885,2.0003571000124793,2.0337776000087615,2.3081325000093784,2.3081325000093784,2.608080500009237,2.3081325000093784,0.0,3.9164067000092473,1.6082741999998689,1.6082741999998689,1.32253,-0.1254369212450826,-0.0782136097175221,3.9164067000092473,-0.1252810779425974,0.0784629942458912,space,1.3026666000077967,,,,,,,,p9_high1_01,001,2023-05-03_17h05.42.805,expectation_shapes_perceived_time,2022.2.4,120.41606156185833,
,,,,,,,,,,,,,4,0,4,0,test,,,,,,green,1.8218098531638507,1.825,2.308168100003968,0.997552300003008,0.0001429999974789098,0.00014,0.03302689999691211,1.8247031000064453,1.858341200000723,1.9997335999942152,,2.308168100003968,2.308168100003968,2.6080105000000913,2.458329999994021,0.15016189999005292,5.349571400001878,3.04140329999791,2.891241400007857,1.80772,-0.0839643162755659,0.12166258072582,5.349571400001878,-0.07849686480449955,0.12525985858348251,space,2.737659499995061,,,,,,,,p9_high1_01,001,2023-05-03_17h05.42.805,expectation_shapes_perceived_time,2022.2.4,120.41606156185833,
,,,,,,,,,0,0,0,0,0,-1,-1,0,fam,0.5648936000070535,0.5648936000070535,269.99999999999955,2.5729805000009947,2.5729805000009947,,,,,,,,,,,,,,,,,,,,,,,,,,,,,,,,,,,,p9_high1_01,001,2023-05-03_17h05.42.805,expectation_shapes_perceived_time,2022.2.4,120.41606156185833,
,,,,,,,,,1,0,1,0,0,-1,-1,0,fam,0.4971716000000015,0.4971716000000015,269.99999999999955,2.5059612000040943,2.5059612000040943,,,,,,,,,,,,,,,,,,,,,,,,,,,,,,,,,,,,p9_high1_01,001,2023-05-03_17h05.42.805,expectation_shapes_perceived_time,2022.2.4,120.41606156185833,
,,,,,,,,,2,0,2,0,0,-1,-1,0,fam,0.49664140000822954,0.49664140000822954,269.99999999999955,2.5053955000039423,2.5053955000039423,,,,,,,,,,,,,,,,,,,,,,,,,,,,,,,,,,,,p9_high1_01,001,2023-05-03_17h05.42.805,expectation_shapes_perceived_time,2022.2.4,120.41606156185833,
,,,,,,,,,3,0,3,0,0,-1,-1,0,fam,0.49784700000600424,0.49784700000600424,269.99999999999955,2.505784000008134,2.505784000008134,,,,,,,,,,,,,,,,,,,,,,,,,,,,,,,,,,,,p9_high1_01,001,2023-05-03_17h05.42.805,expectation_shapes_perceived_time,2022.2.4,120.41606156185833,
1,-500,0.5,none,23,green,red,no_Expectation,,,,,,0,0,0,2,train_doubleStim,,,,,,green,0.8498622345203154,0.85,2.3079431999940425,0.9990068999904906,7e-05,7e-05,0.03317,0.8493001999886474,0.8826736999908462,1.9996977999981027,2.032905399988522,2.3079431999940425,2.3079431999940425,2.5078669999929843,2.3079431999940425,0.0,4.899391699989792,2.5914484999957494,2.5914484999957494,1.00644,-0.002991765820971452,-0.14779323155598972,,,,None,,-0.5,-0.5,0.3165322345203154,0.31666666666666665,training_double_stim.csv,0.31675019999966025,0.34992949999286793,p9_high1_01,001,2023-05-03_17h05.42.805,expectation_shapes_perceived_time,2022.2.4,120.41606156185833,
1,-500,0.5,none,46,red,green,no_Expectation,,,,,,0,1,1,4,train_doubleStim,,,,,,red,1.2532490894269828,1.2583333333333333,2.308744399997522,0.997354200007976,4e-05,4e-05,,1.2582423999992898,1.291625900004874,1.9999672999983886,,2.308744399997522,2.308744399997522,2.50787470000796,2.574512400009553,0.2657680000120308,3.224989199996344,0.9162447999988217,0.6504767999867909,1.17644,-0.07780758636625537,-0.1256891779762587,,,,None,,-0.5,-0.5,0.7199190894269826,0.725,training_double_stim.csv,0.7256099000078393,0.7584795000002487,p9_high1_01,001,2023-05-03_17h05.42.805,expectation_shapes_perceived_time,2022.2.4,120.41606156185833,
1,500,0.5,none,33,green,red,no_Expectation,,,,,,0,2,2,7,train_doubleStim,,,,,,green,0.7122351591015209,0.7166666666666667,2.30830469999637,0.9962112000066554,4e-05,4e-05,0.03327,0.7169386000023223,0.7500766000011936,2.0001703000016278,2.033600099995965,2.30830469999637,2.30830469999637,2.50860190000094,2.30830469999637,0.0,3.4245079000102123,1.1162032000138424,1.1162032000138424,0.97269,0.012669213026354284,-0.14727960143136856,,,,None,,0.5,0.5,1.2455651591015207,1.25,training_double_stim.csv,1.2499529000051552,1.283343100003549,p9_high1_01,001,2023-05-03_17h05.42.805,expectation_shapes_perceived_time,2022.2.4,120.41606156185833,
1,500,0.5,none,98,red,green,no_Expectation,,,,,,0,3,3,5,train_doubleStim,,,,,,red,0.9043639532069002,0.9083333333333333,2.307708599997568,0.9909730999934254,0.0001,0.0001,0.03312,0.9080631999968318,0.9416140999965137,1.999667700001737,2.0328665999986697,2.307708599997568,2.307708599997568,2.507673700005398,2.307708599997568,0.0,3.440886500000488,1.13317790000292,1.13317790000292,0.95915,0.018917172241997668,-0.14660808487548194,,,,None,,0.5,0.5,1.4376939532069,1.4416666666666667,training_double_stim.csv,1.440987199996016,1.4742793000041274,p9_high1_01,001,2023-05-03_17h05.42.805,expectation_shapes_perceived_time,2022.2.4,120.41606156185833,
1,500,0.5,none,60,red,green,no_Expectation,,,,,,0,4,4,8,train_doubleStim,,,,,,red,0.45647165749058466,0.4583333333333333,2.307627300004242,0.9978795999923022,0.0001,0.0001,0.03338,0.4583065000042552,0.49179139999614563,1.999716599995736,2.033092600002419,2.307627300004242,2.307627300004242,2.507694400002947,2.307627300004242,0.0,3.2996542000037152,0.9920268999994732,0.9920268999994732,1.02303,-0.010683834844149743,-0.14743692084926643,,,,None,,0.5,0.5,0.9898016574905847,0.9916666666666667,training_double_stim.csv,0.9914306999999098,1.0245402000000468,p9_high1_01,001,2023-05-03_17h05.42.805,expectation_shapes_perceived_time,2022.2.4,120.41606156185833,
1,-500,0.5,none,68,red,green,no_Expectation,,,,,,0,5,5,3,train_doubleStim,,,,,,red,1.1503418097783704,1.1583333333333332,2.3084806999977445,0.9963742999971146,4e-05,4e-05,0.03311,1.1581472999969264,1.1916259999998147,2.000144999998156,2.0332182999991346,2.3084806999977445,2.3084806999977445,2.508050899996306,2.3084806999977445,0.0,3.041480899992166,0.7330001999944216,0.7330001999944216,1.31283,-0.12299659457712617,-0.08199772971808411,,,,None,,-0.5,-0.5,0.6170118097783703,0.6166666666666667,training_double_stim.csv,0.6166091000050073,0.6498786000011023,p9_high1_01,001,2023-05-03_17h05.42.805,expectation_shapes_perceived_time,2022.2.4,120.41606156185833,
1,-500,0.5,none,77,green,red,no_Expectation,,,,,,0,6,6,1,train_doubleStim,,,,,,green,1.3319915954318071,1.3333333333333333,2.3085434999957215,0.9974349999974947,3e-05,3e-05,0.03348,1.3328859999892302,1.3661663999955636,2.0001087999989977,2.0334681999956956,2.3085434999957215,2.3085434999957215,2.50844849999703,2.3169921999942744,0.008448699998552911,3.6414670999947703,1.3329235999990487,1.3244749000004958,0.98233,0.008199772971808413,-0.14759591349255144,,,,None,,-0.5,-0.5,0.798661595431807,0.8,training_double_stim.csv,0.8001743999921018,0.8334967999981018,p9_high1_01,001,2023-05-03_17h05.42.805,expectation_shapes_perceived_time,2022.2.4,120.41606156185833,
1,500,0.5,none,88,red,green,no_Expectation,,,,,,0,7,7,9,train_doubleStim,,,,,,red,0.3477985388635682,0.35,2.3096188999916194,0.9973854999989271,7e-05,7e-05,,0.3499403999885544,0.3834486999985529,2.000046699991799,,2.3096188999916194,2.3096188999916194,2.508157199990819,2.4416586000006646,0.1320397000090452,2.983192499988945,0.6735735999973258,0.5415338999882806,1.52975,-0.14717814545956026,0.013797951136833774,,,,None,,0.5,0.5,0.8811285388635682,0.8833333333333333,training_double_stim.csv,0.8831688999925973,0.9165170999913244,p9_high1_01,001,2023-05-03_17h05.42.805,expectation_shapes_perceived_time,2022.2.4,120.41606156185833,
1,-500,0.5,none,59,green,red,no_Expectation,,,,,,0,8,8,0,train_doubleStim,,,,,,green,1.0215915481042341,1.025,2.308572699999786,0.9962267999944743,4e-05,4e-05,,1.0250228000077186,1.0583615000068676,2.0002017999941017,2.0334474999981467,2.308572699999786,2.308572699999786,2.507919199997559,2.308572699999786,0.0,4.40815869999642,2.099585999996634,2.099585999996634,1.03759,-0.01741623178841079,-0.14679395364517667,,,,None,,-0.5,-0.5,0.4882615481042341,0.49166666666666664,training_double_stim.csv,0.4916477000078885,0.525103299994953,p9_high1_01,001,2023-05-03_17h05.42.805,expectation_shapes_perceived_time,2022.2.4,120.41606156185833,
1,500,0.5,none,25,green,red,no_Expectation,,,,,,0,9,9,6,train_doubleStim,,,,,,green,1.011360284102428,1.0166666666666666,2.3078129999921657,0.9975916000112193,4e-05,4e-05,,1.0166976999898907,1.0500517999898875,1.9999939999979688,,2.3078129999921657,2.3078129999921657,2.5085139000002528,2.9081286000000546,0.6003156000078889,3.8663735000009183,1.5585605000087526,0.9582449000008637,1.04428,-0.02049541096161975,-0.14639579258299823,,,,None,,0.5,0.5,1.544690284102428,1.55,training_double_stim.csv,1.5499425000016345,1.5832742999918992,p9_high1_01,001,2023-05-03_17h05.42.805,expectation_shapes_perceived_time,2022.2.4,120.41606156185833,
,,,,,,,,,0,0,0,0,0,-1,-1,0,fam,0.5555100999918068,0.5555100999918068,269.99999999999955,2.563525799996569,2.563525799996569,,,,,,,,,,,,,,,,,,,,,,,,,,,,,,,,,,,,p9_high1_01,001,2023-05-03_17h05.42.805,expectation_shapes_perceived_time,2022.2.4,120.41606156185833,
,,,,,,,,,1,0,1,0,0,-1,-1,0,fam,0.49858790000143927,0.49858790000143927,269.99999999999955,2.507104899996193,2.507104899996193,,,,,,,,,,,,,,,,,,,,,,,,,,,,,,,,,,,,p9_high1_01,001,2023-05-03_17h05.42.805,expectation_shapes_perceived_time,2022.2.4,120.41606156185833,
,,,,,,,,,2,0,2,0,0,-1,-1,0,fam,0.49746430000232067,0.49746430000232067,269.99999999999955,2.5061600000044564,2.5061600000044564,,,,,,,,,,,,,,,,,,,,,,,,,,,,,,,,,,,,p9_high1_01,001,2023-05-03_17h05.42.805,expectation_shapes_perceived_time,2022.2.4,120.41606156185833,
,,,,,,,,,3,0,3,0,0,-1,-1,0,fam,0.4971054999914486,0.4971054999914486,269.99999999999955,2.505271999994875,2.505271999994875,,,,,,,,,,,,,,,,,,,,,,,,,,,,,,,,,,,,p9_high1_01,001,2023-05-03_17h05.42.805,expectation_shapes_perceived_time,2022.2.4,120.41606156185833,
,-233,0.8,met,,green,red,,544.5848210358231,,,,,0,0,0,386,trial,,,,,,green,0.5445848210358231,0.55,2.3082926999923075,0.9985639000078663,9e-05,9e-05,0.03353,0.5498891000024742,0.5830761999968672,2.0000524999923073,2.03331729999627,2.3082926999923075,2.3082926999923075,2.508345399997779,2.6581263999978546,0.34983370000554714,3.1331072000029963,0.8248145000106888,0.47498080000514165,1.03522,-0.016324375742178578,-0.1469193816796072,,,,None,,-0.233,-0.23333333333333334,0.2782548210358231,0.2833333333333333,trial_list_0.8_green.csv,0.2834609999990789,0.3169049999996787,p9_high1_01,001,2023-05-03_17h05.42.805,expectation_shapes_perceived_time,2022.2.4,120.41606156185833,
,100,0.8,met,,green,red,,880.5366574874749,,,,,0,1,1,225,trial,,,,,,green,0.8805366574874749,0.8833333333333333,2.3085193000006257,0.9962182000017492,4e-05,4e-05,0.03332,0.8832597000000533,0.9167841000016779,2.0001508999994257,2.0336304000084056,2.3085193000006257,2.3085193000006257,2.5083434999978635,2.3085193000006257,0.0,3.166580300006899,0.8580610000062734,0.8580610000062734,0.95781,0.019536904930460012,-0.1465267869784501,,,,None,,0.1,0.1,1.013866657487475,1.0166666666666666,trial_list_0.8_green.csv,1.0165794000058668,1.0499471000075573,p9_high1_01,001,2023-05-03_17h05.42.805,expectation_shapes_perceived_time,2022.2.4,120.41606156185833,
,-167,0.1999999999999999,unmet,,red,green,,1093.810972065677,,,,,0,2,2,456,trial,,,,,,red,1.093810972065677,1.1,2.3081603000027826,0.9976440999889746,4e-05,4e-05,0.03309,1.0999144999950659,1.1331028999993578,1.9998348999943119,2.0333045000006678,2.3081603000027826,2.3081603000027826,2.5083400000003166,2.7414370000042254,0.4332767000014428,3.5497748000052525,1.2416145000024699,0.8083378000010271,1.00568,-0.0026392847557307904,-0.14779994632092425,,,,None,,-0.167,-0.16666666666666666,0.8934809720656771,0.9,trial_list_0.8_green.csv,0.8999006999947596,0.9331840999948326,p9_high1_01,001,2023-05-03_17h05.42.805,expectation_shapes_perceived_time,2022.2.4,120.41606156185833,
,167,0.8,met,,green,red,,1350.823321874999,,,,,0,3,3,458,trial,,,,,,green,1.350823321874999,1.3583333333333334,2.3084395000041695,0.9969920000003185,4e-05,4e-05,0.03334,1.3584268000122393,1.3921008000033908,2.0002481999981683,2.033972500008531,2.3084395000041695,2.3084395000041695,2.5086293000058504,2.7831357000104617,0.4746962000062922,3.2998449000006076,0.9914053999964381,0.5167091999901459,0.89486,0.04794275983300374,-0.13983304951292755,,,,None,,0.167,0.16666666666666666,1.5511533218749989,1.5583333333333333,trial_list_0.8_green.csv,1.5585605000087526,1.5920464000082575,p9_high1_01,001,2023-05-03_17h05.42.805,expectation_shapes_perceived_time,2022.2.4,120.41606156185833,
,-33,0.1999999999999999,unmet,,red,green,,759.7351458433205,,,,,0,4,4,396,trial,,,,,,red,0.7597351458433206,0.7583333333333333,2.3077911000000313,0.9979213999904459,0.00013,0.00013,0.03313,0.7580938000028254,0.7915638999984367,1.999458999998751,2.032773500002804,2.3077911000000313,2.3077911000000313,2.5079957999987528,2.3077911000000313,0.0,2.8492900999990525,0.5414989999990212,0.5414989999990212,0.48957,0.1477441198394734,0.004844069502933554,,,,None,,-0.033,-0.03333333333333333,0.6934051458433205,0.6916666666666667,trial_list_0.8_green.csv,0.6914901999989524,0.7247594999935245,p9_high1_01,001,2023-05-03_17h05.42.805,expectation_shapes_perceived_time,2022.2.4,120.41606156185833,
,100,0.8,met,,green,red,,1442.5129526555868,,,,,0,5,5,489,trial,,,,,,green,1.4425129526555869,1.45,2.308641700001317,0.9964482000068529,4e-05,4e-05,0.03349,1.4504832999955397,1.4836941999965347,1.9999301999923773,2.0334013999963645,2.308641700001317,2.308641700001317,2.5079522999876644,2.31675610000093,0.008114399999612942,2.949966399988625,0.6413246999873081,0.6332102999876952,1.47617,-0.14740950164382624,-0.01105571262328697,,,,None,,0.1,0.1,1.5758429526555866,1.5833333333333333,trial_list_0.8_green.csv,1.5832880999951158,1.616691199989873,p9_high1_01,001,2023-05-03_17h05.42.805,expectation_shapes_perceived_time,2022.2.4,120.41606156185833,
,33,0.8,met,,green,red,,575.9343708825452,,,,,0,6,6,160,trial,,,,,,green,0.5759343708825452,0.575,2.3085341999976663,0.9972870999918086,3e-05,3e-05,0.03325,0.5753597000002628,0.6087960000004387,2.0001686999894446,2.0334700999956112,2.3085341999976663,2.3085341999976663,2.5083801000000676,2.3085341999976663,0.0,2.8252454999892507,0.5167112999915844,0.5167112999915844,0.7371,0.10867531809557729,-0.1002071114907271,,,,None,,0.033,0.03333333333333333,0.6422643708825452,0.6416666666666666,trial_list_0.8_green.csv,0.6421591999969678,0.675523499987321,p9_high1_01,001,2023-05-03_17h05.42.805,expectation_shapes_perceived_time,2022.2.4,120.41606156185833,
,33,0.8,met,,green,red,,592.4436369844084,,,,,0,7,7,434,trial,,,,,,green,0.5924436369844084,0.5916666666666667,2.3086924999952316,0.9965034000051674,4e-05,4e-05,0.03335,0.5921076999948127,0.625564599991776,2.000583499990171,,2.3086924999952316,2.3086924999952316,2.508591299992986,2.3086924999952316,0.0,3.525209499988705,1.2165169999934733,1.2165169999934733,0.5,0.14782350948509485,0.0,,,,None,,0.033,0.03333333333333333,0.6587736369844084,0.6583333333333333,trial_list_0.8_green.csv,0.658835199996247,0.6922158999950625,p9_high1_01,001,2023-05-03_17h05.42.805,expectation_shapes_perceived_time,2022.2.4,120.41606156185833,
,167,0.8,met,,green,red,,816.0749149705073,,,,,0,8,8,404,trial,,,,,,green,0.8160749149705073,0.8166666666666667,2.308039800002007,0.9970610000018496,4e-05,4e-05,0.03321,0.8168615000031423,0.8503028999984963,1.9996321000071475,2.033044700001483,2.308039800002007,2.308039800002007,2.5081862999941222,2.308039800002007,0.0,3.18293409999751,0.8748942999955034,0.8748942999955034,0.69565,0.12076705668433614,-0.08524733413011963,,,,None,,0.167,0.16666666666666666,1.0164049149705072,1.0166666666666666,trial_list_0.8_green.csv,1.017026800007443,1.0503669000027003,p9_high1_01,001,2023-05-03_17h05.42.805,expectation_shapes_perceived_time,2022.2.4,120.41606156185833,
,233,0.8,met,,green,red,,402.8306160290907,,,,,0,9,9,113,trial,,,,,,green,0.4028306160290907,0.4083333333333333,2.3084574000095017,0.9974458000069717,4e-05,4e-05,0.03327,0.4084583000076236,0.4415523000061512,1.999938300010399,2.0333029000030365,2.3084574000095017,2.3084574000095017,2.5079563000035705,2.649621100004879,0.3411636999953771,3.0914736000122502,0.7830162000027485,0.4418525000073714,0.5,0.14782350948509485,0.0,,,,None,,0.233,0.23333333333333334,0.6691606160290907,0.675,trial_list_0.8_green.csv,0.6750534000020707,0.7081390000093961,p9_high1_01,001,2023-05-03_17h05.42.805,expectation_shapes_perceived_time,2022.2.4,120.41606156185833,
,-33,0.8,met,,green,red,,1561.8430699969,,,,,0,10,10,50,trial,,,,,,green,1.5618430699969001,1.5666666666666667,2.3073709000018425,0.9974916000064695,6e-05,6e-05,,1.5660338000016054,1.5993212000030326,1.9990878000098746,2.0322180000075605,2.3073709000018425,2.3073709000018425,2.50754850001249,2.540787800011458,0.23341690000961535,3.0407422999996925,0.73337139999785,0.4999544999882346,1.77325,-0.09662038310375205,0.11187623306750238,,,,None,,-0.033,-0.03333333333333333,1.4955130699969001,1.5,trial_list_0.8_green.csv,1.4993437000084668,1.5329664000018965,p9_high1_01,001,2023-05-03_17h05.42.805,expectation_shapes_perceived_time,2022.2.4,120.41606156185833,
,33,0.1999999999999999,unmet,,red,green,,312.97394445072564,,,,,0,11,11,44,trial,,,,,,red,0.3129739444507256,0.31666666666666665,2.3086481999926036,0.9969247999979416,4e-05,4e-05,,0.31664449999516364,0.34987229999387637,2.0001508999994257,,2.3086481999926036,2.3086481999926036,2.508056899998337,2.3086481999926036,0.0,2.833165000003646,0.5245168000110425,0.5245168000110425,0.33751,0.12897690132454576,0.07222706474174563,,,,None,,0.033,0.03333333333333333,0.3793039444507256,0.3833333333333333,trial_list_0.8_green.csv,0.38323120000131894,0.4166599000018323,p9_high1_01,001,2023-05-03_17h05.42.805,expectation_shapes_perceived_time,2022.2.4,120.41606156185833,
,-300,0.8,met,,green,red,,715.3419557314487,,,,,0,12,12,333,trial,,,,,,green,0.7153419557314487,0.7166666666666667,2.3083021999918856,0.9970663999993121,4e-05,4e-05,0.03338,0.716430999993463,0.7498685999889858,1.9999907999881543,2.033356499989168,2.3083021999918856,2.3083021999918856,2.5083835999976145,2.5501344999938738,0.2418323000019882,3.1664040999894496,0.858101899997564,0.6162695999955758,0.62228,0.13704866359134493,-0.055402651239054336,,,,None,,-0.3,-0.3,0.38201195573144875,0.3833333333333333,trial_list_0.8_green.csv,0.38300959998741746,0.4162365999945905,p9_high1_01,001,2023-05-03_17h05.42.805,expectation_shapes_perceived_time,2022.2.4,120.41606156185833,
,167,0.8,met,,green,red,,399.2698989911946,,,,,0,13,13,342,trial,,,,,,green,0.39926989899119464,0.4,2.3082208999985596,0.9963896999979625,2e-05,2e-05,,0.40027199999894947,0.43374049999692943,1.9998804999922868,,2.3082208999985596,2.3082208999985596,2.508178299991414,2.691495599996415,0.38327469999785535,3.2498330999951577,0.9416121999965981,0.5583374999987427,0.95318,0.021663337392586083,-0.1462275273999561,,,,None,,0.167,0.16666666666666666,0.5995998989911947,0.6,trial_list_0.8_green.csv,0.600567300003604,0.6339484999916749,p9_high1_01,001,2023-05-03_17h05.42.805,expectation_shapes_perceived_time,2022.2.4,120.41606156185833,
,-300,0.8,met,,green,red,,506.96741851815375,,,,,0,14,14,157,trial,,,,,,green,0.5069674185181537,0.5083333333333333,2.308274099996197,0.9980042999959551,2e-05,2e-05,,0.5082878999965033,0.5417033999983687,1.9999852999899304,,2.308274099996197,2.308274099996197,2.5083011999959126,2.516599900001893,0.20832580000569578,2.891573699991568,0.583299599995371,0.37497379998967517,0.71827,0.11440908415984052,-0.09360743249441497,,,,None,,-0.3,-0.3,0.17363741851815376,0.175,trial_list_0.8_green.csv,0.17494479999004398,0.2083064999897033,p9_high1_01,001,2023-05-03_17h05.42.805,expectation_shapes_perceived_time,2022.2.4,120.41606156185833,
,167,0.1999999999999999,unmet,,red,green,,1215.8935190491177,,,,,0,15,15,159,trial,,,,,,red,1.2158935190491176,1.2166666666666666,2.308294599992223,0.9980551999906311,2e-05,2e-05,0.0333,1.2166256999917096,1.250017400001525,1.999924599993392,2.0332760000019334,2.308294599992223,2.308294599992223,2.508252400002675,2.524960499998997,0.21666590000677388,2.9999831000022823,0.6916885000100592,0.47502260000328533,1.44498,-0.1456204618481805,-0.025425794925872786,,,,None,,0.167,0.16666666666666666,1.4162235190491177,1.425,trial_list_0.8_green.csv,1.4249510999943595,1.4582901999965543,p9_high1_01,001,2023-05-03_17h05.42.805,expectation_shapes_perceived_time,2022.2.4,120.41606156185833,
,-233,0.8,met,,green,red,,591.5751678233376,,,,,0,16,16,313,trial,,,,,,green,0.5915751678233375,0.5916666666666667,2.308346599995275,0.9979769999918062,2e-05,2e-05,0.03336,0.5915567000047304,0.6250104000064312,1.9999998999992386,,2.308346599995275,2.308346599995275,2.5083200999943074,2.308346599995275,0.0,2.925020199996652,0.616673600001377,0.616673600001377,0.71363,0.11576219379304471,-0.0919288009533002,,,,None,,-0.233,-0.23333333333333334,0.32524516782333757,0.325,trial_list_0.8_green.csv,0.3250300999934552,0.3583093000052031,p9_high1_01,001,2023-05-03_17h05.42.805,expectation_shapes_perceived_time,2022.2.4,120.41606156185833,
,100,0.8,met,,green,red,,1289.4438738667277,,,,,0,17,17,194,trial,,,,,,green,1.2894438738667278,1.2916666666666667,2.308045099998708,0.9986800000042422,8e-05,8e-05,0.03337,1.2916407000011532,1.3248312000068836,1.9996344999963185,2.0329101999959676,2.308045099998708,2.308045099998708,2.5080716000084067,2.516157000005478,0.20811190000677016,2.9662738000042737,0.6582287000055658,0.4501167999987956,1.60058,-0.14050555471664025,0.045934508272747775,,,,None,,0.1,0.1,1.4227738738667277,1.425,trial_list_0.8_green.csv,1.4246373000059975,1.4577788000024157,p9_high1_01,001,2023-05-03_17h05.42.805,expectation_shapes_perceived_time,2022.2.4,120.41606156185833,
,233,0.8,met,,green,red,,976.6887029138312,,,,,0,18,18,395,trial,,,,,,green,0.9766887029138313,0.9833333333333333,2.308676899992861,0.9967015000001993,3e-05,3e-05,0.03309,0.9835651000030339,1.0171017999964533,2.00018309999723,2.0337273000041023,2.308676899992861,2.308676899992861,2.5086360999994213,2.5669278999994276,0.25825100000656676,3.5084777000010945,1.1998008000082336,0.9415498000016669,0.9444,0.02568955795547448,-0.14557416174768872,,,,None,,0.233,0.23333333333333334,1.243018702913831,1.25,trial_list_0.8_green.csv,1.250366699998267,1.2837522999907378,p9_high1_01,001,2023-05-03_17h05.42.805,expectation_shapes_perceived_time,2022.2.4,120.41606156185833,
,-300,0.8,met,,green,red,,1666.404491632771,,,,,0,19,19,306,trial,,,,,,green,1.666404491632771,1.675,2.308782300009625,0.9966680999932578,4e-05,4e-05,0.0333,1.675182400009362,1.7086256000038702,2.000208900004509,2.033653900012723,2.308782300009625,2.308782300009625,2.508282400012831,2.608016800004407,0.2992344999947818,3.3245797000126913,1.0157974000030663,0.7165629000082845,1.15053,-0.0673300318792399,-0.1315996077639689,,,,None,,-0.3,-0.3,1.333074491632771,1.3416666666666666,trial_list_0.8_green.csv,1.3418992000079015,1.375215300009586,p9_high1_01,001,2023-05-03_17h05.42.805,expectation_shapes_perceived_time,2022.2.4,120.41606156185833,
,-167,0.8,met,,green,red,,933.6797511382462,,,,,0,20,20,349,trial,,,,,,green,0.9336797511382462,0.9333333333333333,2.308464299989282,0.9973058000032324,4e-05,4e-05,0.03312,0.9332274999906076,0.9665486000012606,1.9997387999901548,2.0331298999954015,2.308464299989282,2.308464299989282,2.507935499990708,2.316675699999905,0.008211400010623038,3.2997677999956068,0.9913035000063246,0.9830920999957016,0.941,0.027242178008985308,-0.14529161604792165,,,,None,,-0.167,-0.16666666666666666,0.7333497511382461,0.7333333333333333,trial_list_0.8_green.csv,0.7330838999914704,0.7664154999947641,p9_high1_01,001,2023-05-03_17h05.42.805,expectation_shapes_perceived_time,2022.2.4,120.41606156185833,
,33,0.8,met,,green,red,,1291.4816746022473,,,,,0,21,21,92,trial,,,,,,green,1.2914816746022473,1.3,2.3081772000005003,0.996533499986981,4e-05,4e-05,0.03326,1.3000890999974217,1.3335079999960726,1.9992934000038076,2.0328740999975707,2.3081772000005003,2.3081772000005003,2.5083214000042062,2.5170579999976326,0.20888079999713227,3.0998399000091013,0.791662700008601,0.5827819000114687,1.47659,-0.147423842466049,-0.010862809444866768,,,,None,,0.033,0.03333333333333333,1.3578116746022473,1.3666666666666667,trial_list_0.8_green.csv,1.3667564000061247,1.4001992999983486,p9_high1_01,001,2023-05-03_17h05.42.805,expectation_shapes_perceived_time,2022.2.4,120.41606156185833,
,33,0.1999999999999999,unmet,,red,green,,1427.05255240466,,,,,0,22,22,224,trial,,,,,,red,1.42705255240466,1.4333333333333333,2.3079941000032704,0.9975214000005508,7e-05,7e-05,0.03308,1.4332452999951784,1.4665534000087064,1.999490500005777,2.0332692000083625,2.3079941000032704,2.3079941000032704,2.5080654000048526,2.5999175000033574,0.291923400000087,3.2413526000018464,0.933358499998576,0.641435099998489,1.00601,-0.0027886264911127696,-0.14779720402897678,,,,None,,0.033,0.03333333333333333,1.49338255240466,1.5,trial_list_0.8_green.csv,1.4995995000062976,1.5329981999966549,p9_high1_01,001,2023-05-03_17h05.42.805,expectation_shapes_perceived_time,2022.2.4,120.41606156185833,
,33,0.8,met,,green,red,,1409.5386774041972,,,,,0,23,23,467,trial,,,,,,green,1.4095386774041971,1.4166666666666667,2.3081388999999035,0.9966702999954578,4e-05,4e-05,0.03318,1.41661600000225,1.4499433000019053,2.0000711000029696,,2.3081388999999035,2.3081388999999035,2.5083773999940604,2.6415789000020595,0.333440000002156,3.366314200000488,1.0581753000005847,0.7247352999984287,1.03398,-0.015748100212026588,-0.1469822686455815,,,,None,,0.033,0.03333333333333333,1.4758686774041971,1.4833333333333334,trial_list_0.8_green.csv,1.4831968999933451,1.5165015999955358,p9_high1_01,001,2023-05-03_17h05.42.805,expectation_shapes_perceived_time,2022.2.4,120.41606156185833,
,33,0.8,met,,green,red,,1655.4569739015978,,,,,0,24,24,109,trial,,,,,,green,1.6554569739015979,1.6583333333333332,2.308449300006032,0.9972445000021253,4e-05,4e-05,0.03352,1.6580002000118839,1.691488800002844,2.0003302000113763,2.0336498000106076,2.308449300006032,2.308449300006032,2.5084089000010863,2.617285800006357,0.30883650000032503,2.9746587999979965,0.6662094999919645,0.3573729999916395,1.72492,-0.11242931390527008,0.0959762435776696,,,,None,,0.033,0.03333333333333333,1.7217869739015979,1.7249999999999999,trial_list_0.8_green.csv,1.724835000000894,1.7582382000109646,p9_high1_01,001,2023-05-03_17h05.42.805,expectation_shapes_perceived_time,2022.2.4,120.41606156185833,
,100,0.1999999999999999,unmet,,red,green,,286.2704643312135,0,0,0,0,0,25,25,200,fam,0.5564099000039278,0.5564099000039278,269.99999999999955,2.5646468000049936,2.5646468000049936,,,,,,,,,,,,,,,,,,,,,,,,,,,,,,,,,,,,p9_high1_01,001,2023-05-03_17h05.42.805,expectation_shapes_perceived_time,2022.2.4,120.41606156185833,
,100,0.1999999999999999,unmet,,red,green,,286.2704643312135,1,0,1,0,0,25,25,200,fam,0.4976773999951547,0.4976773999951547,269.99999999999955,2.5057862999965437,2.5057862999965437,,,,,,,,,,,,,,,,,,,,,,,,,,,,,,,,,,,,p9_high1_01,001,2023-05-03_17h05.42.805,expectation_shapes_perceived_time,2022.2.4,120.41606156185833,
,100,0.1999999999999999,unmet,,red,green,,286.2704643312135,2,0,2,0,0,25,25,200,fam,0.49920619999466,0.49920619999466,269.99999999999955,2.5069808999978704,2.5069808999978704,,,,,,,,,,,,,,,,,,,,,,,,,,,,,,,,,,,,p9_high1_01,001,2023-05-03_17h05.42.805,expectation_shapes_perceived_time,2022.2.4,120.41606156185833,
,100,0.1999999999999999,unmet,,red,green,,286.2704643312135,3,0,3,0,0,25,25,200,fam,0.49923739999940153,0.49923739999940153,269.99999999999955,2.5074887000082526,2.5074887000082526,,,,,,,,,,,,,,,,,,,,,,,,,,,,,,,,,,,,p9_high1_01,001,2023-05-03_17h05.42.805,expectation_shapes_perceived_time,2022.2.4,120.41606156185833,
,100,0.1999999999999999,unmet,,red,green,,286.2704643312135,,,,,0,25,25,200,trial,,,,,,red,0.28627046433121345,0.2833333333333333,2.30888359999517,0.9977656999981264,3e-05,3e-05,0.03328,0.2832094000041252,0.31721019999531563,2.0006179999909364,2.034180499991635,2.30888359999517,2.30888359999517,2.5085972999950172,2.616845500000636,0.3079619000054663,3.166874000002281,0.857990400007111,0.5500285000016447,0.55725,0.1454391029877531,-0.02644347327050056,,,,None,,0.1,0.1,0.41960046433121345,0.425,trial_list_0.8_green.csv,0.4254642000014428,0.4586522000026889,p9_high1_01,001,2023-05-03_17h05.42.805,expectation_shapes_perceived_time,2022.2.4,120.41606156185833,
,167,0.8,met,,green,red,,635.6556199026688,,,,,0,26,26,365,trial,,,,,,green,0.6356556199026688,0.6416666666666666,2.3082891999947606,0.9964092000009259,4e-05,4e-05,0.03334,0.6415618000028189,0.6750133000023197,2.000179800001206,2.0338002999924356,2.3082891999947606,2.3082891999947606,2.5083519000036176,2.399863300001016,0.09157410000625532,2.9664878000039607,0.6581986000092002,0.5666245000029448,1.00612,-0.002842234285298913,-0.14779618283554347,,,,None,,0.167,0.16666666666666666,0.8359856199026688,0.8416666666666667,trial_list_0.8_green.csv,0.8412088999903062,0.8743981000006897,p9_high1_01,001,2023-05-03_17h05.42.805,expectation_shapes_perceived_time,2022.2.4,120.41606156185833,
,33,0.8,met,,green,red,,1229.3871047513992,,,,,0,27,27,177,trial,,,,,,green,1.2293871047513991,1.2333333333333334,2.308149400007096,0.9975937999988673,4e-05,4e-05,,1.23325570000452,1.266616699998849,1.9995147000008728,,2.308149400007096,2.308149400007096,2.508065100002568,2.3164505000022473,0.008301099995151162,3.0497297999972943,0.7415803999901982,0.733279299995047,1.44842,-0.1458873268207878,-0.02384696688416724,,,,None,,0.033,0.03333333333333333,1.2957171047513991,1.3,trial_list_0.8_green.csv,1.2998205000039889,1.3334720999991987,p9_high1_01,001,2023-05-03_17h05.42.805,expectation_shapes_perceived_time,2022.2.4,120.41606156185833,
,-100,0.8,met,,green,red,,1546.7400211367485,,,,,0,28,28,246,trial,,,,,,green,1.5467400211367486,1.55,2.3079767000017455,0.9969009000051301,5e-05,5e-05,,1.5500170000013895,1.5831334999966202,2.0000059000012698,,2.3079767000017455,2.3079767000017455,2.5080958000035025,2.3079767000017455,0.0,3.1244182999944314,0.816441599992686,0.816441599992686,1.44255,-0.14542208938934822,-0.02653687762579347,,,,None,,-0.1,-0.1,1.4134100211367486,1.4166666666666667,trial_list_0.8_green.csv,1.4164631000021473,1.4499643000017386,p9_high1_01,001,2023-05-03_17h05.42.805,expectation_shapes_perceived_time,2022.2.4,120.41606156185833,
,-300,0.8,met,,green,red,,949.4031534690508,,,,,0,29,29,295,trial,,,,,,green,0.9494031534690508,0.95,2.308042000004207,0.9986155000078725,4e-05,4e-05,0.03328,0.9498777999979211,0.983320300001651,1.9996988000057172,2.0332416000019293,2.308042000004207,2.308042000004207,2.5080077000020538,2.308042000004207,0.0,3.0411759999988135,0.7331339999946067,0.7331339999946067,0.97407,0.012027217776383787,-0.14733341776070139,,,,None,,-0.3,-0.3,0.6160731534690508,0.6166666666666667,trial_list_0.8_green.csv,0.6166296000010334,0.6498125000071013,p9_high1_01,001,2023-05-03_17h05.42.805,expectation_shapes_perceived_time,2022.2.4,120.41606156185833,
,-233,0.8,met,,green,red,,1017.1448207988906,,,,,0,30,30,91,trial,,,,,,green,1.0171448207988907,1.0166666666666666,2.3085763999988558,0.9966474999964703,3e-05,3e-05,0.03338,1.0169384000037098,1.0502994999988005,2.0003486999921734,2.0336599000002025,2.3085763999988558,2.3085763999988558,2.508536199995433,2.658644800001639,0.35006840000278316,3.100239999999758,0.7916636000009021,0.4415951999981189,1.00884,-0.004104625327577631,-0.1477665117927947,,,,None,,-0.233,-0.23333333333333334,0.7508148207988905,0.75,trial_list_0.8_green.csv,0.7502659000019776,0.7835925999970641,p9_high1_01,001,2023-05-03_17h05.42.805,expectation_shapes_perceived_time,2022.2.4,120.41606156185833,
,167,0.1999999999999999,unmet,,red,green,,929.6242909027236,,,,,0,31,31,81,trial,,,,,,red,0.9296242909027236,0.9333333333333333,2.308532399998512,0.9974704999913229,4e-05,4e-05,0.03349,0.9333317999989958,0.966399700002512,2.0000701999961166,2.0333387999999104,2.308532399998512,2.308532399998512,2.508341799999471,2.6750536000035936,0.3665212000050815,3.099782300007064,0.7912499000085518,0.4247287000034703,0.72354,0.1128464397960526,-0.09548544905819836,,,,None,,0.167,0.16666666666666666,1.1299542909027236,1.1333333333333333,trial_list_0.8_green.csv,1.1334395000012591,1.1666547000058927,p9_high1_01,001,2023-05-03_17h05.42.805,expectation_shapes_perceived_time,2022.2.4,120.41606156185833,
,-233,0.8,met,,green,red,,1787.0841069314415,,,,,0,32,32,272,trial,,,,,,green,1.7870841069314416,1.7916666666666667,2.308537500008242,0.996698999995715,4e-05,4e-05,0.03345,1.791740700005903,1.824938799996744,2.000419600008172,2.033460599996033,2.308537500008242,2.308537500008242,2.508507999998983,2.5752613000076963,0.26672379999945406,3.3997892000043066,1.0912516999960644,0.8245278999966104,1.34439,-0.13050929499892808,-0.06941983776538727,,,,None,,-0.233,-0.23333333333333334,1.5207541069314416,1.525,trial_list_0.8_green.csv,1.524603300000308,1.5579752000048757,p9_high1_01,001,2023-05-03_17h05.42.805,expectation_shapes_perceived_time,2022.2.4,120.41606156185833,
,-100,0.8,met,,green,red,,1115.6410266110584,,,,,0,33,33,482,trial,,,,,,green,1.1156410266110584,1.1166666666666667,2.3078698000026634,0.9977302000042982,4e-05,4e-05,0.03329,1.1166145000024699,1.150167200001306,1.9995484999963082,2.0333196999999927,2.3078698000026634,2.3078698000026634,2.5083066999941366,2.3078698000026634,0.0,3.1498236999905203,0.8419538999878569,0.8419538999878569,1.18327,-0.08048561528730183,-0.12399135328043795,,,,None,,-0.1,-0.1,0.9823110266110583,0.9833333333333333,trial_list_0.8_green.csv,0.9835569999995641,1.0166136999905575,p9_high1_01,001,2023-05-03_17h05.42.805,expectation_shapes_perceived_time,2022.2.4,120.41606156185833,
,-33,0.8,met,,green,red,,359.64045938880497,,,,,0,34,34,51,trial,,,,,,green,0.35964045938880496,0.35833333333333334,2.308159899999737,0.9979055000003427,5e-05,5e-05,0.03304,0.35794970000279136,0.3913011999975424,1.9998039000056451,2.033253900008276,2.308159899999737,2.308159899999737,2.5080794999958016,2.308159899999737,0.0,2.8576172000030056,0.5494573000032688,0.5494573000032688,0.38529,0.13832890302317952,0.05212393447250243,,,,None,,-0.033,-0.03333333333333333,0.293310459388805,0.2916666666666667,trial_list_0.8_green.csv,0.2913377000077162,0.3247770000016317,p9_high1_01,001,2023-05-03_17h05.42.805,expectation_shapes_perceived_time,2022.2.4,120.41606156185833,
,233,0.8,met,,green,red,,166.518322457769,,,,,0,35,35,497,trial,,,,,,green,0.16651832245776899,0.16666666666666666,2.3084158999990905,0.9976600999943912,3e-05,3e-05,0.03343,0.16684789999271743,0.19988929999817628,1.9999691999983042,2.033341599992127,2.3084158999990905,2.3084158999990905,2.508337199993548,2.3084158999990905,0.0,3.8165203999960795,1.508104499996989,1.508104499996989,0.22266,0.0951759235307221,0.11310761926839438,,,,None,,0.233,0.23333333333333334,0.432848322457769,0.43333333333333335,trial_list_0.8_green.csv,0.43342370000027586,0.46696989999327343,p9_high1_01,001,2023-05-03_17h05.42.805,expectation_shapes_perceived_time,2022.2.4,120.41606156185833,
,-33,0.1999999999999999,unmet,,red,green,,1298.5548988997627,,,,,0,36,36,115,trial,,,,,,red,1.2985548988997628,1.3,2.3083287000044947,0.9973068999970565,4e-05,4e-05,0.03315,1.299769399993238,1.333435599997756,2.0000113999994937,2.033397299994249,2.3083287000044947,2.3083287000044947,2.507936099995277,2.3083287000044947,0.0,3.0496677000046475,0.7413390000001527,0.7413390000001527,0.94582,0.02504000396583969,-0.14568729580124912,,,,None,,-0.033,-0.03333333333333333,1.2322248988997628,1.2333333333333334,trial_list_0.8_green.csv,1.2331592999980785,1.2664902999968035,p9_high1_01,001,2023-05-03_17h05.42.805,expectation_shapes_perceived_time,2022.2.4,120.41606156185833,
,33,0.1999999999999999,unmet,,red,green,,1723.464318185802,,,,,0,37,37,110,trial,,,,,,red,1.723464318185802,1.7333333333333334,2.3080782999895746,0.9976257999951486,5e-05,5e-05,0.03323,1.7328941999876406,1.7664011000015307,1.9994661999953678,2.0329744999908144,2.3080782999895746,2.3080782999895746,2.5079612999979872,2.4079215999954613,0.0998433000058867,2.9160776999924565,0.6079994000028819,0.5081560999969952,1.5159,-0.1476390758393697,0.007381953791968486,,,,None,,0.033,0.03333333333333333,1.789794318185802,1.8,trial_list_0.8_green.csv,1.7997908999968786,1.8329595999966841,p9_high1_01,001,2023-05-03_17h05.42.805,expectation_shapes_perceived_time,2022.2.4,120.41606156185833,
,-33,0.8,met,,green,red,,654.0272389303068,,,,,0,38,38,42,trial,,,,,,green,0.6540272389303068,0.6583333333333333,2.3082776999945054,0.9978325999982189,5e-05,5e-05,,0.658400200001779,0.6915378999983659,1.9998946999985492,,2.3082776999945054,2.3082776999945054,2.5079476999962935,2.3082776999945054,0.0,3.1663874999940163,0.8581097999995109,0.8581097999995109,0.75,0.10452700597570448,-0.10452700597570448,,,,None,,-0.033,-0.03333333333333333,0.5876972389303068,0.5916666666666667,trial_list_0.8_green.csv,0.5917485999962082,0.6249958999978844,p9_high1_01,001,2023-05-03_17h05.42.805,expectation_shapes_perceived_time,2022.2.4,120.41606156185833,
,233,0.8,met,,green,red,,1499.057883325122,,,,,0,39,39,186,trial,,,,,,green,1.499057883325122,1.5083333333333333,2.307853199992678,0.9972446999890963,4e-05,4e-05,0.03334,1.5087929000001168,1.5419280999922194,2.000042999992729,2.0335362999903737,2.307853199992678,2.307853199992678,2.5080361000000266,2.5917383999913,0.28388519999862183,3.241621599998325,0.933768400005647,0.6498832000070252,1.50796,-0.14777733628094328,0.003694433407023582,,,,None,,0.233,0.23333333333333334,1.765387883325122,1.775,trial_list_0.8_green.csv,1.7750663999904646,1.8085315999924205,p9_high1_01,001,2023-05-03_17h05.42.805,expectation_shapes_perceived_time,2022.2.4,120.41606156185833,
,100,0.8,met,,green,red,,1593.2261966569522,,,,,0,40,40,202,trial,,,,,,green,1.593226196656952,1.6,2.308754300000146,0.9965749999973923,4e-05,4e-05,0.03344,1.599876399995992,1.6334161999984644,2.000200100010261,2.033641500005615,2.308754300000146,2.308754300000146,2.5088010000035865,3.333156200009398,1.0244019000092521,4.07472940000298,1.7659751000028336,0.7415731999935815,1.46042,-0.14668199812023264,-0.01833524976502908,,,,None,,0.1,0.1,1.726556196656952,1.7333333333333334,trial_list_0.8_green.csv,1.7338293000066187,1.7669891999976244,p9_high1_01,001,2023-05-03_17h05.42.805,expectation_shapes_perceived_time,2022.2.4,120.41606156185833,
,-167,0.1999999999999999,unmet,,red,green,,1397.484424062072,,,,,0,41,41,148,trial,,,,,,red,1.397484424062072,1.4,2.308198300001095,0.9977490000019316,5e-05,5e-05,0.0332,1.3997585000033723,1.433283999998821,1.9997331000049599,2.0333141000010073,2.308198300001095,2.308198300001095,2.50799700000789,2.5327150000084657,0.22451670000737067,3.165956800003187,0.8577585000020918,0.6332417999947211,1.0074,-0.0034368267856933693,-0.1477835517848149,,,,None,,-0.167,-0.16666666666666666,1.1971544240620722,1.2,trial_list_0.8_green.csv,1.1999023999960627,1.233134499998414,p9_high1_01,001,2023-05-03_17h05.42.805,expectation_shapes_perceived_time,2022.2.4,120.41606156185833,
,-233,0.8,met,,green,red,,1616.9962903944772,,,,,0,42,42,436,trial,,,,,,green,1.6169962903944772,1.625,2.3083872999995947,0.9987762999953702,6e-05,6e-05,,1.6249107000039658,1.6580573999963235,1.9998155999928713,,2.3083872999995947,2.3083872999995947,2.5080286000011256,2.3083872999995947,0.0,3.091415400005644,0.7830281000060495,0.7830281000060495,1.59366,-0.14147070612623883,0.042869910947345095,,,,None,,-0.233,-0.23333333333333334,1.3506662903944773,1.3583333333333334,trial_list_0.8_green.csv,1.3580654999968829,1.391385299997637,p9_high1_01,001,2023-05-03_17h05.42.805,expectation_shapes_perceived_time,2022.2.4,120.41606156185833,
,-167,0.8,met,,green,red,,1720.6922981816476,,,,,0,43,43,127,trial,,,,,,green,1.7206922981816477,1.7249999999999999,2.3081647000071825,0.9970963999949163,7e-05,7e-05,,1.7244552000047406,1.758146400010446,1.9999603000032948,,2.3081647000071825,2.3081647000071825,2.5075989000033587,2.5161727000086103,0.20800800000142772,3.016199100005906,0.7080343999987235,0.5000263999972958,1.33736,-0.12894357254103608,-0.07228654824270205,,,,None,,-0.167,-0.16666666666666666,1.5203622981816478,1.525,trial_list_0.8_green.csv,1.524566899999627,1.5579886000050465,p9_high1_01,001,2023-05-03_17h05.42.805,expectation_shapes_perceived_time,2022.2.4,120.41606156185833,
,-33,0.8,met,,green,red,,464.8173949688779,,,,,0,44,44,57,trial,,,,,,green,0.4648173949688779,0.4666666666666667,2.3081471000041347,0.9971643000026233,4e-05,4e-05,0.03348,0.4665192999964347,0.49992269999347627,2.0001327999925707,2.0334917000000132,2.3081471000041347,2.3081471000041347,2.508336999992025,2.5748343000013847,0.26668719999725,3.0496983000048203,0.7415512000006856,0.47486400000343565,1.08625,-0.03956405523701119,-0.14243059885324028,,,,None,,-0.033,-0.03333333333333333,0.3984873949688779,0.4,trial_list_0.8_green.csv,0.4001092999969842,0.43344550000620075,p9_high1_01,001,2023-05-03_17h05.42.805,expectation_shapes_perceived_time,2022.2.4,120.41606156185833,
,-167,0.8,met,,green,red,,1380.0730636521023,,,,,0,45,45,283,trial,,,,,,green,1.3800730636521024,1.3833333333333333,2.3084310999984154,0.9971886999992421,9e-05,9e-05,0.03334,1.383580499998061,1.4167098999896552,1.999800799996592,2.033185299995239,2.3084310999984154,2.3084310999984154,2.507972699997481,2.7664043999975547,0.45797329999913927,3.12451009999495,0.8160789999965345,0.3581056999973953,0.98233,0.008199772971808413,-0.14759591349255144,,,,None,,-0.167,-0.16666666666666666,1.1797430636521025,1.1833333333333333,trial_list_0.8_green.csv,1.1834577999979956,1.2165436999930535,p9_high1_01,001,2023-05-03_17h05.42.805,expectation_shapes_perceived_time,2022.2.4,120.41606156185833,
,-33,0.8,met,,green,red,,905.10835746008,,,,,0,46,46,348,trial,,,,,,green,0.90510835746008,0.9083333333333333,2.3080884000082733,0.9976834999979474,4e-05,4e-05,0.03315,0.9083256000012625,0.9414751000003889,1.999758700010716,2.033158000005642,2.3080884000082733,2.3080884000082733,2.5076504000026034,2.6076682999992045,0.29957989999093115,3.0247493000060786,0.7166608999978052,0.4170810000068741,0.91432,0.03931055777681295,-0.14250077194094696,,,,None,,-0.033,-0.03333333333333333,0.83877835746008,0.8416666666666667,trial_list_0.8_green.csv,0.8416380999988178,0.8749170000082813,p9_high1_01,001,2023-05-03_17h05.42.805,expectation_shapes_perceived_time,2022.2.4,120.41606156185833,
,167,0.8,met,,green,red,,1142.520967334116,,,,,0,47,47,172,trial,,,,,,green,1.142520967334116,1.15,2.3083912000001874,0.9967040000046836,4e-05,4e-05,0.03345,1.150045600006706,1.1834567000041716,1.9999472000054084,2.0332883999944897,2.3083912000001874,2.3083912000001874,2.508287400007248,2.3083912000001874,0.0,3.707887099997606,1.3994958999974187,1.3994958999974187,1.191,-0.08347355815259305,-0.12199981576148215,,,,None,,0.167,0.16666666666666666,1.342850967334116,1.35,trial_list_0.8_green.csv,1.3499905000062427,1.3834495000046445,p9_high1_01,001,2023-05-03_17h05.42.805,expectation_shapes_perceived_time,2022.2.4,120.41606156185833,
,33,0.1999999999999999,unmet,,red,green,,902.792998604336,,,,,0,48,48,406,trial,,,,,,red,0.902792998604336,0.9083333333333333,2.3082607999967877,0.9990371000021696,4e-05,4e-05,0.03303,0.9080959999992047,0.9413870999997016,1.9998913000017637,2.033107099996414,2.3082607999967877,2.3082607999967877,2.5078957000077935,2.3165696000069147,0.008308800010127015,3.199585599999409,0.8913248000026215,0.8830159999924945,0.68717,0.1229965945771262,-0.08199772971808414,,,,None,,0.033,0.03333333333333333,0.969122998604336,0.975,trial_list_0.8_green.csv,0.9745486000028905,1.0080726000014693,p9_high1_01,001,2023-05-03_17h05.42.805,expectation_shapes_perceived_time,2022.2.4,120.41606156185833,
,167,0.8,met,,green,red,,561.5893430885083,,,,,0,49,49,133,trial,,,,,,green,0.5615893430885083,0.5666666666666667,2.308347899990622,0.9977248000068357,4e-05,4e-05,0.03317,0.5665503999916837,0.5999404999893159,2.0001157999940915,2.0332191999914357,2.308347899990622,2.308347899990622,2.5081554999924265,2.549768699987908,0.24142079999728594,3.249786899992614,0.9414390000019921,0.7000182000047062,0.48532,0.14766631542097564,0.0068153684040450305,,,,None,,0.167,0.16666666666666666,0.7619193430885083,0.7666666666666666,trial_list_0.8_green.csv,0.7666903999925125,0.7999440999992657,p9_high1_01,001,2023-05-03_17h05.42.805,expectation_shapes_perceived_time,2022.2.4,120.41606156185833,
,33,0.8,met,,green,red,,918.8849315896052,0,0,0,0,0,50,50,334,fam,0.5567538999894168,0.5567538999894168,269.99999999999955,2.564812799988431,2.564812799988431,,,,,,,,,,,,,,,,,,,,,,,,,,,,,,,,,,,,p9_high1_01,001,2023-05-03_17h05.42.805,expectation_shapes_perceived_time,2022.2.4,120.41606156185833,
,33,0.8,met,,green,red,,918.8849315896052,1,0,1,0,0,50,50,334,fam,0.49764189998677466,0.49764189998677466,269.99999999999955,2.5057850999874063,2.5057850999874063,,,,,,,,,,,,,,,,,,,,,,,,,,,,,,,,,,,,p9_high1_01,001,2023-05-03_17h05.42.805,expectation_shapes_perceived_time,2022.2.4,120.41606156185833,
,33,0.8,met,,green,red,,918.8849315896052,2,0,2,0,0,50,50,334,fam,0.4971546999877319,0.4971546999877319,269.99999999999955,2.5058278999931645,2.5058278999931645,,,,,,,,,,,,,,,,,,,,,,,,,,,,,,,,,,,,p9_high1_01,001,2023-05-03_17h05.42.805,expectation_shapes_perceived_time,2022.2.4,120.41606156185833,
,33,0.8,met,,green,red,,918.8849315896052,3,0,3,0,0,50,50,334,fam,0.4971330999978818,0.4971330999978818,269.99999999999955,2.505595299997367,2.505595299997367,,,,,,,,,,,,,,,,,,,,,,,,,,,,,,,,,,,,p9_high1_01,001,2023-05-03_17h05.42.805,expectation_shapes_perceived_time,2022.2.4,120.41606156185833,
,33,0.8,met,,green,red,,918.8849315896052,,,,,0,50,50,334,trial,,,,,,green,0.9188849315896053,0.9249999999999999,2.3087272999982815,0.9974651000084123,2e-05,2e-05,0.03357,0.9257153999933507,0.958995099994354,2.0002845999988494,2.034029600006761,2.3087272999982815,2.3087272999982815,2.508779700001469,2.3087272999982815,0.0,3.3335156999964966,1.024788399998215,1.024788399998215,0.83969,0.07134032837830906,-0.12946948483470905,,,,None,,0.033,0.03333333333333333,0.9852149315896053,0.9916666666666667,trial_list_0.8_green.csv,0.9926725999976043,1.0257050999935018,p9_high1_01,001,2023-05-03_17h05.42.805,expectation_shapes_perceived_time,2022.2.4,120.41606156185833,
,233,0.8,met,,green,red,,1195.5745302953812,,,,,0,51,51,231,trial,,,,,,green,1.1955745302953813,1.2,2.3081237000005785,0.9975379999959841,4e-05,4e-05,,1.2002496000059182,1.2336592000065139,1.9998018000042066,,2.3081237000005785,2.3081237000005785,2.5081494000041857,2.3081237000005785,0.0,3.0999938000022667,0.7918701000016881,0.7918701000016881,0.87498,0.056578018473882066,-0.13656763079902567,,,,None,,0.233,0.23333333333333334,1.4619045302953813,1.4666666666666666,trial_list_0.8_green.csv,1.466646100001526,1.4998491000005743,p9_high1_01,001,2023-05-03_17h05.42.805,expectation_shapes_perceived_time,2022.2.4,120.41606156185833,
,-167,0.8,met,,green,red,,349.69493333558137,,,,,0,52,52,99,trial,,,,,,green,0.3496949333355814,0.35,2.30821719999949,0.9972676000033971,4e-05,4e-05,,0.34998440000345,0.3833740999980364,1.9997086999937892,,2.30821719999949,2.30821719999949,2.5079710999998497,2.416439499997068,0.10822229999757838,2.9997034999978496,0.6914862999983598,0.5832640000007814,0.83767,0.0721604692186755,-0.12901417223945016,,,,None,,-0.167,-0.16666666666666666,0.14936493333558137,0.15,trial_list_0.8_green.csv,0.14984430000185966,0.18311080000421498,p9_high1_01,001,2023-05-03_17h05.42.805,expectation_shapes_perceived_time,2022.2.4,120.41606156185833,
,300,0.8,met,,green,red,,504.63256315999513,,,,,0,53,53,40,trial,,,,,,green,0.5046325631599952,0.5083333333333333,2.3078285999945365,0.9979890999966301,4e-05,4e-05,,0.5083809999923687,0.5416575999988709,1.999861599993892,,2.3078285999945365,2.3078285999945365,2.5076873999933014,2.3078285999945365,0.0,3.1832201999932295,0.875391599998693,0.875391599998693,0.52177,0.14747798166584017,-0.010101231620947955,,,,None,,0.3,0.3,0.8379625631599952,0.8416666666666667,trial_list_0.8_green.csv,0.8412583000026643,0.874704899993958,p9_high1_01,001,2023-05-03_17h05.42.805,expectation_shapes_perceived_time,2022.2.4,120.41606156185833,
,100,0.8,met,,green,red,,287.942065156928,,,,,0,54,54,285,trial,,,,,,green,0.287942065156928,0.2916666666666667,2.3081827999994857,0.9976129999995464,5e-05,5e-05,0.03344,0.2918243000021903,0.32500150000851136,2.0001258000120288,2.0330939999985276,2.3081827999994857,2.3081827999994857,2.5081371999986004,2.3081827999994857,0.0,3.199242700007744,0.8910599000082584,0.8910599000082584,0.42631,0.14388045235180308,0.03391467805435358,,,,None,,0.1,0.1,0.42127206515692794,0.425,trial_list_0.8_green.csv,0.4246480000001611,0.4580000999994809,p9_high1_01,001,2023-05-03_17h05.42.805,expectation_shapes_perceived_time,2022.2.4,120.41606156185833,
,-167,0.8,met,,green,red,,615.3463160635883,,,,,0,55,55,369,trial,,,,,,green,0.6153463160635884,0.6166666666666667,2.3081211000098847,0.9991382000007434,6e-05,6e-05,0.03306,0.6162591000029352,0.6496117000060622,1.9995570000028238,2.033170599999721,2.3081211000098847,2.3081211000098847,2.5080004000046756,2.3163069000001997,0.00818579999031499,2.8494096000067657,0.541288499996881,0.533102700006566,0.55532,0.14559648417352902,-0.02556274149611578,,,,None,,-0.167,-0.16666666666666666,0.41501631606358835,0.4166666666666667,trial_list_0.8_green.csv,0.416515500008245,0.4497380999964662,p9_high1_01,001,2023-05-03_17h05.42.805,expectation_shapes_perceived_time,2022.2.4,120.41606156185833,
,33,0.1999999999999999,unmet,,red,green,,1614.2993313029574,,,,,0,56,56,380,trial,,,,,,red,1.6142993313029574,1.6166666666666667,2.3088363999995636,0.9959781999932602,3e-05,3e-05,0.03347,1.6174313000083202,1.6505649000027915,2.0004550000012387,2.0339856000064174,2.3088363999995636,2.3088363999995636,2.508613300000434,2.325228800007608,0.016392400008044206,3.3585261999978684,1.0496897999983048,1.0332973999902606,1.90895,-0.04171081627093926,0.1418167753211935,,,,None,,0.033,0.03333333333333333,1.6806293313029572,1.6833333333333333,trial_list_0.8_green.csv,1.683911400003126,1.7170462000067346,p9_high1_01,001,2023-05-03_17h05.42.805,expectation_shapes_perceived_time,2022.2.4,120.41606156185833,
,-233,0.1999999999999999,unmet,,red,green,,1754.4258983679606,,,,,0,57,57,351,trial,,,,,,red,1.7544258983679606,1.7583333333333333,2.3083626000006916,0.9967698999971617,4e-05,4e-05,,1.758428000001004,1.791869000007864,2.0001792999973986,,2.3083626000006916,2.3083626000006916,2.50829949999752,2.450276000003214,0.1419134000025224,3.291400200003409,0.9830376000027172,0.8411242000001948,1.6626,-0.12895272981703246,0.07227021121613905,,,,None,,-0.233,-0.23333333333333334,1.4880958983679606,1.4916666666666667,trial_list_0.8_green.csv,1.491606800002046,1.5251220000063768,p9_high1_01,001,2023-05-03_17h05.42.805,expectation_shapes_perceived_time,2022.2.4,120.41606156185833,
,300,0.8,met,,green,red,,1057.614631869665,,,,,0,58,58,444,trial,,,,,,green,1.0576146318696649,1.0583333333333333,2.3167272999999113,0.9977318000019295,8e-05,8e-05,0.03344,1.0581647000071825,1.0913154000008944,1.9998575000063283,2.033199700003024,2.3167272999999113,2.3167272999999113,2.516430000003311,2.4165939000085928,0.09986660000868142,3.108034000004409,0.7913067000044975,0.6914400999958161,0.95923,0.0188819293683587,-0.14661262803666755,,,,None,,0.3,0.3,1.3909446318696648,1.3916666666666666,trial_list_0.8_green.csv,1.3910647000011522,1.4246736000059173,p9_high1_01,001,2023-05-03_17h05.42.805,expectation_shapes_perceived_time,2022.2.4,120.41606156185833,
,-300,0.8,met,,green,red,,1141.2788702483465,,,,,0,59,59,459,trial,,,,,,green,1.1412788702483465,1.1416666666666666,2.3079896999988705,0.9966365000000224,4e-05,4e-05,,1.1417146000021603,1.1749544000049355,2.000039000005927,,2.3079896999988705,2.3079896999988705,2.507800999999745,2.3079896999988705,0.0,3.2914233000046806,0.9834336000058101,0.9834336000058101,1.38688,-0.13858681282667124,-0.05143428104907386,,,,None,,-0.3,-0.3,0.8079488702483465,0.8083333333333333,trial_list_0.8_green.csv,0.8084388999996008,0.8416444000031333,p9_high1_01,001,2023-05-03_17h05.42.805,expectation_shapes_perceived_time,2022.2.4,120.41606156185833,
,-233,0.8,met,,green,red,,822.4256095933736,,,,,0,60,60,418,trial,,,,,,green,0.8224256095933735,0.825,2.3078245999931823,0.9975492999947164,0.00011,0.00011,0.03273,0.8248999999923399,0.8579597999923863,1.9997495999996318,2.032880300001125,2.3078245999931823,2.3078245999931823,2.5075115999934496,2.4243311999889556,0.11650659999577329,3.0905052999878535,0.7826806999946712,0.6661740999988979,1.05072,-0.023456352938037314,-0.1459506405033433,,,,None,,-0.233,-0.23333333333333334,0.5560956095933736,0.5583333333333333,trial_list_0.8_green.csv,0.5578854999912437,0.5913365999876987,p9_high1_01,001,2023-05-03_17h05.42.805,expectation_shapes_perceived_time,2022.2.4,120.41606156185833,
,167,0.8,met,,green,red,,1228.5317116907734,,,,,0,61,61,195,trial,,,,,,green,1.2285317116907735,1.2333333333333334,2.3081546000030357,0.9985133000009228,4e-05,4e-05,0.03338,1.2332961000065552,1.2666791000083322,1.9998166000004858,2.0333379000076093,2.3081546000030357,2.3081546000030357,2.5083153000014136,2.3081546000030357,0.0,3.325068900012411,1.0169143000093754,1.0169143000093754,1.01915,-0.008888916475977272,-0.14755601350122274,,,,None,,0.167,0.16666666666666666,1.4288617116907734,1.4333333333333333,trial_list_0.8_green.csv,1.4331122000003234,1.4665744000085397,p9_high1_01,001,2023-05-03_17h05.42.805,expectation_shapes_perceived_time,2022.2.4,120.41606156185833,
,100,0.8,met,,green,red,,1029.907430126489,,,,,0,62,62,488,trial,,,,,,green,1.029907430126489,1.0333333333333332,2.3086354000115534,0.995460499994806,3e-05,3e-05,,1.0332819000032032,1.0668389000056777,2.000135300011607,,2.3086354000115534,2.3086354000115534,2.508344000001671,2.4417727000109153,0.13313729999936186,3.0918333000008715,0.7831978999893181,0.6500605999899562,1.04575,-0.021174864013463836,-0.14629906045665925,,,,None,,0.1,0.1,1.163237430126489,1.1666666666666667,trial_list_0.8_green.csv,1.1664509000111138,1.19984870000917,p9_high1_01,001,2023-05-03_17h05.42.805,expectation_shapes_perceived_time,2022.2.4,120.41606156185833,
,233,0.1999999999999999,unmet,,red,green,,647.0392103999707,,,,,0,63,63,230,trial,,,,,,red,0.6470392103999707,0.65,2.3081520999985514,0.9974197999981698,3e-05,3e-05,,0.6494049000029918,0.6826822000002721,1.9997417999984464,,2.3081520999985514,2.3081520999985514,2.508279899993795,2.3081520999985514,0.0,3.0995263999939198,0.7913742999953683,0.7913742999953683,0.74091,0.10746963565173664,-0.10149910033775127,,,,None,,0.233,0.23333333333333334,0.9133692103999708,0.9166666666666666,trial_list_0.8_green.csv,0.916519899998093,0.9498353999952087,p9_high1_01,001,2023-05-03_17h05.42.805,expectation_shapes_perceived_time,2022.2.4,120.41606156185833,
,33,0.8,met,,green,red,,444.7101100354956,,,,,0,64,64,397,trial,,,,,,green,0.4447101100354956,0.45,2.308089199999813,0.9977454000036232,4e-05,4e-05,,0.44995249999919906,0.48339690000284463,1.9999645999923814,,2.308089199999813,2.308089199999813,2.5081384999939473,2.308089199999813,0.0,3.0165248999983305,0.7084356999985175,0.7084356999985175,0.72881,0.11124852816826347,-0.09734246214723054,,,,None,,0.033,0.03333333333333333,0.5110401100354955,0.5166666666666666,trial_list_0.8_green.csv,0.5166938999900594,0.550102599998354,p9_high1_01,001,2023-05-03_17h05.42.805,expectation_shapes_perceived_time,2022.2.4,120.41606156185833,
,167,0.8,met,,green,red,,1282.5979666450191,,,,,0,65,65,457,trial,,,,,,green,1.2825979666450191,1.2833333333333332,2.3086024000076577,0.9966149999963818,4e-05,4e-05,0.03339,1.2833478000102332,1.3168149000121048,2.0002361000078963,2.0335478000051808,2.3086024000076577,2.3086024000076577,2.5078849000128685,2.366474400012521,0.057872000004863366,3.0415683000028366,0.7329658999951789,0.6750938999903155,1.15323,-0.06844495384984858,-0.13102319736971016,,,,None,,0.167,0.16666666666666666,1.482927966645019,1.4916666666666667,trial_list_0.8_green.csv,1.4917802999989362,1.5251046000048518,p9_high1_01,001,2023-05-03_17h05.42.805,expectation_shapes_perceived_time,2022.2.4,120.41606156185833,
,300,0.1999999999999999,unmet,,red,green,,1388.7779231612233,,,,,0,66,66,374,trial,,,,,,red,1.3887779231612232,1.3916666666666666,2.3086403000052087,0.9958692000072915,4e-05,4e-05,,1.3917572000063956,1.4250135000038426,2.00006440001016,,2.3086403000052087,2.3086403000052087,2.5084502000099747,2.4334208000072977,0.12478050000208896,2.949930900009349,0.6412906000041403,0.5165101000020513,1.17666,-0.0778940711380466,-0.12563559860975254,,,,None,,0.3,0.3,1.7221079231612233,1.7249999999999999,trial_list_0.8_green.csv,1.7248411000036867,1.7583325000014156,p9_high1_01,001,2023-05-03_17h05.42.805,expectation_shapes_perceived_time,2022.2.4,120.41606156185833,
,-167,0.8,met,,green,red,,1171.981435342347,,,,,0,67,67,443,trial,,,,,,green,1.171981435342347,1.175,2.308713099992019,0.9967678000102751,3e-05,3e-05,,1.1753462999913609,1.2087360000004992,2.0003065999917453,,2.308713099992019,2.308713099992019,2.508238900001743,2.5582181999925524,0.24950510000053328,3.108236799991573,0.7995236999995541,0.5500185999990208,1.06048,-0.027916084486474618,-0.145163639329668,,,,None,,-0.167,-0.16666666666666666,0.9716514353423469,0.975,trial_list_0.8_green.csv,0.9751908999896841,1.00881389999995,p9_high1_01,001,2023-05-03_17h05.42.805,expectation_shapes_perceived_time,2022.2.4,120.41606156185833,
,167,0.8,met,,green,red,,803.6816975598755,,,,,0,68,68,152,trial,,,,,,green,0.8036816975598755,0.8083333333333333,2.308462100001634,0.9969820999976946,4e-05,4e-05,0.03331,0.8081654999987222,0.8413593000004767,1.9999969999917084,2.0332856999884825,2.308462100001634,2.308462100001634,2.5081920999946306,2.733110699991812,0.4246485999901779,3.1747344999894267,0.8662723999877926,0.4416237999976147,1.11625,-0.052793313632142215,-0.13807482026867965,,,,None,,0.167,0.16666666666666666,1.0040116975598756,1.0083333333333333,trial_list_0.8_green.csv,1.0084672999946633,1.04173539999465,p9_high1_01,001,2023-05-03_17h05.42.805,expectation_shapes_perceived_time,2022.2.4,120.41606156185833,
,100,0.8,met,,green,red,,723.8849335604222,,,,,0,69,69,256,trial,,,,,,green,0.7238849335604222,0.725,2.3082589999976335,0.997686300004716,4e-05,4e-05,0.03341,0.7251393999904394,0.758280800000648,2.00003189999552,2.0332861999922898,2.3082589999976335,2.3082589999976335,2.5083436999993864,2.6251466999965487,0.3168876999989152,2.9749210000009043,0.6666620000032708,0.3497743000043556,1.03071,-0.01423898053255947,-0.1471361321697812,,,,None,,0.1,0.1,0.8572149335604222,0.8583333333333333,trial_list_0.8_green.csv,0.8585212999896612,0.8915543999901274,p9_high1_01,001,2023-05-03_17h05.42.805,expectation_shapes_perceived_time,2022.2.4,120.41606156185833,
,300,0.8,met,,green,red,,498.22127824740767,,,,,0,70,70,33,trial,,,,,,green,0.4982212782474077,0.5,2.3082091999967815,0.9969722999958321,2e-05,2e-05,0.03328,0.5003601999924285,0.5337287000002107,2.000958199991146,2.034113999994588,2.3082091999967815,2.3082091999967815,2.508179199998267,2.7755114000028698,0.46730220000608824,3.18372939999972,0.8755202000029385,0.40821799999685027,1.20294,-0.08798862547571348,-0.11878464439221322,,,,None,,0.3,0.3,0.8315512782474077,0.8333333333333334,trial_list_0.8_green.csv,0.8339620999904582,0.8670484000031138,p9_high1_01,001,2023-05-03_17h05.42.805,expectation_shapes_perceived_time,2022.2.4,120.41606156185833,
,167,0.8,met,,green,red,,1063.5056971268068,,,,,0,71,71,340,trial,,,,,,green,1.0635056971268069,1.0666666666666667,2.3078519999980927,0.997810999993817,8e-05,8e-05,,1.0662967000098433,1.0997904000105336,1.999485000007553,,2.3078519999980927,2.3078519999980927,2.507889600005001,2.6410833000118146,0.3332313000137219,3.1239632000069832,0.8161112000088906,0.48287989999516867,1.1358,-0.06116980346186625,-0.13457356761610573,,,,None,,0.167,0.16666666666666666,1.2638356971268068,1.2666666666666666,trial_list_0.8_green.csv,1.266369000004488,1.2999321000097552,p9_high1_01,001,2023-05-03_17h05.42.805,expectation_shapes_perceived_time,2022.2.4,120.41606156185833,
,233,0.1999999999999999,unmet,,red,green,,598.0053702209204,,,,,0,72,72,447,trial,,,,,,red,0.5980053702209205,0.6,2.3083534999896074,0.9987431000045035,5e-05,5e-05,0.03368,0.6000302999891574,0.6334734999982174,1.9999911999912001,2.0332713999960106,2.3083534999896074,2.3083534999896074,2.5084406999958446,2.5584899999957997,0.25013650000619236,3.0079033999936655,0.6995499000040581,0.4494133999978658,1.08295,-0.038088597269059964,-0.14283223975897488,,,,None,,0.233,0.23333333333333334,0.8643353702209204,0.8666666666666667,trial_list_0.8_green.csv,0.8666903999983333,0.9002232999919215,p9_high1_01,001,2023-05-03_17h05.42.805,expectation_shapes_perceived_time,2022.2.4,120.41606156185833,
,33,0.8,met,,green,red,,184.1704989840297,,,,,0,73,73,137,trial,,,,,,green,0.1841704989840297,0.18333333333333332,2.309469600004377,0.9969233000010718,2e-05,2e-05,0.03334,0.18335099999967497,0.21671940000669565,2.0007439000037266,2.0341059000056703,2.309469600004377,2.309469600004377,2.5093056000041543,2.716998200005037,0.40752860000065994,3.108879099992919,0.7994094999885419,0.391880899987882,1.06567,-0.030283590406602418,-0.14468826527598933,,,,None,,0.033,0.03333333333333333,0.2505004989840297,0.25,trial_list_0.8_green.csv,0.24995889999263454,0.2834054999984801,p9_high1_01,001,2023-05-03_17h05.42.805,expectation_shapes_perceived_time,2022.2.4,120.41606156185833,
,-300,0.8,met,,green,red,,1643.0459336808965,,,,,0,74,74,175,trial,,,,,,green,1.6430459336808965,1.65,2.308291699999245,0.9966017999977339,3e-05,3e-05,0.03354,1.6500943999999436,1.6832415999961086,2.0001185000000987,2.0334083999914583,2.308291699999245,2.308291699999245,2.508248199999798,2.5500184999982594,0.24172679999901447,2.9666708999866387,0.6583791999873938,0.41665239998837933,0.99036,0.004477444999276975,-0.14775568497614017,,,,None,,-0.3,-0.3,1.3097159336808966,1.3166666666666667,trial_list_0.8_green.csv,1.3164411999896402,1.3504901999986032,p9_high1_01,001,2023-05-03_17h05.42.805,expectation_shapes_perceived_time,2022.2.4,120.41606156185833,
,-33,0.8,met,,green,red,,1044.1476823087464,0,0,0,0,0,75,75,280,fam,0.5560079999995651,0.5560079999995651,269.99999999999955,2.564157200002228,2.564157200002228,,,,,,,,,,,,,,,,,,,,,,,,,,,,,,,,,,,,p9_high1_01,001,2023-05-03_17h05.42.805,expectation_shapes_perceived_time,2022.2.4,120.41606156185833,
,-33,0.8,met,,green,red,,1044.1476823087464,1,0,1,0,0,75,75,280,fam,0.49628440001106355,0.49628440001106355,269.99999999999955,2.504677900011302,2.504677900011302,,,,,,,,,,,,,,,,,,,,,,,,,,,,,,,,,,,,p9_high1_01,001,2023-05-03_17h05.42.805,expectation_shapes_perceived_time,2022.2.4,120.41606156185833,
,-33,0.8,met,,green,red,,1044.1476823087464,2,0,2,0,0,75,75,280,fam,0.49785179999889806,0.49785179999889806,269.99999999999955,2.506055899997591,2.506055899997591,,,,,,,,,,,,,,,,,,,,,,,,,,,,,,,,,,,,p9_high1_01,001,2023-05-03_17h05.42.805,expectation_shapes_perceived_time,2022.2.4,120.41606156185833,
,-33,0.8,met,,green,red,,1044.1476823087464,3,0,3,0,0,75,75,280,fam,0.49753039999632165,0.49753039999632165,269.99999999999955,2.5058597000024747,2.5058597000024747,,,,,,,,,,,,,,,,,,,,,,,,,,,,,,,,,,,,p9_high1_01,001,2023-05-03_17h05.42.805,expectation_shapes_perceived_time,2022.2.4,120.41606156185833,
,-33,0.8,met,,green,red,,1044.1476823087464,,,,,0,75,75,280,trial,,,,,,green,1.0441476823087463,1.05,2.308930200000759,0.9977613999944879,2e-05,2e-05,0.03326,1.0506061999913072,1.0838598999980604,2.000652299990179,2.033963699999731,2.308930200000759,2.308930200000759,2.509111799998209,2.583460299996659,0.27453009999589995,3.3501811000023736,1.0412509000016144,0.7667208000057144,0.99642,0.0016608334747688098,-0.14781417925442408,,,,None,,-0.033,-0.03333333333333333,0.9778176823087464,0.9833333333333333,trial_list_0.8_green.csv,0.9838780999998562,1.0171394999924814,p9_high1_01,001,2023-05-03_17h05.42.805,expectation_shapes_perceived_time,2022.2.4,120.41606156185833,
,-167,0.8,met,,green,red,,696.9173900967019,,,,,0,76,76,275,trial,,,,,,green,0.6969173900967018,0.7,2.308332900007372,0.9947432999906596,3e-05,3e-05,0.03331,0.6994951000087894,0.7328474000096321,1.9999559999996563,2.033353300008457,2.308332900007372,2.308332900007372,2.5081264000036754,2.308332900007372,0.0,3.1417178999981843,0.8333849999908125,0.8333849999908125,0.95802,0.019438954874340615,-0.14653981366810617,,,,None,,-0.167,-0.16666666666666666,0.4965873900967019,0.5,trial_list_0.8_green.csv,0.5000331000046572,0.5328977000026498,p9_high1_01,001,2023-05-03_17h05.42.805,expectation_shapes_perceived_time,2022.2.4,120.41606156185833,
,167,0.8,met,,green,red,,860.9241319043391,,,,,0,77,77,139,trial,,,,,,green,0.8609241319043391,0.8666666666666667,2.308218799997121,0.9973442999908002,4e-05,4e-05,0.03335,0.8664928000071086,0.8998904000036418,2.000107300002128,2.033391599994502,2.308218799997121,2.308218799997121,2.5084490000008373,2.558390399994096,0.2501715999969747,3.2829945999983465,0.9747758000012254,0.7246042000042507,0.99634,0.001699008567707255,-0.1478137453905312,,,,None,,0.167,0.16666666666666666,1.061254131904339,1.0666666666666667,trial_list_0.8_green.csv,1.0667981000005966,1.0999586999969324,p9_high1_01,001,2023-05-03_17h05.42.805,expectation_shapes_perceived_time,2022.2.4,120.41606156185833,
,300,0.8,met,,green,red,,182.13172621757465,,,,,0,78,78,63,trial,,,,,,green,0.18213172621757465,0.18333333333333332,2.3078591999947093,0.9966778999951202,4e-05,4e-05,,0.18332070000178646,0.21682480000890791,2.0000610999995843,,2.3078591999947093,2.3078591999947093,2.5078380000049947,2.6166547000029823,0.30879550000827294,2.958237300001201,0.6503781000064919,0.34158259999821894,0.8005,0.08669993877972913,-0.1197284868862926,,,,None,,0.3,0.3,0.5154617262175747,0.5166666666666666,trial_list_0.8_green.csv,0.5165853000071365,0.5501736000005621,p9_high1_01,001,2023-05-03_17h05.42.805,expectation_shapes_perceived_time,2022.2.4,120.41606156185833,
,-100,0.8,met,,green,red,,753.9497762843864,,,,,0,79,79,36,trial,,,,,,green,0.7539497762843864,0.7583333333333333,2.3078750999993645,0.9976755999960005,4e-05,4e-05,0.03314,0.7582300000067335,0.7914351000072202,1.9997854000102961,2.0333282000065083,2.3078750999993645,2.3078750999993645,2.508258100002422,2.5578676000004634,0.24999250000109896,3.033162400010042,0.7252873000106774,0.47529480000957847,0.90967,0.041390582655826555,-0.14191056910569105,,,,None,,-0.1,-0.1,0.6206197762843864,0.625,trial_list_0.8_green.csv,0.6249509000044782,0.6582054000027711,p9_high1_01,001,2023-05-03_17h05.42.805,expectation_shapes_perceived_time,2022.2.4,120.41606156185833,
,-100,0.8,met,,green,red,,1432.9508824821614,,,,,0,80,80,248,trial,,,,,,green,1.4329508824821615,1.4416666666666667,2.3083997999929124,0.9966964000050211,4e-05,4e-05,,1.4415604999958305,1.475237599996035,1.9998357000004034,,2.3083997999929124,2.3083997999929124,2.50813799999014,2.4247475000011036,0.11634770000819117,2.9415069999959087,0.6331072000029963,0.5167594999948051,1.50518,-0.14780397161698347,0.0024033166116582674,,,,None,,-0.1,-0.1,1.2996208824821616,1.3,trial_list_0.8_green.csv,1.2996856999961892,1.3330371999909403,p9_high1_01,001,2023-05-03_17h05.42.805,expectation_shapes_perceived_time,2022.2.4,120.41606156185833,
,-100,0.8,met,,green,red,,339.8717789246724,,,,,0,81,81,241,trial,,,,,,green,0.3398717789246724,0.3416666666666667,2.3081998999987263,0.9976881000038702,4e-05,4e-05,0.03328,0.3409825999988243,0.37427039998874534,2.0000381999998353,2.0334601999929873,2.3081998999987263,2.3081998999987263,2.5080606999981683,2.3081998999987263,0.0,2.999802299993462,0.6916023999947356,0.6916023999947356,0.60499,0.13985512301791503,-0.047878330402529465,,,,None,,-0.1,-0.1,0.20654177892467243,0.20833333333333334,trial_list_0.8_green.csv,0.20788069999252912,0.24104939999233466,p9_high1_01,001,2023-05-03_17h05.42.805,expectation_shapes_perceived_time,2022.2.4,120.41606156185833,
,33,0.1999999999999999,unmet,,red,green,,1017.1361754876608,,,,,0,82,82,268,trial,,,,,,red,1.0171361754876609,1.0166666666666666,2.3082206999970367,0.9969415999948978,4e-05,4e-05,0.03326,1.0164321000047494,1.0500429999956395,1.99981839999964,2.033422900000005,2.3082206999970367,2.3082206999970367,2.508004000002984,2.6585450999991735,0.3503244000021368,3.474578199995449,1.166357499998412,0.8160330999962753,0.94685,0.02456759051741454,-0.14576770373665962,,,,None,,0.033,0.03333333333333333,1.0834661754876607,1.0833333333333333,trial_list_0.8_green.csv,1.08322839999164,1.116561000002548,p9_high1_01,001,2023-05-03_17h05.42.805,expectation_shapes_perceived_time,2022.2.4,120.41606156185833,
,-33,0.1999999999999999,unmet,,red,green,,710.692054529364,,,,,0,83,83,180,trial,,,,,,red,0.710692054529364,0.7166666666666667,2.3080658999970183,0.9969580000033602,4e-05,4e-05,0.03327,0.7165977999975439,0.7501565999991726,1.999420000007376,2.032714800006943,2.3080658999970183,2.3080658999970183,2.50823279999895,2.3080658999970183,0.0,3.1915093999996316,0.8834435000026133,0.8834435000026133,0.97309,0.01248267194747021,-0.14729552898014847,,,,None,,-0.033,-0.03333333333333333,0.6443620545293639,0.65,trial_list_0.8_green.csv,0.6500540999986697,0.6832062000030419,p9_high1_01,001,2023-05-03_17h05.42.805,expectation_shapes_perceived_time,2022.2.4,120.41606156185833,
,100,0.8,met,,green,red,,1330.9616200441756,,,,,0,84,84,391,trial,,,,,,green,1.3309616200441756,1.3333333333333333,2.3081852000032086,0.9974530999897979,4e-05,4e-05,,1.3329835000040475,1.3664146000082837,1.9997245000122348,,2.3081852000032086,2.3081852000032086,2.50781320000533,2.4083465000003343,0.10016129999712575,2.949201200011885,0.6410160000086762,0.5408547000115504,1.49217,-0.1477788370671258,-0.0036339058295194863,,,,None,,0.1,0.1,1.4642916200441756,1.4666666666666666,trial_list_0.8_green.csv,1.4663933000119869,1.4996767999982694,p9_high1_01,001,2023-05-03_17h05.42.805,expectation_shapes_perceived_time,2022.2.4,120.41606156185833,
,-33,0.8,met,,green,red,,338.104641155359,,,,,0,85,85,485,trial,,,,,,green,0.338104641155359,0.3416666666666667,2.3080307000054745,0.9991200999938883,4e-05,4e-05,,0.34136610000859946,0.3748180999973556,1.9997269000014057,,2.3080307000054745,2.3080307000054745,2.508162900005118,2.3415475000074366,0.03351680000196211,3.0912857000075746,0.7832550000021001,0.749738200000138,0.4554,0.14637510460536937,0.020642642957167476,,,,None,,-0.033,-0.03333333333333333,0.271774641155359,0.275,trial_list_0.8_green.csv,0.27473279999685474,0.3081133000086993,p9_high1_01,001,2023-05-03_17h05.42.805,expectation_shapes_perceived_time,2022.2.4,120.41606156185833,
,-100,0.8,met,,green,red,,996.2393255595564,,,,,0,86,86,495,trial,,,,,,green,0.9962393255595564,1.0,2.308688799996162,0.9964848000090569,3e-05,3e-05,,1.0001159000094049,1.033387400006177,2.000459900009446,,2.308688799996162,2.308688799996162,2.508916799997678,2.383744300008402,0.07505550001224037,3.2336508000007598,0.9249620000045979,0.8499064999923576,0.76273,0.10026574519991245,-0.10862122396657181,,,,None,,-0.1,-0.1,0.8629093255595564,0.8666666666666667,trial_list_0.8_green.csv,0.8670915999973658,0.9004370000038762,p9_high1_01,001,2023-05-03_17h05.42.805,expectation_shapes_perceived_time,2022.2.4,120.41606156185833,
,300,0.8,met,,green,red,,1382.3486158808228,,,,,0,87,87,82,trial,,,,,,green,1.3823486158808227,1.3833333333333333,2.308993200000259,0.9966643000079785,4e-05,4e-05,0.03354,1.3835476999956882,1.4169047000032151,2.000434799992945,2.0340540000033798,2.308993200000259,2.308993200000259,2.5082139000005554,2.4001377999957185,0.09114459999545943,3.333222899993416,1.0242296999931568,0.9330850999976974,1.06872,-0.031664965623326546,-0.14439224324236904,,,,None,,0.3,0.3,1.7156786158808226,1.7249999999999999,trial_list_0.8_green.csv,1.7252465999918059,1.758706799999345,p9_high1_01,001,2023-05-03_17h05.42.805,expectation_shapes_perceived_time,2022.2.4,120.41606156185833,
,100,0.8,met,,green,red,,1402.6899112097096,,,,,0,88,88,487,trial,,,,,,green,1.4026899112097095,1.4083333333333332,2.308399300003657,0.9978964000038104,5e-05,5e-05,,1.4078224999975646,1.4413530000019819,2.0002374000032432,2.033502899997984,2.308399300003657,2.308399300003657,2.50820979999844,2.308399300003657,0.0,3.391248899992206,1.082849599988549,1.082849599988549,1.34088,-0.12973544692422218,-0.07085551332015212,,,,None,,0.1,0.1,1.5360199112097095,1.5416666666666667,trial_list_0.8_green.csv,1.5418570000038017,1.5749368999968283,p9_high1_01,001,2023-05-03_17h05.42.805,expectation_shapes_perceived_time,2022.2.4,120.41606156185833,
,33,0.8,met,,green,red,,1185.0526131860183,,,,,0,89,89,419,trial,,,,,,green,1.1850526131860184,1.1916666666666667,2.3084086000017123,0.99644360000093,6e-05,6e-05,,1.191640599994571,1.2247763000050327,1.9996179000008851,,2.3084086000017123,2.3084086000017123,2.5079490000061924,2.383103000000119,0.07469439999840688,3.5329897000046913,1.224581100002979,1.149886700004572,1.06283,-0.028990575362779485,-0.14495287681389743,,,,None,,0.033,0.03333333333333333,1.2513826131860182,1.2583333333333333,trial_list_0.8_green.csv,1.2583951999986311,1.291522300001816,p9_high1_01,001,2023-05-03_17h05.42.805,expectation_shapes_perceived_time,2022.2.4,120.41606156185833,
,167,0.8,met,,green,red,,595.8373461042937,,,,,0,90,90,49,trial,,,,,,green,0.5958373461042937,0.6,2.3077393999992637,0.997659400003613,4e-05,4e-05,0.03325,0.6000480000075186,0.6330700999969849,1.999936100008199,2.0332334999984596,2.3077393999992637,2.3077393999992637,2.508176800009096,3.041291600005934,0.7335522000066703,4.066188199998578,1.7584487999993144,1.024896599992644,1.05404,-0.024976824125675912,-0.1456981407331095,,,,None,,0.167,0.16666666666666666,0.7961673461042937,0.8,trial_list_0.8_green.csv,0.7997999000072014,0.8331800000014482,p9_high1_01,001,2023-05-03_17h05.42.805,expectation_shapes_perceived_time,2022.2.4,120.41606156185833,
,-33,0.8,met,,green,red,,1221.495684856336,,,,,0,91,91,134,trial,,,,,,green,1.221495684856336,1.225,2.307905399997253,0.997643099995912,4e-05,4e-05,,1.2249404000031063,1.25814679999894,1.9999091000063345,,2.307905399997253,2.307905399997253,2.5083420000009937,2.307905399997253,0.0,3.0250631000089925,0.7171577000117395,0.7171577000117395,1.03141,-0.014564776178856298,-0.14710423940644862,,,,None,,-0.033,-0.03333333333333333,1.155165684856336,1.1583333333333332,trial_list_0.8_green.csv,1.1581333000067389,1.1914762000087649,p9_high1_01,001,2023-05-03_17h05.42.805,expectation_shapes_perceived_time,2022.2.4,120.41606156185833,
,-100,0.8,met,,green,red,,851.7104975765228,,,,,0,92,92,141,trial,,,,,,green,0.8517104975765228,0.8583333333333333,2.308193199991365,0.996907699998701,4e-05,4e-05,0.03303,0.8581692000007024,0.8916903999925125,1.9999268999963533,2.033222599988221,2.308193199991365,2.308193199991365,2.5081310999958077,2.458159399990109,0.14996619999874383,2.932850099998177,0.6246569000068121,0.47469070000806823,0.9773,0.010531988969672789,-0.14744784557541904,,,,None,,-0.1,-0.1,0.7183804975765228,0.725,trial_list_0.8_green.csv,0.7251494999945862,0.757955299995956,p9_high1_01,001,2023-05-03_17h05.42.805,expectation_shapes_perceived_time,2022.2.4,120.41606156185833,
,233,0.1999999999999999,unmet,,red,green,,861.589684558267,,,,,0,93,93,309,trial,,,,,,red,0.861589684558267,0.8666666666666667,2.3081202000030316,0.9968354000011459,0.00011,0.00011,0.03346,0.8662520999932894,0.8995549999963259,2.0000484000047436,2.0331096000008984,2.3081202000030316,2.3081202000030316,2.5081479999935254,2.408126700000139,0.10000649999710731,3.0912204000051133,0.7831002000020817,0.6830937000049744,0.97397,0.012076181356006218,-0.14732941254327586,,,,None,,0.233,0.23333333333333334,1.1279196845582669,1.1333333333333333,trial_list_0.8_green.csv,1.133393199997954,1.1668504999979632,p9_high1_01,001,2023-05-03_17h05.42.805,expectation_shapes_perceived_time,2022.2.4,120.41606156185833,
,-233,0.8,met,,green,red,,1740.408703372748,,,,,0,94,94,2,trial,,,,,,green,1.740408703372748,1.75,2.30912079999689,0.9973732000071323,2e-05,2e-05,,1.7506279999943217,1.783959699998377,2.0002987000043504,,2.30912079999689,2.30912079999689,2.5085125000041444,2.3174727000005078,0.00835190000361763,2.9420250999974087,0.6329043000005186,0.6245523999969009,1.77986,-0.09427717774894534,0.11385782235834167,,,,None,,-0.233,-0.23333333333333334,1.474078703372748,1.4833333333333334,trial_list_0.8_green.csv,1.4836855000030482,1.5170401000068523,p9_high1_01,001,2023-05-03_17h05.42.805,expectation_shapes_perceived_time,2022.2.4,120.41606156185833,
,-100,0.1999999999999999,unmet,,red,green,,715.7475450021101,,,,,0,95,95,222,trial,,,,,,red,0.7157475450021101,0.7166666666666667,2.308233600007952,0.9977478999935556,4e-05,4e-05,,0.7165689999965252,0.7497647999989567,1.9998817000014242,,2.308233600007952,2.308233600007952,2.508223500000895,2.308233600007952,0.0,2.991353999997955,0.6831203999900026,0.6831203999900026,0.84105,0.07078560248161761,-0.12977360454963227,,,,None,,-0.1,-0.1,0.5824175450021101,0.5833333333333334,trial_list_0.8_green.csv,0.5831401000032201,0.6165043000073638,p9_high1_01,001,2023-05-03_17h05.42.805,expectation_shapes_perceived_time,2022.2.4,120.41606156185833,
,100,0.8,met,,green,red,,917.3604580690048,,,,,0,96,96,223,trial,,,,,,green,0.9173604580690048,0.9166666666666666,2.3078744999947958,0.9975299999932759,7e-05,7e-05,0.0336,0.9168241000006674,0.9501400000008289,1.9999268999963533,2.033365399998729,2.3078744999947958,2.3078744999947958,2.5084609000041382,2.3078744999947958,0.0,3.2083447000040906,0.9004702000092948,0.9004702000092948,1.0074,-0.0034368267856933693,-0.1477835517848149,,,,None,,0.1,0.1,1.0506904580690049,1.0583333333333333,trial_list_0.8_green.csv,1.0584437000070466,1.0919148999964818,p9_high1_01,001,2023-05-03_17h05.42.805,expectation_shapes_perceived_time,2022.2.4,120.41606156185833,
,33,0.8,met,,green,red,,1646.0018739267182,,,,,0,97,97,17,trial,,,,,,green,1.6460018739267182,1.65,2.3082190999994054,0.9976352000085171,4e-05,4e-05,,1.650189699998009,1.6834302000061143,1.9998750999948243,,2.3082190999994054,2.3082190999994054,2.508124800006044,2.383063300003414,0.0748442000040086,3.0076890000054846,0.6994699000060791,0.6246257000020705,1.94294,-0.026357562527875484,0.14545469691309063,,,,None,,0.033,0.03333333333333333,1.7123318739267182,1.7166666666666666,trial_list_0.8_green.csv,1.7165882999979658,1.7499111000070116,p9_high1_01,001,2023-05-03_17h05.42.805,expectation_shapes_perceived_time,2022.2.4,120.41606156185833,
,-167,0.8,met,,green,red,,925.8865852331518,,,,,0,98,98,43,trial,,,,,,green,0.9258865852331518,0.9249999999999999,2.3086253000074066,0.9987219000031473,0.00012,0.00012,,0.9252818999957526,0.9583925000042655,2.0001874000008684,,2.3086253000074066,2.3086253000074066,2.5083497000014177,2.4996469000034267,0.19102159999602009,3.099921600005473,0.7912962999980664,0.6002747000020463,0.9616,0.017787805047834417,-0.14674939164463396,,,,None,,-0.167,-0.16666666666666666,0.7255565852331517,0.725,trial_list_0.8_green.csv,0.7250428999977885,0.7583904000057373,p9_high1_01,001,2023-05-03_17h05.42.805,expectation_shapes_perceived_time,2022.2.4,120.41606156185833,
,-233,0.8,met,,green,red,,867.3749480076932,,,,,0,99,99,359,trial,,,,,,green,0.8673749480076932,0.8666666666666667,2.3087475999927847,0.9960883000021568,3e-05,3e-05,,0.8671758999989834,0.9005316999973729,2.0005735000013374,,2.3087475999927847,2.3087475999927847,2.508849599995301,3.2670997999957763,0.9583522000029916,4.017009599992889,1.7082620000001043,0.7499097999971127,1.04439,-0.020545786824496554,-0.14638873112453793,,,,None,,-0.233,-0.23333333333333334,0.6010449480076931,0.6,trial_list_0.8_green.csv,0.6004714000009699,0.6339641999948071,p9_high1_01,001,2023-05-03_17h05.42.805,expectation_shapes_perceived_time,2022.2.4,120.41606156185833,
,33,0.8,met,,green,red,,1277.7354394103972,0,0,0,0,0,100,100,128,fam,0.5640466999902856,0.5640466999902856,269.99999999999955,2.5719023999990895,2.5719023999990895,,,,,,,,,,,,,,,,,,,,,,,,,,,,,,,,,,,,p9_high1_01,001,2023-05-03_17h05.42.805,expectation_shapes_perceived_time,2022.2.4,120.41606156185833,
,33,0.8,met,,green,red,,1277.7354394103972,1,0,1,0,0,100,100,128,fam,0.49697620001097675,0.49697620001097675,269.99999999999955,2.5057450000022072,2.5057450000022072,,,,,,,,,,,,,,,,,,,,,,,,,,,,,,,,,,,,p9_high1_01,001,2023-05-03_17h05.42.805,expectation_shapes_perceived_time,2022.2.4,120.41606156185833,
,33,0.8,met,,green,red,,1277.7354394103972,2,0,2,0,0,100,100,128,fam,0.4975935999973444,0.4975935999973444,269.99999999999955,2.5052361999987625,2.5052361999987625,,,,,,,,,,,,,,,,,,,,,,,,,,,,,,,,,,,,p9_high1_01,001,2023-05-03_17h05.42.805,expectation_shapes_perceived_time,2022.2.4,120.41606156185833,
,33,0.8,met,,green,red,,1277.7354394103972,3,0,3,0,0,100,100,128,fam,0.4978245000093011,0.4978245000093011,269.99999999999955,2.505773200013209,2.505773200013209,,,,,,,,,,,,,,,,,,,,,,,,,,,,,,,,,,,,p9_high1_01,001,2023-05-03_17h05.42.805,expectation_shapes_perceived_time,2022.2.4,120.41606156185833,
,33,0.8,met,,green,red,,1277.7354394103972,,,,,0,100,100,128,trial,,,,,,green,1.2777354394103972,1.2833333333333332,2.3082356000086293,0.9981033000076422,3e-05,3e-05,0.0332,1.2833940999989863,1.31661000000895,2.0002825999981724,2.0332302000024356,2.3082356000086293,2.3082356000086293,2.5083241000102134,2.4583345999999437,0.15009899999131449,2.9748487000033492,0.66661309999472,0.5165141000034055,1.02809,-0.01302582794816386,-0.14724848984880884,,,,None,,0.033,0.03333333333333333,1.3440654394103972,1.35,trial_list_0.8_green.csv,1.3500345000065863,1.3832044000009773,p9_high1_01,001,2023-05-03_17h05.42.805,expectation_shapes_perceived_time,2022.2.4,120.41606156185833,
,-100,0.8,met,,green,red,,954.6287738587492,,,,,0,101,101,413,trial,,,,,,green,0.9546287738587492,0.9583333333333334,2.308766399990418,0.9949805999931414,3e-05,3e-05,,0.9586836999951629,0.9916991999925813,2.0002054999931715,,2.308766399990418,2.308766399990418,2.5085875999939162,2.308766399990418,0.0,3.0168000999983633,0.7080337000079453,0.7080337000079453,0.98258,0.008087785884026802,-0.14760209238348912,,,,None,,-0.1,-0.1,0.8212987738587492,0.825,trial_list_0.8_green.csv,0.8247598999878392,0.8580516999936663,p9_high1_01,001,2023-05-03_17h05.42.805,expectation_shapes_perceived_time,2022.2.4,120.41606156185833,
,167,0.1999999999999999,unmet,,red,green,,455.89165889385225,,,,,0,102,102,80,trial,,,,,,red,0.45589165889385225,0.4583333333333333,2.307656800010591,0.9973826999921585,5e-05,5e-05,0.03291,0.45757710000907537,0.49084420000144746,1.9990724000090268,2.0325732000055723,2.307656800010591,2.307656800010591,2.5078172000066843,2.415958600002341,0.10830179999175016,3.174151500003063,0.8664946999924723,0.7581929000007221,0.79129,0.09012958443962889,-0.11716845977151755,,,,None,,0.167,0.16666666666666666,0.6562216588938523,0.6583333333333333,trial_list_0.8_green.csv,0.6573667000047863,0.6910308000078658,p9_high1_01,001,2023-05-03_17h05.42.805,expectation_shapes_perceived_time,2022.2.4,120.41606156185833,
,100,0.8,met,,green,red,,1678.1218922538758,,,,,0,103,103,255,trial,,,,,,green,1.6781218922538759,1.6833333333333333,2.3083872999995947,0.997151000003214,3e-05,3e-05,,1.6838728000002448,1.7173256000096444,2.0000978000025498,,2.3083872999995947,2.3083872999995947,2.508047199997236,2.3664286999992328,0.05804139999963809,2.975105400008033,0.6667181000084383,0.6086767000088003,1.86668,-0.06011764213912565,0.13504687726905035,,,,None,,0.1,0.1,1.8114518922538758,1.8166666666666667,trial_list_0.8_green.csv,1.8172606000007363,1.8505193000019062,p9_high1_01,001,2023-05-03_17h05.42.805,expectation_shapes_perceived_time,2022.2.4,120.41606156185833,
,233,0.8,met,,green,red,,1068.612479804715,,,,,0,104,104,400,trial,,,,,,green,1.068612479804715,1.075,2.30848629999673,0.9969551999965915,5e-05,5e-05,0.03334,1.0750116999988677,1.1082259999966482,2.0001226000022143,2.0335281000006944,2.30848629999673,2.30848629999673,2.508306599993375,2.3833385999896564,0.07485229999292642,3.0333105999889085,0.7248242999921786,0.6499719999992521,1.01079,-0.005008089863616111,-0.14773865097667527,,,,None,,0.233,0.23333333333333334,1.334942479804715,1.3416666666666666,trial_list_0.8_green.csv,1.3422608999971999,1.3753865999897243,p9_high1_01,001,2023-05-03_17h05.42.805,expectation_shapes_perceived_time,2022.2.4,120.41606156185833,
,-300,0.8,met,,green,red,,1551.0643656705902,,,,,0,105,105,473,trial,,,,,,green,1.5510643656705903,1.5583333333333333,2.308366400000523,0.9969970000092871,4e-05,4e-05,,1.5585212000005413,1.5916378000110853,1.9999982000008458,,2.308366400000523,2.308366400000523,2.508185600003344,2.3751251000066986,0.06675870000617579,2.933144100010395,0.6247777000098722,0.5580190000036964,1.42829,-0.14408835213339283,-0.03302024736390253,,,,None,,-0.3,-0.3,1.2177343656705903,1.225,trial_list_0.8_green.csv,1.2247568000020692,1.2580194000038318,p9_high1_01,001,2023-05-03_17h05.42.805,expectation_shapes_perceived_time,2022.2.4,120.41606156185833,
,33,0.8,met,,green,red,,1632.1401819815928,,,,,0,106,106,446,trial,,,,,,green,1.6321401819815928,1.6416666666666666,2.3085616000025766,0.9970029000105569,4e-05,4e-05,0.03301,1.6418326999992132,1.675095800004783,2.000062599996454,2.0333248999959324,2.3085616000025766,2.3085616000025766,2.508596600004239,2.6513039999990724,0.3427423999964958,3.066292900010012,0.7577313000074355,0.4149889000109397,1.20141,-0.08741745213938275,-0.11920561655370374,,,,None,,0.033,0.03333333333333333,1.6984701819815928,1.7083333333333333,trial_list_0.8_green.csv,1.7083050000073854,1.7414257000054931,p9_high1_01,001,2023-05-03_17h05.42.805,expectation_shapes_perceived_time,2022.2.4,120.41606156185833,
,-233,0.8,met,,green,red,,956.5767189890691,,,,,0,107,107,132,trial,,,,,,green,0.9565767189890692,0.9583333333333334,2.3080073000019183,0.9970195000059903,4e-05,4e-05,,0.9582511000044178,0.9918442000052892,1.9997604999953182,,2.3080073000019183,2.3080073000019183,2.507809600007022,2.5161579999985406,0.20815069999662228,2.9744403000077,0.6664330000057817,0.45828230000915937,1.0227,-0.010531988969672789,-0.147447845575419,,,,None,,-0.233,-0.23333333333333334,0.6902467189890691,0.6916666666666667,trial_list_0.8_green.csv,0.6916025999962585,0.7250801000045612,p9_high1_01,001,2023-05-03_17h05.42.805,expectation_shapes_perceived_time,2022.2.4,120.41606156185833,
,167,0.8,met,,green,red,,942.0051699178488,,,,,0,108,108,439,trial,,,,,,green,0.9420051699178488,0.9416666666666667,2.308475099998759,0.9972298999928171,4e-05,4e-05,0.0335,0.9415956000011647,0.9749528999964241,1.9998526999988826,2.033112400007667,2.308475099998759,2.308475099998759,2.507917000009911,3.0414274000067962,0.7329523000080371,3.466339799997513,1.157864699998754,0.42491239999071695,0.95141,0.022477626618839276,-0.1461045730224553,,,,None,,0.167,0.16666666666666666,1.1423351699178488,1.15,trial_list_0.8_green.csv,1.149942200005171,1.1833905000094092,p9_high1_01,001,2023-05-03_17h05.42.805,expectation_shapes_perceived_time,2022.2.4,120.41606156185833,
,233,0.1999999999999999,unmet,,red,green,,1270.8967072938935,,,,,0,109,109,39,trial,,,,,,red,1.2708967072938935,1.275,2.3080590999888955,0.9978716999903554,5e-05,5e-05,,1.2750039999955334,1.3083112000022084,2.0000048999936553,,2.3080590999888955,2.3080590999888955,2.508160500001395,2.3080590999888955,0.0,3.0161173999949824,0.7080583000060869,0.7080583000060869,1.48326,-0.14761919216631908,-0.007769431166648373,,,,None,,0.233,0.23333333333333334,1.5372267072938934,1.5416666666666667,trial_list_0.8_green.csv,1.5417522999923676,1.5748520999914035,p9_high1_01,001,2023-05-03_17h05.42.805,expectation_shapes_perceived_time,2022.2.4,120.41606156185833,
,-100,0.1999999999999999,unmet,,red,green,,1787.8504770894024,,,,,0,110,110,4,trial,,,,,,red,1.7878504770894024,1.7916666666666667,2.308092499995837,0.9982137000042712,4e-05,4e-05,0.03315,1.7916813000047114,1.8246988000028068,1.9998985999991419,2.0333512000070186,2.308092499995837,2.308092499995837,2.508195300004445,2.6415221000061138,0.33342960001027677,3.1995027999946615,0.8914102999988245,0.5579806999885477,1.93222,-0.03123995506070622,0.1444847921557663,,,,None,,-0.1,-0.1,1.6545204770894024,1.6583333333333332,trial_list_0.8_green.csv,1.6582312999962596,1.691466300006141,p9_high1_01,001,2023-05-03_17h05.42.805,expectation_shapes_perceived_time,2022.2.4,120.41606156185833,
,100,0.8,met,,green,red,,1669.5760039441952,,,,,0,111,111,220,trial,,,,,,green,1.6695760039441951,1.675,2.309093000003486,0.9971492000040598,2e-05,2e-05,0.03334,1.6758515999972587,1.7093372999952408,2.0007648000027984,2.033888299993123,2.309093000003486,2.309093000003486,2.5087759000016376,2.958740100002615,0.6496470999991288,4.467126100003952,2.158033100000466,1.5083860000013374,1.84404,-0.06956400446357404,0.13043250836920134,,,,None,,0.1,0.1,1.802906003944195,1.8083333333333333,trial_list_0.8_green.csv,1.8089266000024509,1.842378600005759,p9_high1_01,001,2023-05-03_17h05.42.805,expectation_shapes_perceived_time,2022.2.4,120.41606156185833,
,-167,0.1999999999999999,unmet,,red,green,,1582.0363919654667,,,,,0,112,112,409,trial,,,,,,red,1.5820363919654667,1.5916666666666666,2.3084422000101767,0.9964216000080341,4e-05,4e-05,0.03337,1.591602000000421,1.6250656000047456,1.9999288000108209,2.0334393000084674,2.3084422000101767,2.3084422000101767,2.5084446000109892,2.5498062999977265,0.2413640999875497,3.1413869000098202,0.8329446999996435,0.5915806000120938,1.85242,-0.06610868317625139,0.13221736635250278,,,,None,,-0.167,-0.16666666666666666,1.3817063919654669,1.3833333333333333,trial_list_0.8_green.csv,1.3832378000079188,1.4167202000098769,p9_high1_01,001,2023-05-03_17h05.42.805,expectation_shapes_perceived_time,2022.2.4,120.41606156185833,
,-233,0.8,met,,green,red,,1052.319940456317,,,,,0,113,113,108,trial,,,,,,green,1.052319940456317,1.0583333333333333,2.307784000004176,0.9971584000013536,0.00013,0.00013,0.03331,1.0581191999954171,1.0914601999975275,1.9999962000001688,2.0330929000047036,2.307784000004176,2.307784000004176,2.5078539999958593,2.307784000004176,0.0,2.8662009999970905,0.5584169999929145,0.5584169999929145,1.75558,-0.10267739868416284,0.10634444863716866,,,,None,,-0.233,-0.23333333333333334,0.785989940456317,0.7916666666666666,trial_list_0.8_green.csv,0.7910658000037074,0.8246056999923894,p9_high1_01,001,2023-05-03_17h05.42.805,expectation_shapes_perceived_time,2022.2.4,120.41606156185833,
,-167,0.1999999999999999,unmet,,red,green,,1690.2315665954534,,,,,0,114,114,393,trial,,,,,,red,1.6902315665954535,1.7,2.308446900002309,0.9966482000018004,4e-05,4e-05,0.03335,1.6996648000058485,1.7331037999974797,1.9999572000087937,2.0334061000030488,2.308446900002309,2.308446900002309,2.507947600010084,2.641417500009993,0.33297060000768397,3.199762100004591,0.8913152000022819,0.558344599994598,1.2426,-0.10206854808894857,-0.10692895514080328,,,,None,,-0.167,-0.16666666666666666,1.4899015665954534,1.4916666666666667,trial_list_0.8_green.csv,1.490984700008994,1.5243246000027284,p9_high1_01,001,2023-05-03_17h05.42.805,expectation_shapes_perceived_time,2022.2.4,120.41606156185833,
,-300,0.8,met,,green,red,,1221.2428152664888,,,,,0,115,115,161,trial,,,,,,green,1.221242815266489,1.225,2.3078031000040937,0.9967806000058772,4e-05,4e-05,0.03348,1.2250554000056582,1.2584782000049017,2.000241800007643,2.0335912000009557,2.3078031000040937,2.3078031000040937,2.5081634999951348,2.6416368000063812,0.3338337000022875,3.0417190000007395,0.7339158999966457,0.40008219999435823,0.99064,0.004345870983325183,-0.14775961343305624,,,,None,,-0.3,-0.3,0.8879128152664888,0.8916666666666666,trial_list_0.8_green.csv,0.891742100007832,0.925084100003005,p9_high1_01,001,2023-05-03_17h05.42.805,expectation_shapes_perceived_time,2022.2.4,120.41606156185833,
,-100,0.8,met,,green,red,,1817.1424477644089,,,,,0,116,116,462,trial,,,,,,green,1.817142447764409,1.825,2.30849510000553,0.996388500003377,4e-05,4e-05,0.03324,1.8251999999920372,1.8583199999993667,1.9996412000036798,2.033188400004292,2.30849510000553,2.30849510000553,2.508491700005834,2.4666086999932304,0.15811359998770058,2.89144330000272,0.5829481999971904,0.4248346000094898,1.77886,-0.094634304676012,0.11356116561121439,,,,None,,-0.1,-0.1,1.683812447764409,1.6916666666666667,trial_list_0.8_green.csv,1.6917511999927228,1.7254494999942835,p9_high1_01,001,2023-05-03_17h05.42.805,expectation_shapes_perceived_time,2022.2.4,120.41606156185833,
,100,0.8,met,,green,red,,394.46661821816826,,,,,0,117,117,76,trial,,,,,,green,0.39446661821816825,0.4,2.308264599996619,0.9965097999956924,5e-05,5e-05,0.03317,0.3999949999997625,0.43345789999875706,1.9999551999935647,2.0332832999993116,2.308264599996619,2.308264599996619,2.50808970000071,2.616179699994973,0.307915099998354,3.399462699992,1.0911980999953812,0.7832829999970272,1.51061,-0.14774145368666275,0.00492471512288876,,,,None,,0.1,0.1,0.5277966182181683,0.5333333333333333,trial_list_0.8_green.csv,0.5332015000021784,0.5665867999923648,p9_high1_01,001,2023-05-03_17h05.42.805,expectation_shapes_perceived_time,2022.2.4,120.41606156185833,
,-300,0.8,met,,green,red,,708.6363655241189,,,,,0,118,118,97,trial,,,,,,green,0.7086363655241189,0.7083333333333334,2.3084199000004446,0.9967566999985138,2e-05,2e-05,0.03339,0.7084743999876082,0.7417850999918301,2.000069199988502,2.0334213999885833,2.3084199000004446,2.3084199000004446,2.5084207999898354,2.666781299994909,0.3583613999944646,4.450088300000061,2.1416683999996167,1.783307000005152,0.96889,0.014423350325775519,-0.1471181733229103,,,,None,,-0.3,-0.3,0.3753063655241189,0.375,trial_list_0.8_green.csv,0.3756734999915352,0.4093183999939356,p9_high1_01,001,2023-05-03_17h05.42.805,expectation_shapes_perceived_time,2022.2.4,120.41606156185833,
,33,0.8,met,,green,red,,391.4281675133929,,,,,0,119,119,74,trial,,,,,,green,0.39142816751339293,0.39166666666666666,2.308276700001443,0.9979052999988198,2e-05,2e-05,0.0333,0.39166790001036134,0.42501740000443533,1.9999400000087917,2.033272200002102,2.308276700001443,2.308276700001443,2.5083309000037843,2.7916395000065677,0.4833628000051249,3.383341200009454,1.0750645000080112,0.5917017000028864,0.56463,0.14478677752409258,-0.029809042431430822,,,,None,,0.033,0.03333333333333333,0.4577581675133929,0.4583333333333333,trial_list_0.8_green.csv,0.458312400005525,0.4916483999986667,p9_high1_01,001,2023-05-03_17h05.42.805,expectation_shapes_perceived_time,2022.2.4,120.41606156185833,
,300,0.8,met,,green,red,,272.80418224381015,,,,,0,120,120,364,trial,,,,,,green,0.27280418224381014,0.275,2.308261500002118,0.9973732000071323,4e-05,4e-05,,0.2751335999928415,0.3083948999992572,1.999912300001597,,2.308261500002118,2.308261500002118,2.508297799999127,2.6666631999978563,0.35840169999573845,4.041926099991542,1.7336645999894245,1.375262899993686,0.70116,0.11927329374812427,-0.087325090065591,,,,None,,0.3,0.3,0.6061341822438102,0.6083333333333333,trial_list_0.8_green.csv,0.6082625999988522,0.6415672000002814,p9_high1_01,001,2023-05-03_17h05.42.805,expectation_shapes_perceived_time,2022.2.4,120.41606156185833,
,-300,0.1999999999999999,unmet,,red,green,,895.743941064643,,,,,0,121,121,232,trial,,,,,,red,0.895743941064643,0.9,2.3040331000083825,0.99395160000131,0.00164,0.00164,,0.8959277999965707,0.9287831999972695,2.0040035999991233,,2.3040331000083825,2.3040331000083825,2.5036524000024656,2.31280759999936,0.008774499990977347,3.6532985999947414,1.349265499986359,1.3404909999953816,1.08859,-0.04061024125549402,-0.14213584439422905,,,,None,,-0.3,-0.3,0.5624139410646429,0.5666666666666667,trial_list_0.8_green.csv,0.5623589000024367,0.5957139999954961,p9_high1_01,001,2023-05-03_17h05.42.805,expectation_shapes_perceived_time,2022.2.4,120.41606156185833,
