id,delay,expectation,congruency,trial_num,stim_color,distractor_color,block,famLoop.thisRepN,famLoop.thisTrialN,famLoop.thisN,famLoop.thisIndex,trialss.thisRepN,trialss.thisTrialN,trialss.thisN,trialss.thisIndex,fixationPoint.started,fixationPoint.stopped,audCueStart.started,distractor.started,distractor.stopped,target.started,target.stopped,audCueEnd.started,sapce2pass_2.started,responsePointer.started,responsePointer.stopped,perceivedTime,pTemporalError,sapce2pass_2.keys,x_coord,y_coord,participant,session,date,expName,psychopyVersion,frameRate,
1,-300,0.85,met,231,green,red,high_Expectation,,,,,0,0,0,230,0.023594000027514994,0.49839850002899766,0.49839850002899766,1.0818351000198163,1.1149170999997295,1.3818879000027664,1.4150383000378497,2.515612500021234,2.515612500021234,3.0155552999931388,4.416119200002868,845.644853265504,-40.813090773376416,None,,,179054,001,2023-02-23_22h28.38.508,expectation_shapes_perceived_time,2022.2.4,60.329859551495105,
1,33,0.85,met,46,green,red,high_Expectation,,,,,0,1,1,45,0.0016627000295557082,,,,,,,,,,,,,None,0.04537037037037037,-0.08611111111111111,179054,001,2023-02-23_22h28.38.508,expectation_shapes_perceived_time,2022.2.4,60.329859551495105,
1,233,0.85,met,103,green,red,high_Expectation,,,,,0,2,2,102,0.0021891999640502036,,,,,,,,,,,,,None,0.04537037037037037,-0.08611111111111111,179054,001,2023-02-23_22h28.38.508,expectation_shapes_perceived_time,2022.2.4,60.329859551495105,
1,233,0.85,met,25,green,red,high_Expectation,,,,,0,3,3,24,0.003285599988885224,,,,,,,,,,,,,None,0.04537037037037037,-0.08611111111111111,179054,001,2023-02-23_22h28.38.508,expectation_shapes_perceived_time,2022.2.4,60.329859551495105,
1,100,0.85,met,292,green,red,high_Expectation,,,,,0,4,4,291,0.002363000006880611,,,,,,,,,,,,,None,0.04537037037037037,-0.08611111111111111,179054,001,2023-02-23_22h28.38.508,expectation_shapes_perceived_time,2022.2.4,60.329859551495105,
1,100,0.85,met,171,green,red,high_Expectation,,,,,0,5,5,170,0.0012892999802716076,,,,,,,,,,,,,None,0.04537037037037037,-0.08611111111111111,179054,001,2023-02-23_22h28.38.508,expectation_shapes_perceived_time,2022.2.4,60.329859551495105,
1,-167,0.15,unmet,206,red,green,high_Expectation,,,,,0,6,6,205,0.0012624000082723796,,,,,,,,,,,,,None,0.04537037037037037,-0.08611111111111111,179054,001,2023-02-23_22h28.38.508,expectation_shapes_perceived_time,2022.2.4,60.329859551495105,
1,233,0.85,met,45,green,red,high_Expectation,,,,,0,7,7,44,0.0012445999891497195,,,,,,,,,,,,,None,0.04537037037037037,-0.08611111111111111,179054,001,2023-02-23_22h28.38.508,expectation_shapes_perceived_time,2022.2.4,60.329859551495105,
1,300,0.15,unmet,298,red,green,high_Expectation,,,,,0,8,8,297,0.0016635000356473029,,,,,,,,,,,,,None,0.04537037037037037,-0.08611111111111111,179054,001,2023-02-23_22h28.38.508,expectation_shapes_perceived_time,2022.2.4,60.329859551495105,
1,100,0.85,met,5,green,red,high_Expectation,,,,,0,9,9,4,0.0022833000402897596,,,,,,,,,,,,,None,0.04537037037037037,-0.08611111111111111,179054,001,2023-02-23_22h28.38.508,expectation_shapes_perceived_time,2022.2.4,60.329859551495105,
1,167,0.85,met,163,green,red,high_Expectation,,,,,0,10,10,162,0.0018730000010691583,,,,,,,,,,,,,None,0.04537037037037037,-0.08611111111111111,179054,001,2023-02-23_22h28.38.508,expectation_shapes_perceived_time,2022.2.4,60.329859551495105,
1,-100,0.85,met,225,green,red,high_Expectation,,,,,0,11,11,224,0.00121640000725165,,,,,,,,,,,,,None,0.04537037037037037,-0.08611111111111111,179054,001,2023-02-23_22h28.38.508,expectation_shapes_perceived_time,2022.2.4,60.329859551495105,
1,33,0.85,met,141,green,red,high_Expectation,,,,,0,12,12,140,0.0011187999625690281,,,,,,,,,,,,,None,0.04537037037037037,-0.08611111111111111,179054,001,2023-02-23_22h28.38.508,expectation_shapes_perceived_time,2022.2.4,60.329859551495105,
1,-167,0.85,met,143,green,red,high_Expectation,,,,,0,13,13,142,0.0011055999784730375,,,,,,,,,,,,,None,0.04537037037037037,-0.08611111111111111,179054,001,2023-02-23_22h28.38.508,expectation_shapes_perceived_time,2022.2.4,60.329859551495105,
1,-233,0.85,met,8,green,red,high_Expectation,,,,,0,14,14,7,0.001135299971792847,,,,,,,,,,,,,None,0.04537037037037037,-0.08611111111111111,179054,001,2023-02-23_22h28.38.508,expectation_shapes_perceived_time,2022.2.4,60.329859551495105,
1,100,0.85,met,22,green,red,high_Expectation,,,,,0,15,15,21,0.0012774000060744584,,,,,,,,,,,,,None,0.04537037037037037,-0.08611111111111111,179054,001,2023-02-23_22h28.38.508,expectation_shapes_perceived_time,2022.2.4,60.329859551495105,
1,-300,0.85,met,130,green,red,high_Expectation,,,,,0,16,16,129,0.001465099980123341,,,,,,,,,,,,,None,0.04537037037037037,-0.08611111111111111,179054,001,2023-02-23_22h28.38.508,expectation_shapes_perceived_time,2022.2.4,60.329859551495105,
1,-33,0.85,met,258,green,red,high_Expectation,,,,,0,17,17,257,0.0014630999648943543,,,,,,,,,,,,,None,0.04537037037037037,-0.08611111111111111,179054,001,2023-02-23_22h28.38.508,expectation_shapes_perceived_time,2022.2.4,60.329859551495105,
1,300,0.15,unmet,255,red,green,high_Expectation,,,,,0,18,18,254,0.0013831999967806041,,,,,,,,,,,,,None,0.04537037037037037,-0.08611111111111111,179054,001,2023-02-23_22h28.38.508,expectation_shapes_perceived_time,2022.2.4,60.329859551495105,
1,233,0.85,met,152,green,red,high_Expectation,,,,,0,19,19,151,0.001172599964775145,,,,,,,,,,,,,None,0.04537037037037037,-0.08611111111111111,179054,001,2023-02-23_22h28.38.508,expectation_shapes_perceived_time,2022.2.4,60.329859551495105,
1,-100,0.85,met,41,green,red,high_Expectation,,,,,0,20,20,40,0.0013971999869681895,,,,,,,,,,,,,None,0.04537037037037037,-0.08611111111111111,179054,001,2023-02-23_22h28.38.508,expectation_shapes_perceived_time,2022.2.4,60.329859551495105,
1,-33,0.85,met,229,green,red,high_Expectation,,,,,0,21,21,228,0.0012653000303544104,,,,,,,,,,,,,None,0.04537037037037037,-0.08611111111111111,179054,001,2023-02-23_22h28.38.508,expectation_shapes_perceived_time,2022.2.4,60.329859551495105,
1,233,0.85,met,90,green,red,high_Expectation,,,,,0,22,22,89,0.0012441999861039221,,,,,,,,,,,,,None,0.04537037037037037,-0.08611111111111111,179054,001,2023-02-23_22h28.38.508,expectation_shapes_perceived_time,2022.2.4,60.329859551495105,
1,-33,0.85,met,144,green,red,high_Expectation,,,,,0,23,23,143,0.0016890999977476895,,,,,,,,,,,,,None,0.04537037037037037,-0.08611111111111111,179054,001,2023-02-23_22h28.38.508,expectation_shapes_perceived_time,2022.2.4,60.329859551495105,
1,-100,0.85,met,249,green,red,high_Expectation,,,,,0,24,24,248,0.00140889995964244,,,,,,,,,,,,,None,0.04537037037037037,-0.08611111111111111,179054,001,2023-02-23_22h28.38.508,expectation_shapes_perceived_time,2022.2.4,60.329859551495105,
1,100,0.85,met,207,green,red,high_Expectation,,,,,0,25,25,206,0.001276099996175617,,,,,,,,,,,,,None,0.04537037037037037,-0.08611111111111111,179054,001,2023-02-23_22h28.38.508,expectation_shapes_perceived_time,2022.2.4,60.329859551495105,
1,33,0.85,met,194,green,red,high_Expectation,,,,,0,26,26,193,0.0014484000275842845,,,,,,,,,,,,,None,0.04537037037037037,-0.08611111111111111,179054,001,2023-02-23_22h28.38.508,expectation_shapes_perceived_time,2022.2.4,60.329859551495105,
1,233,0.85,met,285,green,red,high_Expectation,,,,,0,27,27,284,0.00121640000725165,,,,,,,,,,,,,None,0.04537037037037037,-0.08611111111111111,179054,001,2023-02-23_22h28.38.508,expectation_shapes_perceived_time,2022.2.4,60.329859551495105,
1,-100,0.85,met,265,green,red,high_Expectation,,,,,0,28,28,264,0.0014090999611653388,,,,,,,,,,,,,None,0.04537037037037037,-0.08611111111111111,179054,001,2023-02-23_22h28.38.508,expectation_shapes_perceived_time,2022.2.4,60.329859551495105,
1,-33,0.85,met,184,green,red,high_Expectation,,,,,0,29,29,183,0.0012731000315397978,,,,,,,,,,,,,None,0.04537037037037037,-0.08611111111111111,179054,001,2023-02-23_22h28.38.508,expectation_shapes_perceived_time,2022.2.4,60.329859551495105,
1,100,0.85,met,228,green,red,high_Expectation,,,,,0,30,30,227,0.0011476000072434545,,,,,,,,,,,,,None,0.04537037037037037,-0.08611111111111111,179054,001,2023-02-23_22h28.38.508,expectation_shapes_perceived_time,2022.2.4,60.329859551495105,
1,33,0.85,met,201,green,red,high_Expectation,,,,,0,31,31,200,0.0011818999773822725,,,,,,,,,,,,,None,0.04537037037037037,-0.08611111111111111,179054,001,2023-02-23_22h28.38.508,expectation_shapes_perceived_time,2022.2.4,60.329859551495105,
1,33,0.85,met,31,green,red,high_Expectation,,,,,0,32,32,30,0.0014112999779172242,,,,,,,,,,,,,None,0.04537037037037037,-0.08611111111111111,179054,001,2023-02-23_22h28.38.508,expectation_shapes_perceived_time,2022.2.4,60.329859551495105,
1,300,0.85,met,289,green,red,high_Expectation,,,,,0,33,33,288,0.0012762999976985157,,,,,,,,,,,,,None,0.04537037037037037,-0.08611111111111111,179054,001,2023-02-23_22h28.38.508,expectation_shapes_perceived_time,2022.2.4,60.329859551495105,
1,100,0.85,met,43,green,red,high_Expectation,,,,,0,34,34,42,0.0011733999708667397,,,,,,,,,,,,,None,0.04537037037037037,-0.08611111111111111,179054,001,2023-02-23_22h28.38.508,expectation_shapes_perceived_time,2022.2.4,60.329859551495105,
1,-300,0.85,met,20,green,red,high_Expectation,,,,,0,35,35,19,0.0011409000144340098,,,,,,,,,,,,,None,0.04537037037037037,-0.08611111111111111,179054,001,2023-02-23_22h28.38.508,expectation_shapes_perceived_time,2022.2.4,60.329859551495105,
1,-233,0.85,met,55,green,red,high_Expectation,,,,,0,36,36,54,0.0011620000004768372,,,,,,,,,,,,,None,0.04537037037037037,-0.08611111111111111,179054,001,2023-02-23_22h28.38.508,expectation_shapes_perceived_time,2022.2.4,60.329859551495105,
1,-233,0.85,met,284,green,red,high_Expectation,,,,,0,37,37,283,0.0011725000222213566,,,,,,,,,,,,,None,0.04537037037037037,-0.08611111111111111,179054,001,2023-02-23_22h28.38.508,expectation_shapes_perceived_time,2022.2.4,60.329859551495105,
1,-300,0.85,met,100,green,red,high_Expectation,,,,,0,38,38,99,0.0012169000110588968,,,,,,,,,,,,,None,0.04537037037037037,-0.08611111111111111,179054,001,2023-02-23_22h28.38.508,expectation_shapes_perceived_time,2022.2.4,60.329859551495105,
1,-100,0.85,met,273,green,red,high_Expectation,,,,,0,39,39,272,0.0010868000099435449,,,,,,,,,,,,,None,0.04537037037037037,-0.08611111111111111,179054,001,2023-02-23_22h28.38.508,expectation_shapes_perceived_time,2022.2.4,60.329859551495105,
1,167,0.15,unmet,123,red,green,high_Expectation,,,,,0,40,40,122,0.0012149999965913594,,,,,,,,,,,,,None,0.04537037037037037,-0.08611111111111111,179054,001,2023-02-23_22h28.38.508,expectation_shapes_perceived_time,2022.2.4,60.329859551495105,
1,-33,0.85,met,190,green,red,high_Expectation,,,,,0,41,41,189,0.001249500026460737,,,,,,,,,,,,,None,0.04537037037037037,-0.08611111111111111,179054,001,2023-02-23_22h28.38.508,expectation_shapes_perceived_time,2022.2.4,60.329859551495105,
1,-300,0.85,met,14,green,red,high_Expectation,,,,,0,42,42,13,0.001164000015705824,,,,,,,,,,,,,None,0.04537037037037037,-0.08611111111111111,179054,001,2023-02-23_22h28.38.508,expectation_shapes_perceived_time,2022.2.4,60.329859551495105,
1,33,0.15,unmet,267,red,green,high_Expectation,,,,,0,43,43,266,0.0014405000256374478,,,,,,,,,,,,,None,0.04537037037037037,-0.08611111111111111,179054,001,2023-02-23_22h28.38.508,expectation_shapes_perceived_time,2022.2.4,60.329859551495105,
1,300,0.85,met,61,green,red,high_Expectation,,,,,0,44,44,60,0.0011804999667219818,,,,,,,,,,,,,None,0.04537037037037037,-0.08611111111111111,179054,001,2023-02-23_22h28.38.508,expectation_shapes_perceived_time,2022.2.4,60.329859551495105,
1,300,0.85,met,75,green,red,high_Expectation,,,,,0,45,45,74,0.0011705000069923699,,,,,,,,,,,,,None,0.04537037037037037,-0.08611111111111111,179054,001,2023-02-23_22h28.38.508,expectation_shapes_perceived_time,2022.2.4,60.329859551495105,
1,-300,0.85,met,219,green,red,high_Expectation,,,,,0,46,46,218,0.0011629000073298812,,,,,,,,,,,,,None,0.04537037037037037,-0.08611111111111111,179054,001,2023-02-23_22h28.38.508,expectation_shapes_perceived_time,2022.2.4,60.329859551495105,
1,300,0.85,met,106,green,red,high_Expectation,,,,,0,47,47,105,0.0012274999753572047,0.47361250000540167,0.47361250000540167,2.0240164999850094,2.057441100012511,1.72410160000436,1.7573262000223622,2.491056800005026,2.507847499975469,2.991384199995082,5.008537699992303,1493.5047815116254,246.99631377077344,None,0.04537037037037037,-0.08611111111111111,179054,001,2023-02-23_22h28.38.508,expectation_shapes_perceived_time,2022.2.4,60.329859551495105,
1,33,0.85,met,254,green,red,high_Expectation,,,,,0,48,48,253,0.001581899996381253,,,,,,,,,,,,,None,-0.1361111111111111,-0.002777777777777778,179054,001,2023-02-23_22h28.38.508,expectation_shapes_perceived_time,2022.2.4,60.329859551495105,
1,33,0.85,met,131,green,red,high_Expectation,,,,,0,49,49,130,0.001520700054243207,,,,,,,,,,,,,None,-0.1361111111111111,-0.002777777777777778,179054,001,2023-02-23_22h28.38.508,expectation_shapes_perceived_time,2022.2.4,60.329859551495105,
1,100,0.85,met,169,green,red,high_Expectation,,,,,0,50,50,168,0.0015375999500975013,,,,,,,,,,,,,None,-0.1361111111111111,-0.002777777777777778,179054,001,2023-02-23_22h28.38.508,expectation_shapes_perceived_time,2022.2.4,60.329859551495105,
1,-300,0.85,met,243,green,red,high_Expectation,,,,,0,51,51,242,0.0015514999977312982,,,,,,,,,,,,,None,-0.1361111111111111,-0.002777777777777778,179054,001,2023-02-23_22h28.38.508,expectation_shapes_perceived_time,2022.2.4,60.329859551495105,
1,-167,0.85,met,290,green,red,high_Expectation,,,,,0,52,52,289,0.0015540000167675316,,,,,,,,,,,,,None,-0.1361111111111111,-0.002777777777777778,179054,001,2023-02-23_22h28.38.508,expectation_shapes_perceived_time,2022.2.4,60.329859551495105,
1,-300,0.85,met,164,green,red,high_Expectation,,,,,0,53,53,163,0.0015851000207476318,,,,,,,,,,,,,None,-0.1361111111111111,-0.002777777777777778,179054,001,2023-02-23_22h28.38.508,expectation_shapes_perceived_time,2022.2.4,60.329859551495105,
1,100,0.85,met,110,green,red,high_Expectation,,,,,0,54,54,109,0.0014238000148907304,,,,,,,,,,,,,None,-0.1361111111111111,-0.002777777777777778,179054,001,2023-02-23_22h28.38.508,expectation_shapes_perceived_time,2022.2.4,60.329859551495105,
1,167,0.85,met,246,green,red,high_Expectation,,,,,0,55,55,245,0.0013691000058315694,,,,,,,,,,,,,None,-0.1361111111111111,-0.002777777777777778,179054,001,2023-02-23_22h28.38.508,expectation_shapes_perceived_time,2022.2.4,60.329859551495105,
1,-300,0.85,met,111,green,red,high_Expectation,,,,,0,56,56,110,0.001354800013359636,,,,,,,,,,,,,None,-0.1361111111111111,-0.002777777777777778,179054,001,2023-02-23_22h28.38.508,expectation_shapes_perceived_time,2022.2.4,60.329859551495105,
1,-100,0.85,met,218,green,red,high_Expectation,,,,,0,57,57,217,0.0011120999697595835,,,,,,,,,,,,,None,-0.1361111111111111,-0.002777777777777778,179054,001,2023-02-23_22h28.38.508,expectation_shapes_perceived_time,2022.2.4,60.329859551495105,
1,33,0.85,met,226,green,red,high_Expectation,,,,,0,58,58,225,0.0011944000143557787,,,,,,,,,,,,,None,-0.1361111111111111,-0.002777777777777778,179054,001,2023-02-23_22h28.38.508,expectation_shapes_perceived_time,2022.2.4,60.329859551495105,
1,-33,0.85,met,247,green,red,high_Expectation,,,,,0,59,59,246,0.0012089000083506107,,,,,,,,,,,,,None,-0.1361111111111111,-0.002777777777777778,179054,001,2023-02-23_22h28.38.508,expectation_shapes_perceived_time,2022.2.4,60.329859551495105,
1,-233,0.85,met,65,green,red,high_Expectation,,,,,0,60,60,64,0.001116700004786253,,,,,,,,,,,,,None,-0.1361111111111111,-0.002777777777777778,179054,001,2023-02-23_22h28.38.508,expectation_shapes_perceived_time,2022.2.4,60.329859551495105,
1,167,0.15,unmet,266,red,green,high_Expectation,,,,,0,61,61,265,0.0011260999599471688,,,,,,,,,,,,,None,-0.1361111111111111,-0.002777777777777778,179054,001,2023-02-23_22h28.38.508,expectation_shapes_perceived_time,2022.2.4,60.329859551495105,
1,-300,0.85,met,244,green,red,high_Expectation,,,,,0,62,62,243,0.0012339000240899622,,,,,,,,,,,,,None,-0.1361111111111111,-0.002777777777777778,179054,001,2023-02-23_22h28.38.508,expectation_shapes_perceived_time,2022.2.4,60.329859551495105,
1,300,0.85,met,245,green,red,high_Expectation,,,,,0,63,63,244,0.0011168000055477023,,,,,,,,,,,,,None,-0.1361111111111111,-0.002777777777777778,179054,001,2023-02-23_22h28.38.508,expectation_shapes_perceived_time,2022.2.4,60.329859551495105,
1,100,0.85,met,187,green,red,high_Expectation,,,,,0,64,64,186,0.0011254000128246844,,,,,,,,,,,,,None,-0.1361111111111111,-0.002777777777777778,179054,001,2023-02-23_22h28.38.508,expectation_shapes_perceived_time,2022.2.4,60.329859551495105,
1,-100,0.85,met,82,green,red,high_Expectation,,,,,0,65,65,81,0.0011892999755218625,,,,,,,,,,,,,None,-0.1361111111111111,-0.002777777777777778,179054,001,2023-02-23_22h28.38.508,expectation_shapes_perceived_time,2022.2.4,60.329859551495105,
1,-167,0.85,met,142,green,red,high_Expectation,,,,,0,66,66,141,0.0013034000294283032,,,,,,,,,,,,,None,-0.1361111111111111,-0.002777777777777778,179054,001,2023-02-23_22h28.38.508,expectation_shapes_perceived_time,2022.2.4,60.329859551495105,
1,-233,0.85,met,264,green,red,high_Expectation,,,,,0,67,67,263,0.0011193000245839357,,,,,,,,,,,,,None,-0.1361111111111111,-0.002777777777777778,179054,001,2023-02-23_22h28.38.508,expectation_shapes_perceived_time,2022.2.4,60.329859551495105,
1,-33,0.85,met,115,green,red,high_Expectation,,,,,0,68,68,114,0.001133300014771521,,,,,,,,,,,,,None,-0.1361111111111111,-0.002777777777777778,179054,001,2023-02-23_22h28.38.508,expectation_shapes_perceived_time,2022.2.4,60.329859551495105,
1,-33,0.85,met,92,green,red,high_Expectation,,,,,0,69,69,91,0.0011560000129975379,,,,,,,,,,,,,None,-0.1361111111111111,-0.002777777777777778,179054,001,2023-02-23_22h28.38.508,expectation_shapes_perceived_time,2022.2.4,60.329859551495105,
1,-33,0.85,met,34,green,red,high_Expectation,,,,,0,70,70,33,0.0011412999592721462,,,,,,,,,,,,,None,-0.1361111111111111,-0.002777777777777778,179054,001,2023-02-23_22h28.38.508,expectation_shapes_perceived_time,2022.2.4,60.329859551495105,
1,-33,0.85,met,9,green,red,high_Expectation,,,,,0,71,71,8,0.0012312000035308301,,,,,,,,,,,,,None,-0.1361111111111111,-0.002777777777777778,179054,001,2023-02-23_22h28.38.508,expectation_shapes_perceived_time,2022.2.4,60.329859551495105,
1,-167,0.85,met,279,green,red,high_Expectation,,,,,0,72,72,278,0.0011424999684095383,,,,,,,,,,,,,None,-0.1361111111111111,-0.002777777777777778,179054,001,2023-02-23_22h28.38.508,expectation_shapes_perceived_time,2022.2.4,60.329859551495105,
1,300,0.85,met,28,green,red,high_Expectation,,,,,0,73,73,27,0.0011658999719657004,,,,,,,,,,,,,None,-0.1361111111111111,-0.002777777777777778,179054,001,2023-02-23_22h28.38.508,expectation_shapes_perceived_time,2022.2.4,60.329859551495105,
1,-233,0.15,unmet,1,red,green,high_Expectation,,,,,0,74,74,0,0.0011443000403232872,,,,,,,,,,,,,None,-0.1361111111111111,-0.002777777777777778,179054,001,2023-02-23_22h28.38.508,expectation_shapes_perceived_time,2022.2.4,60.329859551495105,
1,-33,0.85,met,44,green,red,high_Expectation,,,,,0,75,75,43,0.0012171000125817955,,,,,,,,,,,,,None,-0.1361111111111111,-0.002777777777777778,179054,001,2023-02-23_22h28.38.508,expectation_shapes_perceived_time,2022.2.4,60.329859551495105,
1,233,0.85,met,99,green,red,high_Expectation,,,,,0,76,76,98,0.0010707000037655234,,,,,,,,,,,,,None,-0.1361111111111111,-0.002777777777777778,179054,001,2023-02-23_22h28.38.508,expectation_shapes_perceived_time,2022.2.4,60.329859551495105,
1,100,0.85,met,18,green,red,high_Expectation,,,,,0,77,77,17,0.0011632999521680176,,,,,,,,,,,,,None,-0.1361111111111111,-0.002777777777777778,179054,001,2023-02-23_22h28.38.508,expectation_shapes_perceived_time,2022.2.4,60.329859551495105,
1,-300,0.85,met,222,green,red,high_Expectation,,,,,0,78,78,221,0.0011737000313587487,,,,,,,,,,,,,None,-0.1361111111111111,-0.002777777777777778,179054,001,2023-02-23_22h28.38.508,expectation_shapes_perceived_time,2022.2.4,60.329859551495105,
1,100,0.85,met,240,green,red,high_Expectation,,,,,0,79,79,239,0.001061099988874048,,,,,,,,,,,,,None,-0.1361111111111111,-0.002777777777777778,179054,001,2023-02-23_22h28.38.508,expectation_shapes_perceived_time,2022.2.4,60.329859551495105,
1,-100,0.85,met,275,green,red,high_Expectation,,,,,0,80,80,274,0.001145099988207221,,,,,,,,,,,,,None,-0.1361111111111111,-0.002777777777777778,179054,001,2023-02-23_22h28.38.508,expectation_shapes_perceived_time,2022.2.4,60.329859551495105,
1,300,0.15,unmet,129,red,green,high_Expectation,,,,,0,81,81,128,0.0013052999856881797,,,,,,,,,,,,,None,-0.1361111111111111,-0.002777777777777778,179054,001,2023-02-23_22h28.38.508,expectation_shapes_perceived_time,2022.2.4,60.329859551495105,
1,-300,0.85,met,40,green,red,high_Expectation,,,,,0,82,82,39,0.0011208000360056758,,,,,,,,,,,,,None,-0.1361111111111111,-0.002777777777777778,179054,001,2023-02-23_22h28.38.508,expectation_shapes_perceived_time,2022.2.4,60.329859551495105,
1,33,0.15,unmet,4,red,green,high_Expectation,,,,,0,83,83,3,0.0013158000074326992,,,,,,,,,,,,,None,-0.1361111111111111,-0.002777777777777778,179054,001,2023-02-23_22h28.38.508,expectation_shapes_perceived_time,2022.2.4,60.329859551495105,
1,33,0.15,unmet,233,red,green,high_Expectation,,,,,0,84,84,232,0.001222300052177161,,,,,,,,,,,,,None,-0.1361111111111111,-0.002777777777777778,179054,001,2023-02-23_22h28.38.508,expectation_shapes_perceived_time,2022.2.4,60.329859551495105,
1,-300,0.85,met,78,green,red,high_Expectation,,,,,0,85,85,77,0.0011064999853260815,,,,,,,,,,,,,None,-0.1361111111111111,-0.002777777777777778,179054,001,2023-02-23_22h28.38.508,expectation_shapes_perceived_time,2022.2.4,60.329859551495105,
1,-233,0.85,met,13,green,red,high_Expectation,,,,,0,86,86,12,0.0010338000138290226,,,,,,,,,,,,,None,-0.1361111111111111,-0.002777777777777778,179054,001,2023-02-23_22h28.38.508,expectation_shapes_perceived_time,2022.2.4,60.329859551495105,
1,167,0.85,met,259,green,red,high_Expectation,,,,,0,87,87,258,0.0010139000369235873,,,,,,,,,,,,,None,-0.1361111111111111,-0.002777777777777778,179054,001,2023-02-23_22h28.38.508,expectation_shapes_perceived_time,2022.2.4,60.329859551495105,
1,-167,0.85,met,137,green,red,high_Expectation,,,,,0,88,88,136,0.0010820000316016376,,,,,,,,,,,,,None,-0.1361111111111111,-0.002777777777777778,179054,001,2023-02-23_22h28.38.508,expectation_shapes_perceived_time,2022.2.4,60.329859551495105,
1,300,0.15,unmet,98,red,green,high_Expectation,,,,,0,89,89,97,0.001114899991080165,,,,,,,,,,,,,None,-0.1361111111111111,-0.002777777777777778,179054,001,2023-02-23_22h28.38.508,expectation_shapes_perceived_time,2022.2.4,60.329859551495105,
1,-100,0.85,met,2,green,red,high_Expectation,,,,,0,90,90,1,0.0011693999986164272,,,,,,,,,,,,,None,-0.1361111111111111,-0.002777777777777778,179054,001,2023-02-23_22h28.38.508,expectation_shapes_perceived_time,2022.2.4,60.329859551495105,
1,33,0.15,unmet,248,red,green,high_Expectation,,,,,0,91,91,247,0.0010225999867543578,,,,,,,,,,,,,None,-0.1361111111111111,-0.002777777777777778,179054,001,2023-02-23_22h28.38.508,expectation_shapes_perceived_time,2022.2.4,60.329859551495105,
1,-33,0.85,met,112,green,red,high_Expectation,,,,,0,92,92,111,0.0011348999687470496,,,,,,,,,,,,,None,-0.1361111111111111,-0.002777777777777778,179054,001,2023-02-23_22h28.38.508,expectation_shapes_perceived_time,2022.2.4,60.329859551495105,
1,-33,0.85,met,134,green,red,high_Expectation,,,,,0,93,93,133,0.0011017000069841743,,,,,,,,,,,,,None,-0.1361111111111111,-0.002777777777777778,179054,001,2023-02-23_22h28.38.508,expectation_shapes_perceived_time,2022.2.4,60.329859551495105,
1,-33,0.85,met,168,green,red,high_Expectation,,,,,0,94,94,167,0.001222300052177161,,,,,,,,,,,,,None,-0.1361111111111111,-0.002777777777777778,179054,001,2023-02-23_22h28.38.508,expectation_shapes_perceived_time,2022.2.4,60.329859551495105,
1,-233,0.85,met,27,green,red,high_Expectation,,,,,0,95,95,26,0.001075299980584532,,,,,,,,,,,,,None,-0.1361111111111111,-0.002777777777777778,179054,001,2023-02-23_22h28.38.508,expectation_shapes_perceived_time,2022.2.4,60.329859551495105,
1,-167,0.85,met,95,green,red,high_Expectation,,,,,0,96,96,94,0.0010241999989375472,,,,,,,,,,,,,None,-0.1361111111111111,-0.002777777777777778,179054,001,2023-02-23_22h28.38.508,expectation_shapes_perceived_time,2022.2.4,60.329859551495105,
1,-300,0.85,met,188,green,red,high_Expectation,,,,,0,97,97,187,0.0010958000202663243,,,,,,,,,,,,,None,-0.1361111111111111,-0.002777777777777778,179054,001,2023-02-23_22h28.38.508,expectation_shapes_perceived_time,2022.2.4,60.329859551495105,
1,100,0.85,met,140,green,red,high_Expectation,,,,,0,98,98,139,0.0011071999906562269,,,,,,,,,,,,,None,-0.1361111111111111,-0.002777777777777778,179054,001,2023-02-23_22h28.38.508,expectation_shapes_perceived_time,2022.2.4,60.329859551495105,
1,-300,0.85,met,114,green,red,high_Expectation,,,,,0,99,99,113,0.001133000012487173,0.4713834999711253,0.4713834999711253,0.9379754000110552,0.9715155999874696,1.2384503000066616,1.271774299966637,2.4887964999652468,2.505500499974005,2.9893929999670945,3.5391706000082195,212.4101398747052,-554.358185674272,None,-0.1361111111111111,-0.002777777777777778,179054,001,2023-02-23_22h28.38.508,expectation_shapes_perceived_time,2022.2.4,60.329859551495105,
1,-167,0.85,met,6,green,red,high_Expectation,,,,,0,100,100,5,0.0015827999450266361,,,,,,,,,,,,,None,0.07222222222222222,0.09166666666666666,179054,001,2023-02-23_22h28.38.508,expectation_shapes_perceived_time,2022.2.4,60.329859551495105,
1,33,0.15,unmet,84,red,green,high_Expectation,,,,,0,101,101,83,0.0015977000002749264,,,,,,,,,,,,,None,0.07407407407407407,0.08981481481481482,179054,001,2023-02-23_22h28.38.508,expectation_shapes_perceived_time,2022.2.4,60.329859551495105,
1,-167,0.85,met,296,green,red,high_Expectation,,,,,0,102,102,295,0.0015720999799668789,,,,,,,,,,,,,None,0.07407407407407407,0.08981481481481482,179054,001,2023-02-23_22h28.38.508,expectation_shapes_perceived_time,2022.2.4,60.329859551495105,
1,-33,0.85,met,19,green,red,high_Expectation,,,,,0,103,103,18,0.0015873999800533056,,,,,,,,,,,,,None,0.07407407407407407,0.08981481481481482,179054,001,2023-02-23_22h28.38.508,expectation_shapes_perceived_time,2022.2.4,60.329859551495105,
1,-100,0.85,met,109,green,red,high_Expectation,,,,,0,104,104,108,0.0016128999995999038,,,,,,,,,,,,,None,0.07407407407407407,0.08981481481481482,179054,001,2023-02-23_22h28.38.508,expectation_shapes_perceived_time,2022.2.4,60.329859551495105,
1,100,0.85,met,147,green,red,high_Expectation,,,,,0,105,105,146,0.0016099000349640846,,,,,,,,,,,,,None,0.07407407407407407,0.08981481481481482,179054,001,2023-02-23_22h28.38.508,expectation_shapes_perceived_time,2022.2.4,60.329859551495105,
1,-300,0.85,met,48,green,red,high_Expectation,,,,,0,106,106,47,0.0015991000109352171,,,,,,,,,,,,,None,0.07407407407407407,0.08981481481481482,179054,001,2023-02-23_22h28.38.508,expectation_shapes_perceived_time,2022.2.4,60.329859551495105,
1,300,0.15,unmet,148,red,green,high_Expectation,,,,,0,107,107,147,0.0015991000109352171,,,,,,,,,,,,,None,0.07407407407407407,0.08981481481481482,179054,001,2023-02-23_22h28.38.508,expectation_shapes_perceived_time,2022.2.4,60.329859551495105,
1,-33,0.85,met,67,green,red,high_Expectation,,,,,0,108,108,66,0.0012734000338241458,,,,,,,,,,,,,None,0.07407407407407407,0.08981481481481482,179054,001,2023-02-23_22h28.38.508,expectation_shapes_perceived_time,2022.2.4,60.329859551495105,
1,300,0.85,met,32,green,red,high_Expectation,,,,,0,109,109,31,0.0013964000390842557,,,,,,,,,,,,,None,0.07407407407407407,0.08981481481481482,179054,001,2023-02-23_22h28.38.508,expectation_shapes_perceived_time,2022.2.4,60.329859551495105,
1,233,0.85,met,146,green,red,high_Expectation,,,,,0,110,110,145,0.0012898999848403037,,,,,,,,,,,,,None,0.075,0.08981481481481482,179054,001,2023-02-23_22h28.38.508,expectation_shapes_perceived_time,2022.2.4,60.329859551495105,
1,-167,0.85,met,87,green,red,high_Expectation,,,,,0,111,111,86,0.0011287000379525125,,,,,,,,,,,,,None,0.075,0.08981481481481482,179054,001,2023-02-23_22h28.38.508,expectation_shapes_perceived_time,2022.2.4,60.329859551495105,
1,-300,0.85,met,135,green,red,high_Expectation,,,,,0,112,112,134,0.00122969999210909,,,,,,,,,,,,,None,0.075,0.08981481481481482,179054,001,2023-02-23_22h28.38.508,expectation_shapes_perceived_time,2022.2.4,60.329859551495105,
1,-167,0.85,met,282,green,red,high_Expectation,,,,,0,113,113,281,0.0011812999728135765,,,,,,,,,,,,,None,0.075,0.08981481481481482,179054,001,2023-02-23_22h28.38.508,expectation_shapes_perceived_time,2022.2.4,60.329859551495105,
1,-167,0.85,met,268,green,red,high_Expectation,,,,,0,114,114,267,0.0011391000007279217,,,,,,,,,,,,,None,0.075,0.08981481481481482,179054,001,2023-02-23_22h28.38.508,expectation_shapes_perceived_time,2022.2.4,60.329859551495105,
1,167,0.85,met,295,green,red,high_Expectation,,,,,0,115,115,294,0.0011133999796584249,,,,,,,,,,,,,None,0.075,0.08981481481481482,179054,001,2023-02-23_22h28.38.508,expectation_shapes_perceived_time,2022.2.4,60.329859551495105,
1,233,0.85,met,234,green,red,high_Expectation,,,,,0,116,116,233,0.0010754999821074307,,,,,,,,,,,,,None,0.075,0.08888888888888889,179054,001,2023-02-23_22h28.38.508,expectation_shapes_perceived_time,2022.2.4,60.329859551495105,
1,-100,0.85,met,192,green,red,high_Expectation,,,,,0,117,117,191,0.001113200036343187,,,,,,,,,,,,,None,0.075,0.08888888888888889,179054,001,2023-02-23_22h28.38.508,expectation_shapes_perceived_time,2022.2.4,60.329859551495105,
1,300,0.85,met,51,green,red,high_Expectation,,,,,0,118,118,50,0.0011147999903187156,,,,,,,,,,,,,None,0.075,0.08888888888888889,179054,001,2023-02-23_22h28.38.508,expectation_shapes_perceived_time,2022.2.4,60.329859551495105,
1,100,0.85,met,52,green,red,high_Expectation,,,,,0,119,119,51,0.00108889996772632,,,,,,,,,,,,,None,0.075,0.08888888888888889,179054,001,2023-02-23_22h28.38.508,expectation_shapes_perceived_time,2022.2.4,60.329859551495105,
1,-300,0.85,met,72,green,red,high_Expectation,,,,,0,120,120,71,0.0011264000204391778,,,,,,,,,,,,,None,0.075,0.08888888888888889,179054,001,2023-02-23_22h28.38.508,expectation_shapes_perceived_time,2022.2.4,60.329859551495105,
1,100,0.85,met,155,green,red,high_Expectation,,,,,0,121,121,154,0.001180000021122396,,,,,,,,,,,,,None,0.07685185185185185,0.08888888888888889,179054,001,2023-02-23_22h28.38.508,expectation_shapes_perceived_time,2022.2.4,60.329859551495105,
1,100,0.85,met,7,green,red,high_Expectation,,,,,0,122,122,6,0.0010341000161133707,,,,,,,,,,,,,None,0.07685185185185185,0.08888888888888889,179054,001,2023-02-23_22h28.38.508,expectation_shapes_perceived_time,2022.2.4,60.329859551495105,
1,233,0.85,met,21,green,red,high_Expectation,,,,,0,123,123,20,0.0011919999960809946,,,,,,,,,,,,,None,0.07685185185185185,0.08888888888888889,179054,001,2023-02-23_22h28.38.508,expectation_shapes_perceived_time,2022.2.4,60.329859551495105,
1,-100,0.85,met,300,green,red,high_Expectation,,,,,0,124,124,299,0.0011809999705292284,,,,,,,,,,,,,None,0.07685185185185185,0.08888888888888889,179054,001,2023-02-23_22h28.38.508,expectation_shapes_perceived_time,2022.2.4,60.329859551495105,
1,-100,0.15,unmet,86,red,green,high_Expectation,,,,,0,125,125,85,0.001067600038368255,,,,,,,,,,,,,None,0.07685185185185185,0.08888888888888889,179054,001,2023-02-23_22h28.38.508,expectation_shapes_perceived_time,2022.2.4,60.329859551495105,
1,100,0.85,met,10,green,red,high_Expectation,,,,,0,126,126,9,0.0011043999693356454,,,,,,,,,,,,,None,0.07685185185185185,0.08796296296296297,179054,001,2023-02-23_22h28.38.508,expectation_shapes_perceived_time,2022.2.4,60.329859551495105,
1,33,0.15,unmet,213,red,green,high_Expectation,,,,,0,127,127,212,0.0011186000192537904,,,,,,,,,,,,,None,0.07685185185185185,0.08796296296296297,179054,001,2023-02-23_22h28.38.508,expectation_shapes_perceived_time,2022.2.4,60.329859551495105,
1,-167,0.15,unmet,223,red,green,high_Expectation,,,,,0,128,128,222,0.001150700030848384,,,,,,,,,,,,,None,0.07685185185185185,0.08796296296296297,179054,001,2023-02-23_22h28.38.508,expectation_shapes_perceived_time,2022.2.4,60.329859551495105,
1,-300,0.85,met,172,green,red,high_Expectation,,,,,0,129,129,171,0.001114899991080165,,,,,,,,,,,,,None,0.07685185185185185,0.08796296296296297,179054,001,2023-02-23_22h28.38.508,expectation_shapes_perceived_time,2022.2.4,60.329859551495105,
1,300,0.15,unmet,42,red,green,high_Expectation,,,,,0,130,130,41,0.0011129999766126275,,,,,,,,,,,,,None,0.07685185185185185,0.08796296296296297,179054,001,2023-02-23_22h28.38.508,expectation_shapes_perceived_time,2022.2.4,60.329859551495105,
1,-100,0.85,met,197,green,red,high_Expectation,,,,,0,131,131,196,0.001045699988026172,,,,,,,,,,,,,None,0.07685185185185185,0.08796296296296297,179054,001,2023-02-23_22h28.38.508,expectation_shapes_perceived_time,2022.2.4,60.329859551495105,
1,233,0.85,met,251,green,red,high_Expectation,,,,,0,132,132,250,0.0011867000139318407,,,,,,,,,,,,,None,0.07685185185185185,0.08796296296296297,179054,001,2023-02-23_22h28.38.508,expectation_shapes_perceived_time,2022.2.4,60.329859551495105,
1,233,0.85,met,162,green,red,high_Expectation,,,,,0,133,133,161,0.001140400010626763,,,,,,,,,,,,,None,0.07685185185185185,0.08796296296296297,179054,001,2023-02-23_22h28.38.508,expectation_shapes_perceived_time,2022.2.4,60.329859551495105,
1,-100,0.85,met,179,green,red,high_Expectation,,,,,0,134,134,178,0.0010650999611243606,,,,,,,,,,,,,None,0.07777777777777778,0.08703703703703704,179054,001,2023-02-23_22h28.38.508,expectation_shapes_perceived_time,2022.2.4,60.329859551495105,
1,100,0.85,met,139,green,red,high_Expectation,,,,,0,135,135,138,0.0011035000206902623,,,,,,,,,,,,,None,0.07777777777777778,0.08703703703703704,179054,001,2023-02-23_22h28.38.508,expectation_shapes_perceived_time,2022.2.4,60.329859551495105,
1,167,0.85,met,127,green,red,high_Expectation,,,,,0,136,136,126,0.0011111999629065394,,,,,,,,,,,,,None,0.07777777777777778,0.08703703703703704,179054,001,2023-02-23_22h28.38.508,expectation_shapes_perceived_time,2022.2.4,60.329859551495105,
1,100,0.85,met,68,green,red,high_Expectation,,,,,0,137,137,67,0.001159599982202053,,,,,,,,,,,,,None,0.07777777777777778,0.08703703703703704,179054,001,2023-02-23_22h28.38.508,expectation_shapes_perceived_time,2022.2.4,60.329859551495105,
1,33,0.85,met,136,green,red,high_Expectation,,,,,0,138,138,135,0.001103700022213161,,,,,,,,,,,,,None,0.07777777777777778,0.08703703703703704,179054,001,2023-02-23_22h28.38.508,expectation_shapes_perceived_time,2022.2.4,60.329859551495105,
1,33,0.85,met,205,green,red,high_Expectation,,,,,0,139,139,204,0.0011512000346556306,,,,,,,,,,,,,None,0.0787037037037037,0.08703703703703704,179054,001,2023-02-23_22h28.38.508,expectation_shapes_perceived_time,2022.2.4,60.329859551495105,
1,-167,0.85,met,156,green,red,high_Expectation,,,,,0,140,140,155,0.001045699988026172,,,,,,,,,,,,,None,0.0787037037037037,0.08703703703703704,179054,001,2023-02-23_22h28.38.508,expectation_shapes_perceived_time,2022.2.4,60.329859551495105,
1,233,0.85,met,297,green,red,high_Expectation,,,,,0,141,141,296,0.0010766999912448227,,,,,,,,,,,,,None,0.0787037037037037,0.08703703703703704,179054,001,2023-02-23_22h28.38.508,expectation_shapes_perceived_time,2022.2.4,60.329859551495105,
1,233,0.85,met,73,green,red,high_Expectation,,,,,0,142,142,72,0.0012249000137671828,,,,,,,,,,,,,None,0.0787037037037037,0.08703703703703704,179054,001,2023-02-23_22h28.38.508,expectation_shapes_perceived_time,2022.2.4,60.329859551495105,
1,100,0.85,met,159,green,red,high_Expectation,,,,,0,143,143,158,0.0011213000398129225,,,,,,,,,,,,,None,0.0787037037037037,0.08703703703703704,179054,001,2023-02-23_22h28.38.508,expectation_shapes_perceived_time,2022.2.4,60.329859551495105,
1,-167,0.85,met,71,green,red,high_Expectation,,,,,0,144,144,70,0.001118200016207993,,,,,,,,,,,,,None,0.07962962962962963,0.08611111111111111,179054,001,2023-02-23_22h28.38.508,expectation_shapes_perceived_time,2022.2.4,60.329859551495105,
1,167,0.85,met,17,green,red,high_Expectation,,,,,0,145,145,16,0.001055200002156198,,,,,,,,,,,,,None,0.07962962962962963,0.08611111111111111,179054,001,2023-02-23_22h28.38.508,expectation_shapes_perceived_time,2022.2.4,60.329859551495105,
1,167,0.15,unmet,11,red,green,high_Expectation,,,,,0,146,146,10,0.0011133000371046364,,,,,,,,,,,,,None,0.07962962962962963,0.08611111111111111,179054,001,2023-02-23_22h28.38.508,expectation_shapes_perceived_time,2022.2.4,60.329859551495105,
1,-233,0.85,met,88,green,red,high_Expectation,,,,,0,147,147,87,0.0010186999570578337,,,,,,,,,,,,,None,0.07962962962962963,0.08611111111111111,179054,001,2023-02-23_22h28.38.508,expectation_shapes_perceived_time,2022.2.4,60.329859551495105,
1,-100,0.85,met,64,green,red,high_Expectation,,,,,0,148,148,63,0.0011963999713771045,,,,,,,,,,,,,None,0.08055555555555556,0.08518518518518518,179054,001,2023-02-23_22h28.38.508,expectation_shapes_perceived_time,2022.2.4,60.329859551495105,
1,-167,0.85,met,35,green,red,high_Expectation,,,,,0,149,149,34,0.00131280004279688,,,,,,,,,,,,,None,0.08055555555555556,0.08518518518518518,179054,001,2023-02-23_22h28.38.508,expectation_shapes_perceived_time,2022.2.4,60.329859551495105,
1,-167,0.85,met,280,green,red,high_Expectation,,,,,0,150,150,279,0.0011555000091902912,,,,,,,,,,,,,None,0.08055555555555556,0.08518518518518518,179054,001,2023-02-23_22h28.38.508,expectation_shapes_perceived_time,2022.2.4,60.329859551495105,
1,167,0.15,unmet,76,red,green,high_Expectation,,,,,0,151,151,75,0.0010374999837949872,,,,,,,,,,,,,None,0.08055555555555556,0.08518518518518518,179054,001,2023-02-23_22h28.38.508,expectation_shapes_perceived_time,2022.2.4,60.329859551495105,
1,-233,0.85,met,149,green,red,high_Expectation,,,,,0,152,152,148,0.0011349000269547105,,,,,,,,,,,,,None,0.08148148148148149,0.08333333333333333,179054,001,2023-02-23_22h28.38.508,expectation_shapes_perceived_time,2022.2.4,60.329859551495105,
1,300,0.85,met,239,green,red,high_Expectation,,,,,0,153,153,238,0.0010255000088363886,,,,,,,,,,,,,None,0.08148148148148149,0.08333333333333333,179054,001,2023-02-23_22h28.38.508,expectation_shapes_perceived_time,2022.2.4,60.329859551495105,
1,-300,0.85,met,120,green,red,high_Expectation,,,,,0,154,154,119,0.0010819999733939767,,,,,,,,,,,,,None,0.08148148148148149,0.08333333333333333,179054,001,2023-02-23_22h28.38.508,expectation_shapes_perceived_time,2022.2.4,60.329859551495105,
1,-167,0.85,met,299,green,red,high_Expectation,,,,,0,155,155,298,0.0011062999838031828,,,,,,,,,,,,,None,0.08148148148148149,0.08333333333333333,179054,001,2023-02-23_22h28.38.508,expectation_shapes_perceived_time,2022.2.4,60.329859551495105,
1,-100,0.85,met,287,green,red,high_Expectation,,,,,0,156,156,286,0.0010322000016458333,,,,,,,,,,,,,None,0.08148148148148149,0.08333333333333333,179054,001,2023-02-23_22h28.38.508,expectation_shapes_perceived_time,2022.2.4,60.329859551495105,
1,-100,0.85,met,271,green,red,high_Expectation,,,,,0,157,157,270,0.0010116000194102526,,,,,,,,,,,,,None,0.08333333333333333,0.0824074074074074,179054,001,2023-02-23_22h28.38.508,expectation_shapes_perceived_time,2022.2.4,60.329859551495105,
1,-233,0.85,met,15,green,red,high_Expectation,,,,,0,158,158,14,0.0011243000044487417,,,,,,,,,,,,,None,0.08333333333333333,0.0824074074074074,179054,001,2023-02-23_22h28.38.508,expectation_shapes_perceived_time,2022.2.4,60.329859551495105,
1,33,0.85,met,272,green,red,high_Expectation,,,,,0,159,159,271,0.001040400005877018,,,,,,,,,,,,,None,0.08333333333333333,0.0824074074074074,179054,001,2023-02-23_22h28.38.508,expectation_shapes_perceived_time,2022.2.4,60.329859551495105,
1,233,0.85,met,33,green,red,high_Expectation,,,,,0,160,160,32,0.0011381999938748777,,,,,,,,,,,,,None,0.08333333333333333,0.0824074074074074,179054,001,2023-02-23_22h28.38.508,expectation_shapes_perceived_time,2022.2.4,60.329859551495105,
1,-33,0.85,met,53,green,red,high_Expectation,,,,,0,161,161,52,0.001166999980341643,,,,,,,,,,,,,None,0.08333333333333333,0.0824074074074074,179054,001,2023-02-23_22h28.38.508,expectation_shapes_perceived_time,2022.2.4,60.329859551495105,
1,-167,0.85,met,122,green,red,high_Expectation,,,,,0,162,162,121,0.0010429000249132514,,,,,,,,,,,,,None,0.08425925925925926,0.08148148148148149,179054,001,2023-02-23_22h28.38.508,expectation_shapes_perceived_time,2022.2.4,60.329859551495105,
1,-167,0.85,met,183,green,red,high_Expectation,,,,,0,163,163,182,0.001110200013499707,,,,,,,,,,,,,None,0.08425925925925926,0.08148148148148149,179054,001,2023-02-23_22h28.38.508,expectation_shapes_perceived_time,2022.2.4,60.329859551495105,
1,-100,0.85,met,80,green,red,high_Expectation,,,,,0,164,164,79,0.0010714000090956688,,,,,,,,,,,,,None,0.08425925925925926,0.08148148148148149,179054,001,2023-02-23_22h28.38.508,expectation_shapes_perceived_time,2022.2.4,60.329859551495105,
1,233,0.85,met,113,green,red,high_Expectation,,,,,0,165,165,112,0.0011145000462420285,,,,,,,,,,,,,None,0.08425925925925926,0.08148148148148149,179054,001,2023-02-23_22h28.38.508,expectation_shapes_perceived_time,2022.2.4,60.329859551495105,
1,33,0.15,unmet,215,red,green,high_Expectation,,,,,0,166,166,214,0.0010104000102728605,,,,,,,,,,,,,None,0.08611111111111111,0.07962962962962963,179054,001,2023-02-23_22h28.38.508,expectation_shapes_perceived_time,2022.2.4,60.329859551495105,
1,233,0.85,met,138,green,red,high_Expectation,,,,,0,167,167,137,0.0010902000358328223,,,,,,,,,,,,,None,0.08611111111111111,0.07962962962962963,179054,001,2023-02-23_22h28.38.508,expectation_shapes_perceived_time,2022.2.4,60.329859551495105,
1,-100,0.85,met,175,green,red,high_Expectation,,,,,0,168,168,174,0.0010733999661169946,,,,,,,,,,,,,None,0.08611111111111111,0.07962962962962963,179054,001,2023-02-23_22h28.38.508,expectation_shapes_perceived_time,2022.2.4,60.329859551495105,
1,-33,0.85,met,208,green,red,high_Expectation,,,,,0,169,169,207,0.0010585000272840261,,,,,,,,,,,,,None,0.08611111111111111,0.07962962962962963,179054,001,2023-02-23_22h28.38.508,expectation_shapes_perceived_time,2022.2.4,60.329859551495105,
1,233,0.85,met,104,green,red,high_Expectation,,,,,0,170,170,103,0.0011139999842271209,,,,,,,,,,,,,None,0.08611111111111111,0.07962962962962963,179054,001,2023-02-23_22h28.38.508,expectation_shapes_perceived_time,2022.2.4,60.329859551495105,
1,-100,0.85,met,173,green,red,high_Expectation,,,,,0,171,171,172,0.0011277000303380191,,,,,,,,,,,,,None,0.08611111111111111,0.07962962962962963,179054,001,2023-02-23_22h28.38.508,expectation_shapes_perceived_time,2022.2.4,60.329859551495105,
1,100,0.85,met,54,green,red,high_Expectation,,,,,0,172,172,53,0.0010300999856553972,,,,,,,,,,,,,None,0.08703703703703704,0.0787037037037037,179054,001,2023-02-23_22h28.38.508,expectation_shapes_perceived_time,2022.2.4,60.329859551495105,
1,-33,0.85,met,121,green,red,high_Expectation,,,,,0,173,173,120,0.0011325000086799264,,,,,,,,,,,,,None,0.08703703703703704,0.0787037037037037,179054,001,2023-02-23_22h28.38.508,expectation_shapes_perceived_time,2022.2.4,60.329859551495105,
1,-233,0.85,met,133,green,red,high_Expectation,,,,,0,174,174,132,0.0010965000255964696,,,,,,,,,,,,,None,0.08703703703703704,0.0787037037037037,179054,001,2023-02-23_22h28.38.508,expectation_shapes_perceived_time,2022.2.4,60.329859551495105,
1,-233,0.85,met,38,green,red,high_Expectation,,,,,0,175,175,37,0.0011178000131621957,,,,,,,,,,,,,None,0.08888888888888889,0.07685185185185185,179054,001,2023-02-23_22h28.38.508,expectation_shapes_perceived_time,2022.2.4,60.329859551495105,
1,33,0.85,met,69,green,red,high_Expectation,,,,,0,176,176,68,0.0011402999516576529,,,,,,,,,,,,,None,0.08888888888888889,0.07685185185185185,179054,001,2023-02-23_22h28.38.508,expectation_shapes_perceived_time,2022.2.4,60.329859551495105,
1,-300,0.85,met,200,green,red,high_Expectation,,,,,0,177,177,199,0.0011138999834656715,,,,,,,,,,,,,None,0.08888888888888889,0.07685185185185185,179054,001,2023-02-23_22h28.38.508,expectation_shapes_perceived_time,2022.2.4,60.329859551495105,
1,33,0.15,unmet,277,red,green,high_Expectation,,,,,0,178,178,276,0.0011503000278025866,,,,,,,,,,,,,None,0.08888888888888889,0.07685185185185185,179054,001,2023-02-23_22h28.38.508,expectation_shapes_perceived_time,2022.2.4,60.329859551495105,
1,-33,0.85,met,270,green,red,high_Expectation,,,,,0,179,179,269,0.001068799989297986,,,,,,,,,,,,,None,0.08888888888888889,0.07685185185185185,179054,001,2023-02-23_22h28.38.508,expectation_shapes_perceived_time,2022.2.4,60.329859551495105,
1,233,0.85,met,217,green,red,high_Expectation,,,,,0,180,180,216,0.0010943000088445842,,,,,,,,,,,,,None,0.09074074074074075,0.07592592592592592,179054,001,2023-02-23_22h28.38.508,expectation_shapes_perceived_time,2022.2.4,60.329859551495105,
1,233,0.85,met,283,green,red,high_Expectation,,,,,0,181,181,282,0.0011893999762833118,,,,,,,,,,,,,None,0.09074074074074075,0.07592592592592592,179054,001,2023-02-23_22h28.38.508,expectation_shapes_perceived_time,2022.2.4,60.329859551495105,
1,-33,0.85,met,236,green,red,high_Expectation,,,,,0,182,182,235,0.0011165000032633543,,,,,,,,,,,,,None,0.09074074074074075,0.07592592592592592,179054,001,2023-02-23_22h28.38.508,expectation_shapes_perceived_time,2022.2.4,60.329859551495105,
1,-167,0.85,met,126,green,red,high_Expectation,,,,,0,183,183,125,0.0010981999803334475,,,,,,,,,,,,,None,0.09074074074074075,0.07592592592592592,179054,001,2023-02-23_22h28.38.508,expectation_shapes_perceived_time,2022.2.4,60.329859551495105,
1,300,0.85,met,180,green,red,high_Expectation,,,,,0,184,184,179,0.0010201999684795737,,,,,,,,,,,,,None,0.09166666666666666,0.07407407407407407,179054,001,2023-02-23_22h28.38.508,expectation_shapes_perceived_time,2022.2.4,60.329859551495105,
1,167,0.15,unmet,293,red,green,high_Expectation,,,,,0,185,185,292,0.001240300014615059,,,,,,,,,,,,,None,0.09166666666666666,0.07407407407407407,179054,001,2023-02-23_22h28.38.508,expectation_shapes_perceived_time,2022.2.4,60.329859551495105,
1,33,0.85,met,91,green,red,high_Expectation,,,,,0,186,186,90,0.00106819998472929,,,,,,,,,,,,,None,0.09166666666666666,0.07407407407407407,179054,001,2023-02-23_22h28.38.508,expectation_shapes_perceived_time,2022.2.4,60.329859551495105,
1,233,0.85,met,191,green,red,high_Expectation,,,,,0,187,187,190,0.0011071999906562269,,,,,,,,,,,,,None,0.09166666666666666,0.07407407407407407,179054,001,2023-02-23_22h28.38.508,expectation_shapes_perceived_time,2022.2.4,60.329859551495105,
1,-233,0.85,met,253,green,red,high_Expectation,,,,,0,188,188,252,0.001019700022879988,,,,,,,,,,,,,None,0.09166666666666666,0.07407407407407407,179054,001,2023-02-23_22h28.38.508,expectation_shapes_perceived_time,2022.2.4,60.329859551495105,
1,100,0.85,met,132,green,red,high_Expectation,,,,,0,189,189,131,0.001042500021867454,,,,,,,,,,,,,None,0.09351851851851851,0.07314814814814814,179054,001,2023-02-23_22h28.38.508,expectation_shapes_perceived_time,2022.2.4,60.329859551495105,
1,167,0.15,unmet,237,red,green,high_Expectation,,,,,0,190,190,236,0.0010994999902322888,,,,,,,,,,,,,None,0.09351851851851851,0.07314814814814814,179054,001,2023-02-23_22h28.38.508,expectation_shapes_perceived_time,2022.2.4,60.329859551495105,
1,-33,0.85,met,117,green,red,high_Expectation,,,,,0,191,191,116,0.0011356999748386443,,,,,,,,,,,,,None,0.09351851851851851,0.07314814814814814,179054,001,2023-02-23_22h28.38.508,expectation_shapes_perceived_time,2022.2.4,60.329859551495105,
1,-167,0.85,met,182,green,red,high_Expectation,,,,,0,192,192,181,0.0010252000065520406,,,,,,,,,,,,,None,0.09351851851851851,0.07314814814814814,179054,001,2023-02-23_22h28.38.508,expectation_shapes_perceived_time,2022.2.4,60.329859551495105,
1,300,0.85,met,199,green,red,high_Expectation,,,,,0,193,193,198,0.001104000024497509,,,,,,,,,,,,,None,0.09351851851851851,0.07314814814814814,179054,001,2023-02-23_22h28.38.508,expectation_shapes_perceived_time,2022.2.4,60.329859551495105,
1,-33,0.85,met,202,green,red,high_Expectation,,,,,0,194,194,201,0.0010944000096060336,,,,,,,,,,,,,None,0.09444444444444444,0.07222222222222222,179054,001,2023-02-23_22h28.38.508,expectation_shapes_perceived_time,2022.2.4,60.329859551495105,
1,33,0.15,unmet,177,red,green,high_Expectation,,,,,0,195,195,176,0.0010221999837085605,,,,,,,,,,,,,None,0.09444444444444444,0.07222222222222222,179054,001,2023-02-23_22h28.38.508,expectation_shapes_perceived_time,2022.2.4,60.329859551495105,
1,33,0.15,unmet,185,red,green,high_Expectation,,,,,0,196,196,184,0.0010909000411629677,,,,,,,,,,,,,None,0.09444444444444444,0.07222222222222222,179054,001,2023-02-23_22h28.38.508,expectation_shapes_perceived_time,2022.2.4,60.329859551495105,
1,-233,0.85,met,216,green,red,high_Expectation,,,,,0,197,197,215,0.0010695000528357923,,,,,,,,,,,,,None,0.09444444444444444,0.07222222222222222,179054,001,2023-02-23_22h28.38.508,expectation_shapes_perceived_time,2022.2.4,60.329859551495105,
1,233,0.85,met,77,green,red,high_Expectation,,,,,0,198,198,76,0.0011184999602846801,,,,,,,,,,,,,None,0.09444444444444444,0.07222222222222222,179054,001,2023-02-23_22h28.38.508,expectation_shapes_perceived_time,2022.2.4,60.329859551495105,
1,-233,0.85,met,119,green,red,high_Expectation,,,,,0,199,199,118,0.0009965000208467245,,,,,,,,,,,,,None,0.09537037037037037,0.07037037037037037,179054,001,2023-02-23_22h28.38.508,expectation_shapes_perceived_time,2022.2.4,60.329859551495105,
1,100,0.85,met,62,green,red,high_Expectation,,,,,0,200,200,61,0.0010921000503003597,,,,,,,,,,,,,None,0.09537037037037037,0.07037037037037037,179054,001,2023-02-23_22h28.38.508,expectation_shapes_perceived_time,2022.2.4,60.329859551495105,
1,300,0.85,met,167,green,red,high_Expectation,,,,,0,201,201,166,0.0010914999875240028,,,,,,,,,,,,,None,0.09537037037037037,0.07037037037037037,179054,001,2023-02-23_22h28.38.508,expectation_shapes_perceived_time,2022.2.4,60.329859551495105,
1,300,0.85,met,56,green,red,high_Expectation,,,,,0,202,202,55,0.0011193999671377242,,,,,,,,,,,,,None,0.09537037037037037,0.07037037037037037,179054,001,2023-02-23_22h28.38.508,expectation_shapes_perceived_time,2022.2.4,60.329859551495105,
1,167,0.85,met,158,green,red,high_Expectation,,,,,0,203,203,157,0.0010991999879479408,,,,,,,,,,,,,None,0.0962962962962963,0.06944444444444445,179054,001,2023-02-23_22h28.38.508,expectation_shapes_perceived_time,2022.2.4,60.329859551495105,
1,-33,0.85,met,294,green,red,high_Expectation,,,,,0,204,204,293,0.0012801000266335905,,,,,,,,,,,,,None,0.0962962962962963,0.06944444444444445,179054,001,2023-02-23_22h28.38.508,expectation_shapes_perceived_time,2022.2.4,60.329859551495105,
1,167,0.15,unmet,198,red,green,high_Expectation,,,,,0,205,205,197,0.0011166000040248036,,,,,,,,,,,,,None,0.0962962962962963,0.06944444444444445,179054,001,2023-02-23_22h28.38.508,expectation_shapes_perceived_time,2022.2.4,60.329859551495105,
1,-233,0.85,met,97,green,red,high_Expectation,,,,,0,206,206,96,0.001014399982523173,,,,,,,,,,,,,None,0.0962962962962963,0.06944444444444445,179054,001,2023-02-23_22h28.38.508,expectation_shapes_perceived_time,2022.2.4,60.329859551495105,
1,167,0.85,met,50,green,red,high_Expectation,,,,,0,207,207,49,0.0011172000085934997,,,,,,,,,,,,,None,0.0962962962962963,0.06944444444444445,179054,001,2023-02-23_22h28.38.508,expectation_shapes_perceived_time,2022.2.4,60.329859551495105,
1,100,0.85,met,278,green,red,high_Expectation,,,,,0,208,208,277,0.0011106000165455043,,,,,,,,,,,,,None,0.09722222222222222,0.06759259259259259,179054,001,2023-02-23_22h28.38.508,expectation_shapes_perceived_time,2022.2.4,60.329859551495105,
1,167,0.85,met,79,green,red,high_Expectation,,,,,0,209,209,78,0.001122899993788451,,,,,,,,,,,,,None,0.09722222222222222,0.06759259259259259,179054,001,2023-02-23_22h28.38.508,expectation_shapes_perceived_time,2022.2.4,60.329859551495105,
1,-167,0.85,met,165,green,red,high_Expectation,,,,,0,210,210,164,0.0010987999849021435,,,,,,,,,,,,,None,0.09722222222222222,0.06759259259259259,179054,001,2023-02-23_22h28.38.508,expectation_shapes_perceived_time,2022.2.4,60.329859551495105,
1,-167,0.85,met,3,green,red,high_Expectation,,,,,0,211,211,2,0.0011075999937020242,,,,,,,,,,,,,None,0.09722222222222222,0.06759259259259259,179054,001,2023-02-23_22h28.38.508,expectation_shapes_perceived_time,2022.2.4,60.329859551495105,
1,-233,0.15,unmet,257,red,green,high_Expectation,,,,,0,212,212,256,0.0010907999821938574,,,,,,,,,,,,,None,0.09722222222222222,0.06759259259259259,179054,001,2023-02-23_22h28.38.508,expectation_shapes_perceived_time,2022.2.4,60.329859551495105,
1,-233,0.85,met,195,green,red,high_Expectation,,,,,0,213,213,194,0.001150099968072027,,,,,,,,,,,,,None,0.09814814814814815,0.06666666666666667,179054,001,2023-02-23_22h28.38.508,expectation_shapes_perceived_time,2022.2.4,60.329859551495105,
1,300,0.85,met,154,green,red,high_Expectation,,,,,0,214,214,153,0.001109000004362315,,,,,,,,,,,,,None,0.09814814814814815,0.06666666666666667,179054,001,2023-02-23_22h28.38.508,expectation_shapes_perceived_time,2022.2.4,60.329859551495105,
1,167,0.15,unmet,166,red,green,high_Expectation,,,,,0,215,215,165,0.001013800036162138,,,,,,,,,,,,,None,0.09814814814814815,0.06666666666666667,179054,001,2023-02-23_22h28.38.508,expectation_shapes_perceived_time,2022.2.4,60.329859551495105,
1,-33,0.85,met,125,green,red,high_Expectation,,,,,0,216,216,124,0.001059899979736656,,,,,,,,,,,,,None,0.1,0.06574074074074074,179054,001,2023-02-23_22h28.38.508,expectation_shapes_perceived_time,2022.2.4,60.329859551495105,
1,-167,0.85,met,227,green,red,high_Expectation,,,,,0,217,217,226,0.0010298999841324985,,,,,,,,,,,,,None,0.1,0.06574074074074074,179054,001,2023-02-23_22h28.38.508,expectation_shapes_perceived_time,2022.2.4,60.329859551495105,
1,167,0.85,met,89,green,red,high_Expectation,,,,,0,218,218,88,0.0010291999788023531,,,,,,,,,,,,,None,0.1,0.06574074074074074,179054,001,2023-02-23_22h28.38.508,expectation_shapes_perceived_time,2022.2.4,60.329859551495105,
1,-100,0.15,unmet,30,red,green,high_Expectation,,,,,0,219,219,29,0.0011124999728053808,,,,,,,,,,,,,None,0.1,0.06574074074074074,179054,001,2023-02-23_22h28.38.508,expectation_shapes_perceived_time,2022.2.4,60.329859551495105,
1,-300,0.85,met,189,green,red,high_Expectation,,,,,0,220,220,188,0.0010370999807491899,,,,,,,,,,,,,None,0.1,0.06574074074074074,179054,001,2023-02-23_22h28.38.508,expectation_shapes_perceived_time,2022.2.4,60.329859551495105,
1,-300,0.85,met,124,green,red,high_Expectation,,,,,0,221,221,123,0.0010751999798230827,,,,,,,,,,,,,None,0.1,0.06388888888888888,179054,001,2023-02-23_22h28.38.508,expectation_shapes_perceived_time,2022.2.4,60.329859551495105,
1,33,0.15,unmet,81,red,green,high_Expectation,,,,,0,222,222,80,0.0010556000052019954,,,,,,,,,,,,,None,0.1,0.06388888888888888,179054,001,2023-02-23_22h28.38.508,expectation_shapes_perceived_time,2022.2.4,60.329859551495105,
1,-167,0.85,met,211,green,red,high_Expectation,,,,,0,223,223,210,0.00207430002046749,,,,,,,,,,,,,None,0.1,0.06388888888888888,179054,001,2023-02-23_22h28.38.508,expectation_shapes_perceived_time,2022.2.4,60.329859551495105,
1,100,0.85,met,83,green,red,high_Expectation,,,,,0,224,224,82,0.001195100019685924,,,,,,,,,,,,,None,0.1,0.06388888888888888,179054,001,2023-02-23_22h28.38.508,expectation_shapes_perceived_time,2022.2.4,60.329859551495105,
1,-300,0.85,met,252,green,red,high_Expectation,,,,,0,225,225,251,0.0011356000322848558,,,,,,,,,,,,,None,0.10185185185185185,0.06296296296296296,179054,001,2023-02-23_22h28.38.508,expectation_shapes_perceived_time,2022.2.4,60.329859551495105,
1,167,0.85,met,276,green,red,high_Expectation,,,,,0,226,226,275,0.001113500038627535,,,,,,,,,,,,,None,0.10185185185185185,0.06296296296296296,179054,001,2023-02-23_22h28.38.508,expectation_shapes_perceived_time,2022.2.4,60.329859551495105,
1,-167,0.85,met,37,green,red,high_Expectation,,,,,0,227,227,36,0.0011070999898947775,,,,,,,,,,,,,None,0.10185185185185185,0.06296296296296296,179054,001,2023-02-23_22h28.38.508,expectation_shapes_perceived_time,2022.2.4,60.329859551495105,
1,167,0.85,met,59,green,red,high_Expectation,,,,,0,228,228,58,0.00103270000545308,,,,,,,,,,,,,None,0.10185185185185185,0.06296296296296296,179054,001,2023-02-23_22h28.38.508,expectation_shapes_perceived_time,2022.2.4,60.329859551495105,
1,300,0.85,met,23,green,red,high_Expectation,,,,,0,229,229,22,0.0010792999528348446,,,,,,,,,,,,,None,0.10185185185185185,0.06296296296296296,179054,001,2023-02-23_22h28.38.508,expectation_shapes_perceived_time,2022.2.4,60.329859551495105,
1,-233,0.85,met,260,green,red,high_Expectation,,,,,0,230,230,259,0.001174400036688894,,,,,,,,,,,,,None,0.10277777777777777,0.06111111111111111,179054,001,2023-02-23_22h28.38.508,expectation_shapes_perceived_time,2022.2.4,60.329859551495105,
1,-300,0.85,met,96,green,red,high_Expectation,,,,,0,231,231,95,0.0010301999864168465,,,,,,,,,,,,,None,0.10277777777777777,0.06111111111111111,179054,001,2023-02-23_22h28.38.508,expectation_shapes_perceived_time,2022.2.4,60.329859551495105,
1,300,0.85,met,12,green,red,high_Expectation,,,,,0,232,232,11,0.0010988999856635928,,,,,,,,,,,,,None,0.10277777777777777,0.06111111111111111,179054,001,2023-02-23_22h28.38.508,expectation_shapes_perceived_time,2022.2.4,60.329859551495105,
1,33,0.85,met,58,green,red,high_Expectation,,,,,0,233,233,57,0.0011254000128246844,,,,,,,,,,,,,None,0.10277777777777777,0.06111111111111111,179054,001,2023-02-23_22h28.38.508,expectation_shapes_perceived_time,2022.2.4,60.329859551495105,
1,233,0.85,met,186,green,red,high_Expectation,,,,,0,234,234,185,0.0011232999968342483,,,,,,,,,,,,,None,0.1037037037037037,0.05925925925925926,179054,001,2023-02-23_22h28.38.508,expectation_shapes_perceived_time,2022.2.4,60.329859551495105,
1,167,0.15,unmet,174,red,green,high_Expectation,,,,,0,235,235,173,0.0011242000036872923,,,,,,,,,,,,,None,0.1037037037037037,0.05925925925925926,179054,001,2023-02-23_22h28.38.508,expectation_shapes_perceived_time,2022.2.4,60.329859551495105,
1,233,0.85,met,160,green,red,high_Expectation,,,,,0,236,236,159,0.001109000004362315,,,,,,,,,,,,,None,0.1037037037037037,0.05925925925925926,179054,001,2023-02-23_22h28.38.508,expectation_shapes_perceived_time,2022.2.4,60.329859551495105,
1,-233,0.15,unmet,256,red,green,high_Expectation,,,,,0,237,237,255,0.0011540999985300004,,,,,,,,,,,,,None,0.1037037037037037,0.05925925925925926,179054,001,2023-02-23_22h28.38.508,expectation_shapes_perceived_time,2022.2.4,60.329859551495105,
1,-300,0.85,met,209,green,red,high_Expectation,,,,,0,238,238,208,0.001019399962387979,,,,,,,,,,,,,None,0.1037037037037037,0.05925925925925926,179054,001,2023-02-23_22h28.38.508,expectation_shapes_perceived_time,2022.2.4,60.329859551495105,
1,-100,0.85,met,36,green,red,high_Expectation,,,,,0,239,239,35,0.0011097999522462487,,,,,,,,,,,,,None,0.10462962962962963,0.058333333333333334,179054,001,2023-02-23_22h28.38.508,expectation_shapes_perceived_time,2022.2.4,60.329859551495105,
1,233,0.85,met,108,green,red,high_Expectation,,,,,0,240,240,107,0.0011524000437930226,,,,,,,,,,,,,None,0.10462962962962963,0.058333333333333334,179054,001,2023-02-23_22h28.38.508,expectation_shapes_perceived_time,2022.2.4,60.329859551495105,
1,167,0.85,met,49,green,red,high_Expectation,,,,,0,241,241,48,0.0012101000174880028,,,,,,,,,,,,,None,0.10462962962962963,0.058333333333333334,179054,001,2023-02-23_22h28.38.508,expectation_shapes_perceived_time,2022.2.4,60.329859551495105,
1,167,0.85,met,230,green,red,high_Expectation,,,,,0,242,242,229,0.0012971999822184443,,,,,,,,,,,,,None,0.10462962962962963,0.058333333333333334,179054,001,2023-02-23_22h28.38.508,expectation_shapes_perceived_time,2022.2.4,60.329859551495105,
1,33,0.85,met,241,green,red,high_Expectation,,,,,0,243,243,240,0.0011206000344827771,,,,,,,,,,,,,None,0.10462962962962963,0.058333333333333334,179054,001,2023-02-23_22h28.38.508,expectation_shapes_perceived_time,2022.2.4,60.329859551495105,
1,-233,0.85,met,107,green,red,high_Expectation,,,,,0,244,244,106,0.0013027999666519463,,,,,,,,,,,,,None,0.10462962962962963,0.05648148148148148,179054,001,2023-02-23_22h28.38.508,expectation_shapes_perceived_time,2022.2.4,60.329859551495105,
1,-167,0.85,met,150,green,red,high_Expectation,,,,,0,245,245,149,0.001057000015862286,,,,,,,,,,,,,None,0.10462962962962963,0.05648148148148148,179054,001,2023-02-23_22h28.38.508,expectation_shapes_perceived_time,2022.2.4,60.329859551495105,
1,-100,0.85,met,145,green,red,high_Expectation,,,,,0,246,246,144,0.0011900000390596688,,,,,,,,,,,,,None,0.10462962962962963,0.05648148148148148,179054,001,2023-02-23_22h28.38.508,expectation_shapes_perceived_time,2022.2.4,60.329859551495105,
1,167,0.85,met,261,green,red,high_Expectation,,,,,0,247,247,260,0.0010424000211060047,,,,,,,,,,,,,None,0.10462962962962963,0.05648148148148148,179054,001,2023-02-23_22h28.38.508,expectation_shapes_perceived_time,2022.2.4,60.329859551495105,
1,-233,0.85,met,286,green,red,high_Expectation,,,,,0,248,248,285,0.0010486000101082027,,,,,,,,,,,,,None,0.10648148148148148,0.05277777777777778,179054,001,2023-02-23_22h28.38.508,expectation_shapes_perceived_time,2022.2.4,60.329859551495105,
1,233,0.85,met,274,green,red,high_Expectation,,,,,0,249,249,273,0.0011101000127382576,,,,,,,,,,,,,None,0.10648148148148148,0.05277777777777778,179054,001,2023-02-23_22h28.38.508,expectation_shapes_perceived_time,2022.2.4,60.329859551495105,
1,233,0.85,met,281,green,red,high_Expectation,,,,,0,250,250,280,0.0011499000247567892,,,,,,,,,,,,,None,0.10648148148148148,0.05277777777777778,179054,001,2023-02-23_22h28.38.508,expectation_shapes_perceived_time,2022.2.4,60.329859551495105,
1,-167,0.15,unmet,105,red,green,high_Expectation,,,,,0,251,251,104,0.0012234000023454428,,,,,,,,,,,,,None,0.10648148148148148,0.05277777777777778,179054,001,2023-02-23_22h28.38.508,expectation_shapes_perceived_time,2022.2.4,60.329859551495105,
1,300,0.15,unmet,101,red,green,high_Expectation,,,,,0,252,252,100,0.0010688999900594354,,,,,,,,,,,,,None,0.10648148148148148,0.05277777777777778,179054,001,2023-02-23_22h28.38.508,expectation_shapes_perceived_time,2022.2.4,60.329859551495105,
1,-100,0.85,met,220,green,red,high_Expectation,,,,,0,253,253,219,0.0010183000122196972,,,,,,,,,,,,,None,0.10648148148148148,0.05277777777777778,179054,001,2023-02-23_22h28.38.508,expectation_shapes_perceived_time,2022.2.4,60.329859551495105,
1,-233,0.15,unmet,176,red,green,high_Expectation,,,,,0,254,254,175,0.00119859998812899,,,,,,,,,,,,,None,0.10740740740740741,0.05092592592592592,179054,001,2023-02-23_22h28.38.508,expectation_shapes_perceived_time,2022.2.4,60.329859551495105,
1,-300,0.85,met,39,green,red,high_Expectation,,,,,0,255,255,38,0.001159299979917705,,,,,,,,,,,,,None,0.10740740740740741,0.05092592592592592,179054,001,2023-02-23_22h28.38.508,expectation_shapes_perceived_time,2022.2.4,60.329859551495105,
1,100,0.85,met,94,green,red,high_Expectation,,,,,0,256,256,93,0.0010667999740689993,,,,,,,,,,,,,None,0.10740740740740741,0.05092592592592592,179054,001,2023-02-23_22h28.38.508,expectation_shapes_perceived_time,2022.2.4,60.329859551495105,
1,-100,0.85,met,196,green,red,high_Expectation,,,,,0,257,257,195,0.001038899994455278,,,,,,,,,,,,,None,0.10740740740740741,0.05092592592592592,179054,001,2023-02-23_22h28.38.508,expectation_shapes_perceived_time,2022.2.4,60.329859551495105,
1,-33,0.85,met,60,green,red,high_Expectation,,,,,0,258,258,59,0.0011132999788969755,,,,,,,,,,,,,None,0.10925925925925926,0.05,179054,001,2023-02-23_22h28.38.508,expectation_shapes_perceived_time,2022.2.4,60.329859551495105,
1,-33,0.85,met,128,green,red,high_Expectation,,,,,0,259,259,127,0.0011304999934509397,,,,,,,,,,,,,None,0.10925925925925926,0.05,179054,001,2023-02-23_22h28.38.508,expectation_shapes_perceived_time,2022.2.4,60.329859551495105,
1,300,0.85,met,24,green,red,high_Expectation,,,,,0,260,260,23,0.001063200004864484,,,,,,,,,,,,,None,0.10925925925925926,0.05,179054,001,2023-02-23_22h28.38.508,expectation_shapes_perceived_time,2022.2.4,60.329859551495105,
1,233,0.85,met,157,green,red,high_Expectation,,,,,0,261,261,156,0.0013569000293500721,,,,,,,,,,,,,None,0.10925925925925926,0.05,179054,001,2023-02-23_22h28.38.508,expectation_shapes_perceived_time,2022.2.4,60.329859551495105,
1,167,0.85,met,288,green,red,high_Expectation,,,,,0,262,262,287,0.0011126999743282795,,,,,,,,,,,,,None,0.10925925925925926,0.05,179054,001,2023-02-23_22h28.38.508,expectation_shapes_perceived_time,2022.2.4,60.329859551495105,
1,-100,0.85,met,26,green,red,high_Expectation,,,,,0,263,263,25,0.0010923999943770468,,,,,,,,,,,,,None,0.10925925925925926,0.04814814814814815,179054,001,2023-02-23_22h28.38.508,expectation_shapes_perceived_time,2022.2.4,60.329859551495105,
1,-233,0.15,unmet,57,red,green,high_Expectation,,,,,0,264,264,56,0.0011328999535180628,,,,,,,,,,,,,None,0.10925925925925926,0.04814814814814815,179054,001,2023-02-23_22h28.38.508,expectation_shapes_perceived_time,2022.2.4,60.329859551495105,
1,-300,0.85,met,221,green,red,high_Expectation,,,,,0,265,265,220,0.0010087999980896711,,,,,,,,,,,,,None,0.10925925925925926,0.04814814814814815,179054,001,2023-02-23_22h28.38.508,expectation_shapes_perceived_time,2022.2.4,60.329859551495105,
1,-100,0.85,met,250,green,red,high_Expectation,,,,,0,266,266,249,0.0010569000151008368,,,,,,,,,,,,,None,0.11018518518518519,0.04722222222222222,179054,001,2023-02-23_22h28.38.508,expectation_shapes_perceived_time,2022.2.4,60.329859551495105,
1,100,0.85,met,74,green,red,high_Expectation,,,,,0,267,267,73,0.0010919999913312495,,,,,,,,,,,,,None,0.11018518518518519,0.04722222222222222,179054,001,2023-02-23_22h28.38.508,expectation_shapes_perceived_time,2022.2.4,60.329859551495105,
1,100,0.85,met,235,green,red,high_Expectation,,,,,0,268,268,234,0.0010937999468296766,,,,,,,,,,,,,None,0.11018518518518519,0.04722222222222222,179054,001,2023-02-23_22h28.38.508,expectation_shapes_perceived_time,2022.2.4,60.329859551495105,
1,300,0.85,met,269,green,red,high_Expectation,,,,,0,269,269,268,0.0014063999988138676,,,,,,,,,,,,,None,0.11018518518518519,0.04722222222222222,179054,001,2023-02-23_22h28.38.508,expectation_shapes_perceived_time,2022.2.4,60.329859551495105,
1,300,0.85,met,204,green,red,high_Expectation,,,,,0,270,270,203,0.001046899997163564,,,,,,,,,,,,,None,0.11018518518518519,0.04722222222222222,179054,001,2023-02-23_22h28.38.508,expectation_shapes_perceived_time,2022.2.4,60.329859551495105,
1,-233,0.15,unmet,291,red,green,high_Expectation,,,,,0,271,271,290,0.0011125000310130417,,,,,,,,,,,,,None,0.11018518518518519,0.04722222222222222,179054,001,2023-02-23_22h28.38.508,expectation_shapes_perceived_time,2022.2.4,60.329859551495105,
1,167,0.15,unmet,70,red,green,high_Expectation,,,,,0,272,272,69,0.0010955999605357647,,,,,,,,,,,,,None,0.11018518518518519,0.04722222222222222,179054,001,2023-02-23_22h28.38.508,expectation_shapes_perceived_time,2022.2.4,60.329859551495105,
1,-233,0.85,met,178,green,red,high_Expectation,,,,,0,273,273,177,0.0010849999962374568,,,,,,,,,,,,,None,0.11018518518518519,0.04722222222222222,179054,001,2023-02-23_22h28.38.508,expectation_shapes_perceived_time,2022.2.4,60.329859551495105,
1,33,0.85,met,66,green,red,high_Expectation,,,,,0,274,274,65,0.0010138999787159264,,,,,,,,,,,,,None,0.11018518518518519,0.04722222222222222,179054,001,2023-02-23_22h28.38.508,expectation_shapes_perceived_time,2022.2.4,60.329859551495105,
1,-300,0.85,met,118,green,red,high_Expectation,,,,,0,275,275,117,0.0010485000093467534,,,,,,,,,,,,,None,0.11018518518518519,0.04722222222222222,179054,001,2023-02-23_22h28.38.508,expectation_shapes_perceived_time,2022.2.4,60.329859551495105,
1,-100,0.85,met,242,green,red,high_Expectation,,,,,0,276,276,241,0.0011037999647669494,,,,,,,,,,,,,None,0.11018518518518519,0.046296296296296294,179054,001,2023-02-23_22h28.38.508,expectation_shapes_perceived_time,2022.2.4,60.329859551495105,
1,167,0.85,met,102,green,red,high_Expectation,,,,,0,277,277,101,0.0010180000099353492,,,,,,,,,,,,,None,0.11018518518518519,0.046296296296296294,179054,001,2023-02-23_22h28.38.508,expectation_shapes_perceived_time,2022.2.4,60.329859551495105,
1,300,0.15,unmet,153,red,green,high_Expectation,,,,,0,278,278,152,0.001110800018068403,,,,,,,,,,,,,None,0.11018518518518519,0.046296296296296294,179054,001,2023-02-23_22h28.38.508,expectation_shapes_perceived_time,2022.2.4,60.329859551495105,
1,33,0.15,unmet,238,red,green,high_Expectation,,,,,0,279,279,237,0.0011946999584324658,,,,,,,,,,,,,None,0.11018518518518519,0.046296296296296294,179054,001,2023-02-23_22h28.38.508,expectation_shapes_perceived_time,2022.2.4,60.329859551495105,
1,33,0.85,met,29,green,red,high_Expectation,,,,,0,280,280,28,0.001014399982523173,,,,,,,,,,,,,None,0.11018518518518519,0.04537037037037037,179054,001,2023-02-23_22h28.38.508,expectation_shapes_perceived_time,2022.2.4,60.329859551495105,
1,300,0.85,met,161,green,red,high_Expectation,,,,,0,281,281,160,0.0010062999790534377,,,,,,,,,,,,,None,0.11018518518518519,0.04537037037037037,179054,001,2023-02-23_22h28.38.508,expectation_shapes_perceived_time,2022.2.4,60.329859551495105,
1,300,0.85,met,151,green,red,high_Expectation,,,,,0,282,282,150,0.0010274999658577144,,,,,,,,,,,,,None,0.11018518518518519,0.04537037037037037,179054,001,2023-02-23_22h28.38.508,expectation_shapes_perceived_time,2022.2.4,60.329859551495105,
1,100,0.85,met,232,green,red,high_Expectation,,,,,0,283,283,231,0.001152500044554472,,,,,,,,,,,,,None,0.11018518518518519,0.04537037037037037,179054,001,2023-02-23_22h28.38.508,expectation_shapes_perceived_time,2022.2.4,60.329859551495105,
1,-33,0.85,met,193,green,red,high_Expectation,,,,,0,284,284,192,0.0011144999880343676,,,,,,,,,,,,,None,0.11018518518518519,0.04537037037037037,179054,001,2023-02-23_22h28.38.508,expectation_shapes_perceived_time,2022.2.4,60.329859551495105,
1,300,0.15,unmet,16,red,green,high_Expectation,,,,,0,285,285,15,0.0010510999709367752,,,,,,,,,,,,,None,0.1111111111111111,0.04351851851851852,179054,001,2023-02-23_22h28.38.508,expectation_shapes_perceived_time,2022.2.4,60.329859551495105,
1,233,0.85,met,116,green,red,high_Expectation,,,,,0,286,286,115,0.0011120999697595835,,,,,,,,,,,,,None,0.1111111111111111,0.04351851851851852,179054,001,2023-02-23_22h28.38.508,expectation_shapes_perceived_time,2022.2.4,60.329859551495105,
1,167,0.15,unmet,224,red,green,high_Expectation,,,,,0,287,287,223,0.0011048999731428921,,,,,,,,,,,,,None,0.1111111111111111,0.04351851851851852,179054,001,2023-02-23_22h28.38.508,expectation_shapes_perceived_time,2022.2.4,60.329859551495105,
1,-33,0.85,met,85,green,red,high_Expectation,,,,,0,288,288,84,0.0012065000482834876,,,,,,,,,,,,,None,0.1111111111111111,0.04351851851851852,179054,001,2023-02-23_22h28.38.508,expectation_shapes_perceived_time,2022.2.4,60.329859551495105,
1,167,0.85,met,63,green,red,high_Expectation,,,,,0,289,289,62,0.0011144999880343676,,,,,,,,,,,,,None,0.1111111111111111,0.04351851851851852,179054,001,2023-02-23_22h28.38.508,expectation_shapes_perceived_time,2022.2.4,60.329859551495105,
1,167,0.15,unmet,263,red,green,high_Expectation,,,,,0,290,290,262,0.0011202000314369798,,,,,,,,,,,,,None,0.1111111111111111,0.04259259259259259,179054,001,2023-02-23_22h28.38.508,expectation_shapes_perceived_time,2022.2.4,60.329859551495105,
1,-300,0.85,met,214,green,red,high_Expectation,,,,,0,291,291,213,0.0010977000347338617,,,,,,,,,,,,,None,0.1111111111111111,0.04259259259259259,179054,001,2023-02-23_22h28.38.508,expectation_shapes_perceived_time,2022.2.4,60.329859551495105,
1,-233,0.85,met,210,green,red,high_Expectation,,,,,0,292,292,209,0.0010534999892115593,,,,,,,,,,,,,None,0.1111111111111111,0.04259259259259259,179054,001,2023-02-23_22h28.38.508,expectation_shapes_perceived_time,2022.2.4,60.329859551495105,
1,-167,0.85,met,203,green,red,high_Expectation,,,,,0,293,293,202,0.0011001999955624342,,,,,,,,,,,,,None,0.1111111111111111,0.04259259259259259,179054,001,2023-02-23_22h28.38.508,expectation_shapes_perceived_time,2022.2.4,60.329859551495105,
1,233,0.85,met,262,green,red,high_Expectation,,,,,0,294,294,261,0.0010033000144176185,,,,,,,,,,,,,None,0.1111111111111111,0.04259259259259259,179054,001,2023-02-23_22h28.38.508,expectation_shapes_perceived_time,2022.2.4,60.329859551495105,
1,-33,0.85,met,212,green,red,high_Expectation,,,,,0,295,295,211,0.0010985999833792448,,,,,,,,,,,,,None,0.1111111111111111,0.041666666666666664,179054,001,2023-02-23_22h28.38.508,expectation_shapes_perceived_time,2022.2.4,60.329859551495105,
1,-233,0.85,met,181,green,red,high_Expectation,,,,,0,296,296,180,0.0010954999597743154,,,,,,,,,,,,,None,0.1111111111111111,0.041666666666666664,179054,001,2023-02-23_22h28.38.508,expectation_shapes_perceived_time,2022.2.4,60.329859551495105,
1,-100,0.15,unmet,93,red,green,high_Expectation,,,,,0,297,297,92,0.0011669000377878547,,,,,,,,,,,,,None,0.1111111111111111,0.041666666666666664,179054,001,2023-02-23_22h28.38.508,expectation_shapes_perceived_time,2022.2.4,60.329859551495105,
1,33,0.85,met,47,green,red,high_Expectation,,,,,0,298,298,46,0.0010769000509753823,,,,,,,,,,,,,None,0.1111111111111111,0.041666666666666664,179054,001,2023-02-23_22h28.38.508,expectation_shapes_perceived_time,2022.2.4,60.329859551495105,
1,-233,0.85,met,170,green,red,high_Expectation,,,,,0,299,299,169,0.0011870000162161887,,,,,,,,,,,,,None,0.1111111111111111,0.041666666666666664,179054,001,2023-02-23_22h28.38.508,expectation_shapes_perceived_time,2022.2.4,60.329859551495105,
,,,,,,,,,,,,,,,,,,,,,,,,,,,,,,0.1111111111111111,0.040740740740740744,,,,,,,
