id,delay,expectation,congruency,trial_num,stim_color,distractor_color,block,famLoop.thisRepN,famLoop.thisTrialN,famLoop.thisN,famLoop.thisIndex,trialss.thisRepN,trialss.thisTrialN,trialss.thisN,trialss.thisIndex,fixationPoint.started,fixationPoint.stopped,audCueStart.started,audCueStart.stopped,distractor.started,distractor.stopped,target.started,target.stopped,sapce2pass_2.started,audCueEnd.started,responsePointer.started,responsePointer.stopped,perceivedTime,pTemporalError,sapce2pass_2.keys,x_coord,y_coord,participant,session,date,expName,psychopyVersion,frameRate,
1,-33,0.85,met,184,green,red,high_Expectation,,,,,0,0,0,183,0.02389209996908903,0.5320165999582969,0.5320165999582969,0.5653189999866299,1.1992285999585874,1.2325802999548614,1.2325802999548614,1.2657350999652408,2.516256999981124,2.5832200999720953,3.1062688999809325,3.6496262999717146,1500.0,823.5824315958147,None,,,465665,001,2023-02-23_22h30.26.638,expectation_shapes_perceived_time,2022.2.4,60.7682935348308,
1,33,0.15,unmet,185,red,green,high_Expectation,,,,,0,1,1,184,0.0013954999740235507,,,,,,,,,,,,,,None,-0.19444444444444445,0.0,465665,001,2023-02-23_22h30.26.638,expectation_shapes_perceived_time,2022.2.4,60.7682935348308,
1,100,0.85,met,54,green,red,high_Expectation,,,,,0,2,2,53,0.0012725999695248902,,,,,,,,,,,,,,None,-0.19444444444444445,0.0,465665,001,2023-02-23_22h30.26.638,expectation_shapes_perceived_time,2022.2.4,60.7682935348308,
1,33,0.15,unmet,248,red,green,high_Expectation,,,,,0,3,3,247,0.0014008000143803656,,,,,,,,,,,,,,None,-0.19444444444444445,0.0,465665,001,2023-02-23_22h30.26.638,expectation_shapes_perceived_time,2022.2.4,60.7682935348308,
1,233,0.85,met,103,green,red,high_Expectation,,,,,0,4,4,102,0.0013837000005878508,,,,,,,,,,,,,,None,-0.19444444444444445,0.0,465665,001,2023-02-23_22h30.26.638,expectation_shapes_perceived_time,2022.2.4,60.7682935348308,
1,100,0.85,met,22,green,red,high_Expectation,,,,,0,5,5,21,0.0013076000032015145,,,,,,,,,,,,,,None,-0.19444444444444445,0.0,465665,001,2023-02-23_22h30.26.638,expectation_shapes_perceived_time,2022.2.4,60.7682935348308,
1,33,0.15,unmet,4,red,green,high_Expectation,,,,,0,6,6,3,0.001638399960938841,,,,,,,,,,,,,,None,-0.19444444444444445,0.0,465665,001,2023-02-23_22h30.26.638,expectation_shapes_perceived_time,2022.2.4,60.7682935348308,
1,233,0.85,met,33,green,red,high_Expectation,,,,,0,7,7,32,0.0015144000062718987,,,,,,,,,,,,,,None,-0.19444444444444445,0.0,465665,001,2023-02-23_22h30.26.638,expectation_shapes_perceived_time,2022.2.4,60.7682935348308,
1,-300,0.85,met,200,green,red,high_Expectation,,,,,0,8,8,199,0.0014121000422164798,,,,,,,,,,,,,,None,-0.19444444444444445,0.0,465665,001,2023-02-23_22h30.26.638,expectation_shapes_perceived_time,2022.2.4,60.7682935348308,
1,-167,0.85,met,290,green,red,high_Expectation,,,,,0,9,9,289,0.0013292999938130379,,,,,,,,,,,,,,None,-0.19444444444444445,0.0,465665,001,2023-02-23_22h30.26.638,expectation_shapes_perceived_time,2022.2.4,60.7682935348308,
1,100,0.85,met,94,green,red,high_Expectation,,,,,0,10,10,93,0.001220200036186725,,,,,,,,,,,,,,None,-0.19444444444444445,0.0,465665,001,2023-02-23_22h30.26.638,expectation_shapes_perceived_time,2022.2.4,60.7682935348308,
1,33,0.85,met,254,green,red,high_Expectation,,,,,0,11,11,253,0.0012132999836467206,,,,,,,,,,,,,,None,-0.19444444444444445,0.0,465665,001,2023-02-23_22h30.26.638,expectation_shapes_perceived_time,2022.2.4,60.7682935348308,
1,233,0.85,met,116,green,red,high_Expectation,,,,,0,12,12,115,0.001206899993121624,,,,,,,,,,,,,,None,-0.19444444444444445,0.0,465665,001,2023-02-23_22h30.26.638,expectation_shapes_perceived_time,2022.2.4,60.7682935348308,
1,-33,0.85,met,85,green,red,high_Expectation,,,,,0,13,13,84,0.001313100045081228,,,,,,,,,,,,,,None,-0.19444444444444445,0.0,465665,001,2023-02-23_22h30.26.638,expectation_shapes_perceived_time,2022.2.4,60.7682935348308,
1,-33,0.85,met,168,green,red,high_Expectation,,,,,0,14,14,167,0.001444699999410659,,,,,,,,,,,,,,None,-0.19444444444444445,0.0,465665,001,2023-02-23_22h30.26.638,expectation_shapes_perceived_time,2022.2.4,60.7682935348308,
1,-233,0.85,met,260,green,red,high_Expectation,,,,,0,15,15,259,0.0012487000203691423,,,,,,,,,,,,,,None,-0.19444444444444445,0.0,465665,001,2023-02-23_22h30.26.638,expectation_shapes_perceived_time,2022.2.4,60.7682935348308,
1,100,0.85,met,207,green,red,high_Expectation,,,,,0,16,16,206,0.0022017000010237098,,,,,,,,,,,,,,None,-0.19444444444444445,0.0,465665,001,2023-02-23_22h30.26.638,expectation_shapes_perceived_time,2022.2.4,60.7682935348308,
1,-233,0.85,met,97,green,red,high_Expectation,,,,,0,17,17,96,0.0018949999939650297,,,,,,,,,,,,,,None,-0.19444444444444445,0.0,465665,001,2023-02-23_22h30.26.638,expectation_shapes_perceived_time,2022.2.4,60.7682935348308,
1,-233,0.85,met,286,green,red,high_Expectation,,,,,0,18,18,285,0.0014581999857909977,,,,,,,,,,,,,,None,-0.19444444444444445,0.0,465665,001,2023-02-23_22h30.26.638,expectation_shapes_perceived_time,2022.2.4,60.7682935348308,
1,-167,0.85,met,183,green,red,high_Expectation,,,,,0,19,19,182,0.0025676999939605594,,,,,,,,,,,,,,None,-0.19444444444444445,0.0,465665,001,2023-02-23_22h30.26.638,expectation_shapes_perceived_time,2022.2.4,60.7682935348308,
1,-100,0.85,met,271,green,red,high_Expectation,,,,,0,20,20,270,0.001702900044620037,,,,,,,,,,,,,,None,-0.19444444444444445,0.0,465665,001,2023-02-23_22h30.26.638,expectation_shapes_perceived_time,2022.2.4,60.7682935348308,
1,233,0.85,met,285,green,red,high_Expectation,,,,,0,21,21,284,0.0014051999896764755,,,,,,,,,,,,,,None,-0.19444444444444445,0.0,465665,001,2023-02-23_22h30.26.638,expectation_shapes_perceived_time,2022.2.4,60.7682935348308,
1,33,0.85,met,136,green,red,high_Expectation,,,,,0,22,22,135,0.001275199989322573,,,,,,,,,,,,,,None,-0.19444444444444445,0.0,465665,001,2023-02-23_22h30.26.638,expectation_shapes_perceived_time,2022.2.4,60.7682935348308,
1,33,0.15,unmet,233,red,green,high_Expectation,,,,,0,23,23,232,0.001339700014796108,,,,,,,,,,,,,,None,-0.19444444444444445,0.0,465665,001,2023-02-23_22h30.26.638,expectation_shapes_perceived_time,2022.2.4,60.7682935348308,
1,-100,0.85,met,273,green,red,high_Expectation,,,,,0,24,24,272,0.0016411999822594225,,,,,,,,,,,,,,None,-0.19444444444444445,0.0,465665,001,2023-02-23_22h30.26.638,expectation_shapes_perceived_time,2022.2.4,60.7682935348308,
1,167,0.15,unmet,123,red,green,high_Expectation,,,,,0,25,25,122,0.0015240999637171626,,,,,,,,,,,,,,None,-0.19444444444444445,0.0,465665,001,2023-02-23_22h30.26.638,expectation_shapes_perceived_time,2022.2.4,60.7682935348308,
1,100,0.85,met,139,green,red,high_Expectation,,,,,0,26,26,138,0.0012320000096224248,,,,,,,,,,,,,,None,-0.19444444444444445,0.0,465665,001,2023-02-23_22h30.26.638,expectation_shapes_perceived_time,2022.2.4,60.7682935348308,
1,-100,0.85,met,196,green,red,high_Expectation,,,,,0,27,27,195,0.0012941000168211758,,,,,,,,,,,,,,None,-0.19444444444444445,0.0,465665,001,2023-02-23_22h30.26.638,expectation_shapes_perceived_time,2022.2.4,60.7682935348308,
1,233,0.85,met,162,green,red,high_Expectation,,,,,0,28,28,161,0.0012933000107295811,,,,,,,,,,,,,,None,-0.19444444444444445,0.0,465665,001,2023-02-23_22h30.26.638,expectation_shapes_perceived_time,2022.2.4,60.7682935348308,
1,33,0.15,unmet,277,red,green,high_Expectation,,,,,0,29,29,276,0.001393800019286573,,,,,,,,,,,,,,None,-0.19444444444444445,0.0,465665,001,2023-02-23_22h30.26.638,expectation_shapes_perceived_time,2022.2.4,60.7682935348308,
1,33,0.85,met,31,green,red,high_Expectation,,,,,0,30,30,30,0.0014073000056669116,,,,,,,,,,,,,,None,-0.19444444444444445,0.0,465665,001,2023-02-23_22h30.26.638,expectation_shapes_perceived_time,2022.2.4,60.7682935348308,
1,-233,0.85,met,119,green,red,high_Expectation,,,,,0,31,31,118,0.0012482000165618956,,,,,,,,,,,,,,None,-0.19444444444444445,0.0,465665,001,2023-02-23_22h30.26.638,expectation_shapes_perceived_time,2022.2.4,60.7682935348308,
1,300,0.85,met,56,green,red,high_Expectation,,,,,0,32,32,55,0.0012046000338159502,,,,,,,,,,,,,,None,-0.19444444444444445,0.0,465665,001,2023-02-23_22h30.26.638,expectation_shapes_perceived_time,2022.2.4,60.7682935348308,
1,-33,0.85,met,44,green,red,high_Expectation,,,,,0,33,33,43,0.0012040000292472541,,,,,,,,,,,,,,None,-0.19444444444444445,0.0,465665,001,2023-02-23_22h30.26.638,expectation_shapes_perceived_time,2022.2.4,60.7682935348308,
1,-100,0.85,met,80,green,red,high_Expectation,,,,,0,34,34,79,0.0012247000122442842,,,,,,,,,,,,,,None,-0.19444444444444445,0.0,465665,001,2023-02-23_22h30.26.638,expectation_shapes_perceived_time,2022.2.4,60.7682935348308,
1,167,0.85,met,261,green,red,high_Expectation,,,,,0,35,35,260,0.001464499975554645,,,,,,,,,,,,,,None,-0.19444444444444445,0.0,465665,001,2023-02-23_22h30.26.638,expectation_shapes_perceived_time,2022.2.4,60.7682935348308,
1,-233,0.85,met,8,green,red,high_Expectation,,,,,0,36,36,7,0.0012633000151254237,,,,,,,,,,,,,,None,-0.19444444444444445,0.0,465665,001,2023-02-23_22h30.26.638,expectation_shapes_perceived_time,2022.2.4,60.7682935348308,
1,-100,0.85,met,2,green,red,high_Expectation,,,,,0,37,37,1,0.0012246000114828348,,,,,,,,,,,,,,None,-0.19444444444444445,0.0,465665,001,2023-02-23_22h30.26.638,expectation_shapes_perceived_time,2022.2.4,60.7682935348308,
1,-300,0.85,met,78,green,red,high_Expectation,,,,,0,38,38,77,0.001285600010305643,0.5016433999990113,0.5016433999990113,0.5350019000470638,0.3850908000022173,0.41805249999742955,0.7021144000464119,0.7353586000390351,2.5024946000194177,2.5525303999893367,3.075739399995655,3.6155683000106364,508.9641051826732,331.59846595429565,None,-0.19444444444444445,0.0,465665,001,2023-02-23_22h30.26.638,expectation_shapes_perceived_time,2022.2.4,60.7682935348308,
1,-167,0.85,met,37,green,red,high_Expectation,,,,,0,39,39,36,0.0020259000011719763,,,,,,,,,,,,,,None,0.19722222222222222,-0.005555555555555556,465665,001,2023-02-23_22h30.26.638,expectation_shapes_perceived_time,2022.2.4,60.7682935348308,
1,300,0.85,met,239,green,red,high_Expectation,,,,,0,40,40,238,0.0021501999581232667,,,,,,,,,,,,,,None,0.19722222222222222,-0.005555555555555556,465665,001,2023-02-23_22h30.26.638,expectation_shapes_perceived_time,2022.2.4,60.7682935348308,
1,167,0.15,unmet,293,red,green,high_Expectation,,,,,0,41,41,292,0.001978499989490956,,,,,,,,,,,,,,None,0.19722222222222222,-0.005555555555555556,465665,001,2023-02-23_22h30.26.638,expectation_shapes_perceived_time,2022.2.4,60.7682935348308,
1,-300,0.85,met,231,green,red,high_Expectation,,,,,0,42,42,230,0.0021169999963603914,,,,,,,,,,,,,,None,0.19722222222222222,-0.005555555555555556,465665,001,2023-02-23_22h30.26.638,expectation_shapes_perceived_time,2022.2.4,60.7682935348308,
1,-33,0.85,met,92,green,red,high_Expectation,,,,,0,43,43,91,0.0022219999809749424,,,,,,,,,,,,,,None,0.19722222222222222,-0.005555555555555556,465665,001,2023-02-23_22h30.26.638,expectation_shapes_perceived_time,2022.2.4,60.7682935348308,
1,-300,0.85,met,72,green,red,high_Expectation,,,,,0,44,44,71,0.002057400008197874,,,,,,,,,,,,,,None,0.19722222222222222,-0.005555555555555556,465665,001,2023-02-23_22h30.26.638,expectation_shapes_perceived_time,2022.2.4,60.7682935348308,
1,-233,0.85,met,38,green,red,high_Expectation,,,,,0,45,45,37,0.0018034999957308173,,,,,,,,,,,,,,None,0.19722222222222222,-0.005555555555555556,465665,001,2023-02-23_22h30.26.638,expectation_shapes_perceived_time,2022.2.4,60.7682935348308,
1,300,0.85,met,167,green,red,high_Expectation,,,,,0,46,46,166,0.0013844000059179962,,,,,,,,,,,,,,None,0.19722222222222222,-0.005555555555555556,465665,001,2023-02-23_22h30.26.638,expectation_shapes_perceived_time,2022.2.4,60.7682935348308,
1,-33,0.85,met,34,green,red,high_Expectation,,,,,0,47,47,33,0.0014475000207312405,,,,,,,,,,,,,,None,0.19722222222222222,-0.005555555555555556,465665,001,2023-02-23_22h30.26.638,expectation_shapes_perceived_time,2022.2.4,60.7682935348308,
1,-300,0.85,met,221,green,red,high_Expectation,,,,,0,48,48,220,0.0014338000328280032,,,,,,,,,,,,,,None,0.19722222222222222,-0.005555555555555556,465665,001,2023-02-23_22h30.26.638,expectation_shapes_perceived_time,2022.2.4,60.7682935348308,
1,33,0.85,met,46,green,red,high_Expectation,,,,,0,49,49,45,0.0015679000061936677,,,,,,,,,,,,,,None,0.19722222222222222,-0.005555555555555556,465665,001,2023-02-23_22h30.26.638,expectation_shapes_perceived_time,2022.2.4,60.7682935348308,
1,100,0.85,met,240,green,red,high_Expectation,,,,,0,50,50,239,0.001368700002785772,,,,,,,,,,,,,,None,0.19722222222222222,-0.005555555555555556,465665,001,2023-02-23_22h30.26.638,expectation_shapes_perceived_time,2022.2.4,60.7682935348308,
1,-233,0.15,unmet,1,red,green,high_Expectation,,,,,0,51,51,0,0.0013821999891661108,,,,,,,,,,,,,,None,0.19722222222222222,-0.005555555555555556,465665,001,2023-02-23_22h30.26.638,expectation_shapes_perceived_time,2022.2.4,60.7682935348308,
1,300,0.85,met,75,green,red,high_Expectation,,,,,0,52,52,74,0.001334700034931302,,,,,,,,,,,,,,None,0.19722222222222222,-0.005555555555555556,465665,001,2023-02-23_22h30.26.638,expectation_shapes_perceived_time,2022.2.4,60.7682935348308,
1,-300,0.85,met,118,green,red,high_Expectation,,,,,0,53,53,117,0.0012711999588645995,,,,,,,,,,,,,,None,0.19722222222222222,-0.005555555555555556,465665,001,2023-02-23_22h30.26.638,expectation_shapes_perceived_time,2022.2.4,60.7682935348308,
1,-33,0.85,met,236,green,red,high_Expectation,,,,,0,54,54,235,0.0012280000373721123,,,,,,,,,,,,,,None,0.19722222222222222,-0.005555555555555556,465665,001,2023-02-23_22h30.26.638,expectation_shapes_perceived_time,2022.2.4,60.7682935348308,
1,-167,0.15,unmet,223,red,green,high_Expectation,,,,,0,55,55,222,0.00115130003541708,,,,,,,,,,,,,,None,0.19722222222222222,-0.005555555555555556,465665,001,2023-02-23_22h30.26.638,expectation_shapes_perceived_time,2022.2.4,60.7682935348308,
1,300,0.15,unmet,298,red,green,high_Expectation,,,,,0,56,56,297,0.0011221999884583056,,,,,,,,,,,,,,None,0.19722222222222222,-0.005555555555555556,465665,001,2023-02-23_22h30.26.638,expectation_shapes_perceived_time,2022.2.4,60.7682935348308,
1,100,0.85,met,292,green,red,high_Expectation,,,,,0,57,57,291,0.0011788999545387924,,,,,,,,,,,,,,None,0.19722222222222222,-0.005555555555555556,465665,001,2023-02-23_22h30.26.638,expectation_shapes_perceived_time,2022.2.4,60.7682935348308,
1,-300,0.85,met,48,green,red,high_Expectation,,,,,0,58,58,47,0.0011272999690845609,,,,,,,,,,,,,,None,0.19722222222222222,-0.005555555555555556,465665,001,2023-02-23_22h30.26.638,expectation_shapes_perceived_time,2022.2.4,60.7682935348308,
1,-100,0.85,met,287,green,red,high_Expectation,,,,,0,59,59,286,0.001185000000987202,,,,,,,,,,,,,,None,0.19722222222222222,-0.005555555555555556,465665,001,2023-02-23_22h30.26.638,expectation_shapes_perceived_time,2022.2.4,60.7682935348308,
1,167,0.85,met,89,green,red,high_Expectation,,,,,0,60,60,88,0.0010924999951384962,,,,,,,,,,,,,,None,0.19722222222222222,-0.005555555555555556,465665,001,2023-02-23_22h30.26.638,expectation_shapes_perceived_time,2022.2.4,60.7682935348308,
1,-167,0.85,met,137,green,red,high_Expectation,,,,,0,61,61,136,0.001111700024921447,,,,,,,,,,,,,,None,0.19722222222222222,-0.005555555555555556,465665,001,2023-02-23_22h30.26.638,expectation_shapes_perceived_time,2022.2.4,60.7682935348308,
1,-33,0.85,met,202,green,red,high_Expectation,,,,,0,62,62,201,0.001135299971792847,,,,,,,,,,,,,,None,0.19722222222222222,-0.005555555555555556,465665,001,2023-02-23_22h30.26.638,expectation_shapes_perceived_time,2022.2.4,60.7682935348308,
1,-300,0.85,met,164,green,red,high_Expectation,,,,,0,63,63,163,0.0012027000193484128,,,,,,,,,,,,,,None,0.19722222222222222,-0.005555555555555556,465665,001,2023-02-23_22h30.26.638,expectation_shapes_perceived_time,2022.2.4,60.7682935348308,
1,300,0.85,met,51,green,red,high_Expectation,,,,,0,64,64,50,0.0011630000080913305,,,,,,,,,,,,,,None,0.19722222222222222,-0.005555555555555556,465665,001,2023-02-23_22h30.26.638,expectation_shapes_perceived_time,2022.2.4,60.7682935348308,
1,-167,0.85,met,71,green,red,high_Expectation,,,,,0,65,65,70,0.0011818999773822725,,,,,,,,,,,,,,None,0.19722222222222222,-0.005555555555555556,465665,001,2023-02-23_22h30.26.638,expectation_shapes_perceived_time,2022.2.4,60.7682935348308,
1,-167,0.15,unmet,105,red,green,high_Expectation,,,,,0,66,66,104,0.0011443000403232872,,,,,,,,,,,,,,None,0.19722222222222222,-0.005555555555555556,465665,001,2023-02-23_22h30.26.638,expectation_shapes_perceived_time,2022.2.4,60.7682935348308,
1,167,0.15,unmet,263,red,green,high_Expectation,,,,,0,67,67,262,0.0013099000207148492,,,,,,,,,,,,,,None,0.19722222222222222,-0.005555555555555556,465665,001,2023-02-23_22h30.26.638,expectation_shapes_perceived_time,2022.2.4,60.7682935348308,
1,167,0.85,met,163,green,red,high_Expectation,,,,,0,68,68,162,0.0011044000275433064,,,,,,,,,,,,,,None,0.19722222222222222,-0.005555555555555556,465665,001,2023-02-23_22h30.26.638,expectation_shapes_perceived_time,2022.2.4,60.7682935348308,
1,-167,0.85,met,165,green,red,high_Expectation,,,,,0,69,69,164,0.001132100005634129,,,,,,,,,,,,,,None,0.19722222222222222,-0.005555555555555556,465665,001,2023-02-23_22h30.26.638,expectation_shapes_perceived_time,2022.2.4,60.7682935348308,
1,-33,0.85,met,125,green,red,high_Expectation,,,,,0,70,70,124,0.001110800018068403,,,,,,,,,,,,,,None,0.19722222222222222,-0.005555555555555556,465665,001,2023-02-23_22h30.26.638,expectation_shapes_perceived_time,2022.2.4,60.7682935348308,
1,33,0.85,met,205,green,red,high_Expectation,,,,,0,71,71,204,0.001091900048777461,,,,,,,,,,,,,,None,0.19722222222222222,-0.005555555555555556,465665,001,2023-02-23_22h30.26.638,expectation_shapes_perceived_time,2022.2.4,60.7682935348308,
1,-233,0.85,met,178,green,red,high_Expectation,,,,,0,72,72,177,0.0011110000195913017,,,,,,,,,,,,,,None,0.19722222222222222,-0.005555555555555556,465665,001,2023-02-23_22h30.26.638,expectation_shapes_perceived_time,2022.2.4,60.7682935348308,
1,-100,0.85,met,218,green,red,high_Expectation,,,,,0,73,73,217,0.0011680000461637974,,,,,,,,,,,,,,None,0.19722222222222222,-0.005555555555555556,465665,001,2023-02-23_22h30.26.638,expectation_shapes_perceived_time,2022.2.4,60.7682935348308,
1,167,0.15,unmet,70,red,green,high_Expectation,,,,,0,74,74,69,0.0011904000421054661,,,,,,,,,,,,,,None,0.19722222222222222,-0.005555555555555556,465665,001,2023-02-23_22h30.26.638,expectation_shapes_perceived_time,2022.2.4,60.7682935348308,
1,-167,0.85,met,268,green,red,high_Expectation,,,,,0,75,75,267,0.001095999963581562,,,,,,,,,,,,,,None,0.19722222222222222,-0.005555555555555556,465665,001,2023-02-23_22h30.26.638,expectation_shapes_perceived_time,2022.2.4,60.7682935348308,
1,-167,0.85,met,126,green,red,high_Expectation,,,,,0,76,76,125,0.0011480000102892518,,,,,,,,,,,,,,None,0.19722222222222222,-0.005555555555555556,465665,001,2023-02-23_22h30.26.638,expectation_shapes_perceived_time,2022.2.4,60.7682935348308,
1,300,0.85,met,28,green,red,high_Expectation,,,,,0,77,77,27,0.001112600031774491,,,,,,,,,,,,,,None,0.19722222222222222,-0.005555555555555556,465665,001,2023-02-23_22h30.26.638,expectation_shapes_perceived_time,2022.2.4,60.7682935348308,
1,300,0.15,unmet,148,red,green,high_Expectation,,,,,0,78,78,147,0.0011189000215381384,,,,,,,,,,,,,,None,0.19722222222222222,-0.005555555555555556,465665,001,2023-02-23_22h30.26.638,expectation_shapes_perceived_time,2022.2.4,60.7682935348308,
1,233,0.85,met,45,green,red,high_Expectation,,,,,0,79,79,44,0.0011036999640055,,,,,,,,,,,,,,None,0.19722222222222222,-0.005555555555555556,465665,001,2023-02-23_22h30.26.638,expectation_shapes_perceived_time,2022.2.4,60.7682935348308,
1,233,0.85,met,21,green,red,high_Expectation,,,,,0,80,80,20,0.0011463999981060624,,,,,,,,,,,,,,None,0.19722222222222222,-0.005555555555555556,465665,001,2023-02-23_22h30.26.638,expectation_shapes_perceived_time,2022.2.4,60.7682935348308,
1,-100,0.15,unmet,93,red,green,high_Expectation,,,,,0,81,81,92,0.0010273000225424767,,,,,,,,,,,,,,None,0.19722222222222222,-0.005555555555555556,465665,001,2023-02-23_22h30.26.638,expectation_shapes_perceived_time,2022.2.4,60.7682935348308,
1,-33,0.85,met,144,green,red,high_Expectation,,,,,0,82,82,143,0.0012123999767936766,,,,,,,,,,,,,,None,0.19722222222222222,-0.005555555555555556,465665,001,2023-02-23_22h30.26.638,expectation_shapes_perceived_time,2022.2.4,60.7682935348308,
1,-233,0.85,met,107,green,red,high_Expectation,,,,,0,83,83,106,0.001136499980930239,,,,,,,,,,,,,,None,0.19722222222222222,-0.005555555555555556,465665,001,2023-02-23_22h30.26.638,expectation_shapes_perceived_time,2022.2.4,60.7682935348308,
1,100,0.85,met,18,green,red,high_Expectation,,,,,0,84,84,17,0.001101900008507073,,,,,,,,,,,,,,None,0.19722222222222222,-0.005555555555555556,465665,001,2023-02-23_22h30.26.638,expectation_shapes_perceived_time,2022.2.4,60.7682935348308,
1,100,0.85,met,74,green,red,high_Expectation,,,,,0,85,85,73,0.0011300999904051423,,,,,,,,,,,,,,None,0.19722222222222222,-0.005555555555555556,465665,001,2023-02-23_22h30.26.638,expectation_shapes_perceived_time,2022.2.4,60.7682935348308,
1,-300,0.85,met,244,green,red,high_Expectation,,,,,0,86,86,243,0.0011916999937966466,,,,,,,,,,,,,,None,0.19722222222222222,-0.005555555555555556,465665,001,2023-02-23_22h30.26.638,expectation_shapes_perceived_time,2022.2.4,60.7682935348308,
1,167,0.15,unmet,198,red,green,high_Expectation,,,,,0,87,87,197,0.0011239000014029443,,,,,,,,,,,,,,None,0.19722222222222222,-0.005555555555555556,465665,001,2023-02-23_22h30.26.638,expectation_shapes_perceived_time,2022.2.4,60.7682935348308,
1,167,0.85,met,50,green,red,high_Expectation,,,,,0,88,88,49,0.0010873000137507915,,,,,,,,,,,,,,None,0.19722222222222222,-0.005555555555555556,465665,001,2023-02-23_22h30.26.638,expectation_shapes_perceived_time,2022.2.4,60.7682935348308,
1,-33,0.85,met,247,green,red,high_Expectation,,,,,0,89,89,246,0.0011712000123225152,,,,,,,,,,,,,,None,0.19722222222222222,-0.005555555555555556,465665,001,2023-02-23_22h30.26.638,expectation_shapes_perceived_time,2022.2.4,60.7682935348308,
1,33,0.85,met,272,green,red,high_Expectation,,,,,0,90,90,271,0.0011009000008925796,,,,,,,,,,,,,,None,0.19722222222222222,-0.005555555555555556,465665,001,2023-02-23_22h30.26.638,expectation_shapes_perceived_time,2022.2.4,60.7682935348308,
1,-167,0.85,met,156,green,red,high_Expectation,,,,,0,91,91,155,0.001096600026357919,,,,,,,,,,,,,,None,0.19722222222222222,-0.005555555555555556,465665,001,2023-02-23_22h30.26.638,expectation_shapes_perceived_time,2022.2.4,60.7682935348308,
1,300,0.85,met,204,green,red,high_Expectation,,,,,0,92,92,203,0.0011684999917633832,,,,,,,,,,,,,,None,0.19722222222222222,-0.005555555555555556,465665,001,2023-02-23_22h30.26.638,expectation_shapes_perceived_time,2022.2.4,60.7682935348308,
1,-300,0.85,met,243,green,red,high_Expectation,,,,,0,93,93,242,0.0011047999723814428,,,,,,,,,,,,,,None,0.19722222222222222,-0.005555555555555556,465665,001,2023-02-23_22h30.26.638,expectation_shapes_perceived_time,2022.2.4,60.7682935348308,
1,233,0.85,met,234,green,red,high_Expectation,,,,,0,94,94,233,0.0011410000151954591,,,,,,,,,,,,,,None,0.19722222222222222,-0.005555555555555556,465665,001,2023-02-23_22h30.26.638,expectation_shapes_perceived_time,2022.2.4,60.7682935348308,
1,-33,0.85,met,115,green,red,high_Expectation,,,,,0,95,95,114,0.0011056999792344868,,,,,,,,,,,,,,None,0.19722222222222222,-0.005555555555555556,465665,001,2023-02-23_22h30.26.638,expectation_shapes_perceived_time,2022.2.4,60.7682935348308,
1,33,0.15,unmet,213,red,green,high_Expectation,,,,,0,96,96,212,0.0012428000336512923,,,,,,,,,,,,,,None,0.19722222222222222,-0.005555555555555556,465665,001,2023-02-23_22h30.26.638,expectation_shapes_perceived_time,2022.2.4,60.7682935348308,
1,-167,0.85,met,299,green,red,high_Expectation,,,,,0,97,97,298,0.0011225000489503145,,,,,,,,,,,,,,None,0.19722222222222222,-0.005555555555555556,465665,001,2023-02-23_22h30.26.638,expectation_shapes_perceived_time,2022.2.4,60.7682935348308,
1,300,0.85,met,180,green,red,high_Expectation,,,,,0,98,98,179,0.0011324999504722655,,,,,,,,,,,,,,None,0.19722222222222222,-0.005555555555555556,465665,001,2023-02-23_22h30.26.638,expectation_shapes_perceived_time,2022.2.4,60.7682935348308,
1,167,0.15,unmet,224,red,green,high_Expectation,,,,,0,99,99,223,0.0011357000330463052,,,,,,,,,,,,,,None,0.19722222222222222,-0.005555555555555556,465665,001,2023-02-23_22h30.26.638,expectation_shapes_perceived_time,2022.2.4,60.7682935348308,
1,233,0.85,met,251,green,red,high_Expectation,,,,,0,100,100,250,0.0010855000000447035,,,,,,,,,,,,,,None,0.19722222222222222,-0.005555555555555556,465665,001,2023-02-23_22h30.26.638,expectation_shapes_perceived_time,2022.2.4,60.7682935348308,
1,-100,0.15,unmet,30,red,green,high_Expectation,,,,,0,101,101,29,0.0011585000320337713,,,,,,,,,,,,,,None,0.19722222222222222,-0.005555555555555556,465665,001,2023-02-23_22h30.26.638,expectation_shapes_perceived_time,2022.2.4,60.7682935348308,
1,-300,0.85,met,252,green,red,high_Expectation,,,,,0,102,102,251,0.00115870003355667,,,,,,,,,,,,,,None,0.19722222222222222,-0.005555555555555556,465665,001,2023-02-23_22h30.26.638,expectation_shapes_perceived_time,2022.2.4,60.7682935348308,
1,-167,0.85,met,211,green,red,high_Expectation,,,,,0,103,103,210,0.0011316000018268824,,,,,,,,,,,,,,None,0.19722222222222222,-0.005555555555555556,465665,001,2023-02-23_22h30.26.638,expectation_shapes_perceived_time,2022.2.4,60.7682935348308,
1,33,0.85,met,201,green,red,high_Expectation,,,,,0,104,104,200,0.0012836999958381057,,,,,,,,,,,,,,None,0.19722222222222222,-0.005555555555555556,465665,001,2023-02-23_22h30.26.638,expectation_shapes_perceived_time,2022.2.4,60.7682935348308,
1,300,0.85,met,106,green,red,high_Expectation,,,,,0,105,105,105,0.0011223999899812043,,,,,,,,,,,,,,None,0.19722222222222222,-0.005555555555555556,465665,001,2023-02-23_22h30.26.638,expectation_shapes_perceived_time,2022.2.4,60.7682935348308,
1,-33,0.85,met,258,green,red,high_Expectation,,,,,0,106,106,257,0.0011617999989539385,,,,,,,,,,,,,,None,0.19722222222222222,-0.005555555555555556,465665,001,2023-02-23_22h30.26.638,expectation_shapes_perceived_time,2022.2.4,60.7682935348308,
1,-300,0.85,met,39,green,red,high_Expectation,,,,,0,107,107,38,0.0010890000266954303,,,,,,,,,,,,,,None,0.19722222222222222,-0.005555555555555556,465665,001,2023-02-23_22h30.26.638,expectation_shapes_perceived_time,2022.2.4,60.7682935348308,
1,300,0.85,met,23,green,red,high_Expectation,,,,,0,108,108,22,0.001140400010626763,,,,,,,,,,,,,,None,0.19722222222222222,-0.005555555555555556,465665,001,2023-02-23_22h30.26.638,expectation_shapes_perceived_time,2022.2.4,60.7682935348308,
1,-233,0.85,met,216,green,red,high_Expectation,,,,,0,109,109,215,0.0010990999871864915,,,,,,,,,,,,,,None,0.19722222222222222,-0.005555555555555556,465665,001,2023-02-23_22h30.26.638,expectation_shapes_perceived_time,2022.2.4,60.7682935348308,
1,100,0.85,met,68,green,red,high_Expectation,,,,,0,110,110,67,0.0011076999944634736,,,,,,,,,,,,,,None,0.19722222222222222,-0.005555555555555556,465665,001,2023-02-23_22h30.26.638,expectation_shapes_perceived_time,2022.2.4,60.7682935348308,
1,-167,0.85,met,227,green,red,high_Expectation,,,,,0,111,111,226,0.0011260000173933804,,,,,,,,,,,,,,None,0.19722222222222222,-0.005555555555555556,465665,001,2023-02-23_22h30.26.638,expectation_shapes_perceived_time,2022.2.4,60.7682935348308,
1,33,0.85,met,69,green,red,high_Expectation,,,,,0,112,112,68,0.0010925999958999455,,,,,,,,,,,,,,None,0.19722222222222222,-0.005555555555555556,465665,001,2023-02-23_22h30.26.638,expectation_shapes_perceived_time,2022.2.4,60.7682935348308,
1,-100,0.85,met,250,green,red,high_Expectation,,,,,0,113,113,249,0.0012496000272221863,,,,,,,,,,,,,,None,0.19722222222222222,-0.005555555555555556,465665,001,2023-02-23_22h30.26.638,expectation_shapes_perceived_time,2022.2.4,60.7682935348308,
1,33,0.85,met,29,green,red,high_Expectation,,,,,0,114,114,28,0.0011593999806791544,,,,,,,,,,,,,,None,0.19722222222222222,-0.005555555555555556,465665,001,2023-02-23_22h30.26.638,expectation_shapes_perceived_time,2022.2.4,60.7682935348308,
1,167,0.85,met,79,green,red,high_Expectation,,,,,0,115,115,78,0.001292100001592189,,,,,,,,,,,,,,None,0.19722222222222222,-0.005555555555555556,465665,001,2023-02-23_22h30.26.638,expectation_shapes_perceived_time,2022.2.4,60.7682935348308,
1,-233,0.85,met,55,green,red,high_Expectation,,,,,0,116,116,54,0.001143899979069829,,,,,,,,,,,,,,None,0.19722222222222222,-0.005555555555555556,465665,001,2023-02-23_22h30.26.638,expectation_shapes_perceived_time,2022.2.4,60.7682935348308,
1,233,0.85,met,281,green,red,high_Expectation,,,,,0,117,117,280,0.001021199976094067,,,,,,,,,,,,,,None,0.19722222222222222,-0.005555555555555556,465665,001,2023-02-23_22h30.26.638,expectation_shapes_perceived_time,2022.2.4,60.7682935348308,
1,33,0.15,unmet,84,red,green,high_Expectation,,,,,0,118,118,83,0.0011693999986164272,,,,,,,,,,,,,,None,0.19722222222222222,-0.005555555555555556,465665,001,2023-02-23_22h30.26.638,expectation_shapes_perceived_time,2022.2.4,60.7682935348308,
1,-167,0.85,met,150,green,red,high_Expectation,,,,,0,119,119,149,0.0010869000107049942,,,,,,,,,,,,,,None,0.19722222222222222,-0.005555555555555556,465665,001,2023-02-23_22h30.26.638,expectation_shapes_perceived_time,2022.2.4,60.7682935348308,
1,167,0.85,met,49,green,red,high_Expectation,,,,,0,120,120,48,0.001080900023225695,,,,,,,,,,,,,,None,0.19722222222222222,-0.005555555555555556,465665,001,2023-02-23_22h30.26.638,expectation_shapes_perceived_time,2022.2.4,60.7682935348308,
1,300,0.85,met,24,green,red,high_Expectation,,,,,0,121,121,23,0.001115199993364513,,,,,,,,,,,,,,None,0.19722222222222222,-0.005555555555555556,465665,001,2023-02-23_22h30.26.638,expectation_shapes_perceived_time,2022.2.4,60.7682935348308,
1,-100,0.85,met,175,green,red,high_Expectation,,,,,0,122,122,174,0.0012002000003121793,,,,,,,,,,,,,,None,0.19722222222222222,-0.005555555555555556,465665,001,2023-02-23_22h30.26.638,expectation_shapes_perceived_time,2022.2.4,60.7682935348308,
1,-33,0.85,met,294,green,red,high_Expectation,,,,,0,123,123,293,0.0011448999866843224,,,,,,,,,,,,,,None,0.19722222222222222,-0.005555555555555556,465665,001,2023-02-23_22h30.26.638,expectation_shapes_perceived_time,2022.2.4,60.7682935348308,
1,167,0.15,unmet,174,red,green,high_Expectation,,,,,0,124,124,173,0.0010746000334620476,,,,,,,,,,,,,,None,0.19722222222222222,-0.005555555555555556,465665,001,2023-02-23_22h30.26.638,expectation_shapes_perceived_time,2022.2.4,60.7682935348308,
1,300,0.15,unmet,98,red,green,high_Expectation,,,,,0,125,125,97,0.0012534999987110496,,,,,,,,,,,,,,None,0.19722222222222222,-0.005555555555555556,465665,001,2023-02-23_22h30.26.638,expectation_shapes_perceived_time,2022.2.4,60.7682935348308,
1,-233,0.85,met,181,green,red,high_Expectation,,,,,0,126,126,180,0.0011294999858364463,,,,,,,,,,,,,,None,0.19722222222222222,-0.005555555555555556,465665,001,2023-02-23_22h30.26.638,expectation_shapes_perceived_time,2022.2.4,60.7682935348308,
1,-33,0.85,met,60,green,red,high_Expectation,,,,,0,127,127,59,0.0013630000175908208,,,,,,,,,,,,,,None,0.19722222222222222,-0.005555555555555556,465665,001,2023-02-23_22h30.26.638,expectation_shapes_perceived_time,2022.2.4,60.7682935348308,
1,100,0.85,met,140,green,red,high_Expectation,,,,,0,128,128,139,0.0010813999688252807,,,,,,,,,,,,,,None,0.19722222222222222,-0.005555555555555556,465665,001,2023-02-23_22h30.26.638,expectation_shapes_perceived_time,2022.2.4,60.7682935348308,
1,100,0.85,met,232,green,red,high_Expectation,,,,,0,129,129,231,0.0010959000210277736,,,,,,,,,,,,,,None,0.19722222222222222,-0.005555555555555556,465665,001,2023-02-23_22h30.26.638,expectation_shapes_perceived_time,2022.2.4,60.7682935348308,
1,-233,0.85,met,170,green,red,high_Expectation,,,,,0,130,130,169,0.0011789000127464533,,,,,,,,,,,,,,None,0.19722222222222222,-0.005555555555555556,465665,001,2023-02-23_22h30.26.638,expectation_shapes_perceived_time,2022.2.4,60.7682935348308,
1,-33,0.85,met,112,green,red,high_Expectation,,,,,0,131,131,111,0.0011245000059716403,,,,,,,,,,,,,,None,0.19722222222222222,-0.005555555555555556,465665,001,2023-02-23_22h30.26.638,expectation_shapes_perceived_time,2022.2.4,60.7682935348308,
1,-33,0.85,met,212,green,red,high_Expectation,,,,,0,132,132,211,0.0010650000185705721,,,,,,,,,,,,,,None,0.19722222222222222,-0.005555555555555556,465665,001,2023-02-23_22h30.26.638,expectation_shapes_perceived_time,2022.2.4,60.7682935348308,
1,300,0.85,met,61,green,red,high_Expectation,,,,,0,133,133,60,0.0010460999910719693,,,,,,,,,,,,,,None,0.19722222222222222,-0.005555555555555556,465665,001,2023-02-23_22h30.26.638,expectation_shapes_perceived_time,2022.2.4,60.7682935348308,
1,-33,0.85,met,117,green,red,high_Expectation,,,,,0,134,134,116,0.0012978999875485897,,,,,,,,,,,,,,None,0.19722222222222222,-0.005555555555555556,465665,001,2023-02-23_22h30.26.638,expectation_shapes_perceived_time,2022.2.4,60.7682935348308,
1,167,0.15,unmet,237,red,green,high_Expectation,,,,,0,135,135,236,0.0011857000063173473,,,,,,,,,,,,,,None,0.19722222222222222,-0.005555555555555556,465665,001,2023-02-23_22h30.26.638,expectation_shapes_perceived_time,2022.2.4,60.7682935348308,
1,167,0.85,met,246,green,red,high_Expectation,,,,,0,136,136,245,0.001488200039602816,,,,,,,,,,,,,,None,0.19722222222222222,-0.005555555555555556,465665,001,2023-02-23_22h30.26.638,expectation_shapes_perceived_time,2022.2.4,60.7682935348308,
1,-300,0.85,met,172,green,red,high_Expectation,,,,,0,137,137,171,0.0011329999542795122,,,,,,,,,,,,,,None,0.19722222222222222,-0.005555555555555556,465665,001,2023-02-23_22h30.26.638,expectation_shapes_perceived_time,2022.2.4,60.7682935348308,
1,-100,0.85,met,64,green,red,high_Expectation,,,,,0,138,138,63,0.0011065999860875309,,,,,,,,,,,,,,None,0.19722222222222222,-0.005555555555555556,465665,001,2023-02-23_22h30.26.638,expectation_shapes_perceived_time,2022.2.4,60.7682935348308,
1,-100,0.85,met,26,green,red,high_Expectation,,,,,0,139,139,25,0.001101000001654029,,,,,,,,,,,,,,None,0.19722222222222222,-0.005555555555555556,465665,001,2023-02-23_22h30.26.638,expectation_shapes_perceived_time,2022.2.4,60.7682935348308,
1,-167,0.85,met,6,green,red,high_Expectation,,,,,0,140,140,5,0.0011897999793291092,,,,,,,,,,,,,,None,0.19722222222222222,-0.005555555555555556,465665,001,2023-02-23_22h30.26.638,expectation_shapes_perceived_time,2022.2.4,60.7682935348308,
1,-233,0.85,met,133,green,red,high_Expectation,,,,,0,141,141,132,0.00122819998068735,,,,,,,,,,,,,,None,0.19722222222222222,-0.005555555555555556,465665,001,2023-02-23_22h30.26.638,expectation_shapes_perceived_time,2022.2.4,60.7682935348308,
1,233,0.85,met,77,green,red,high_Expectation,,,,,0,142,142,76,0.0011409000144340098,,,,,,,,,,,,,,None,0.19722222222222222,-0.005555555555555556,465665,001,2023-02-23_22h30.26.638,expectation_shapes_perceived_time,2022.2.4,60.7682935348308,
1,300,0.85,met,32,green,red,high_Expectation,,,,,0,143,143,31,0.001188600028399378,,,,,,,,,,,,,,None,0.19722222222222222,-0.005555555555555556,465665,001,2023-02-23_22h30.26.638,expectation_shapes_perceived_time,2022.2.4,60.7682935348308,
1,33,0.15,unmet,267,red,green,high_Expectation,,,,,0,144,144,266,0.0011844999971799552,,,,,,,,,,,,,,None,0.19722222222222222,-0.005555555555555556,465665,001,2023-02-23_22h30.26.638,expectation_shapes_perceived_time,2022.2.4,60.7682935348308,
1,233,0.85,met,152,green,red,high_Expectation,,,,,0,145,145,151,0.001124100002925843,,,,,,,,,,,,,,None,0.19722222222222222,-0.005555555555555556,465665,001,2023-02-23_22h30.26.638,expectation_shapes_perceived_time,2022.2.4,60.7682935348308,
1,-100,0.85,met,82,green,red,high_Expectation,,,,,0,146,146,81,0.001172600022982806,,,,,,,,,,,,,,None,0.19722222222222222,-0.005555555555555556,465665,001,2023-02-23_22h30.26.638,expectation_shapes_perceived_time,2022.2.4,60.7682935348308,
1,233,0.85,met,90,green,red,high_Expectation,,,,,0,147,147,89,0.0011127000325359404,,,,,,,,,,,,,,None,0.19722222222222222,-0.005555555555555556,465665,001,2023-02-23_22h30.26.638,expectation_shapes_perceived_time,2022.2.4,60.7682935348308,
1,-300,0.85,met,114,green,red,high_Expectation,,,,,0,148,148,113,0.0010863000061362982,,,,,,,,,,,,,,None,0.19722222222222222,-0.005555555555555556,465665,001,2023-02-23_22h30.26.638,expectation_shapes_perceived_time,2022.2.4,60.7682935348308,
1,233,0.85,met,73,green,red,high_Expectation,,,,,0,149,149,72,0.0011770999990403652,,,,,,,,,,,,,,None,0.19722222222222222,-0.005555555555555556,465665,001,2023-02-23_22h30.26.638,expectation_shapes_perceived_time,2022.2.4,60.7682935348308,
1,-233,0.85,met,65,green,red,high_Expectation,,,,,0,150,150,64,0.0011754999868571758,,,,,,,,,,,,,,None,0.19722222222222222,-0.005555555555555556,465665,001,2023-02-23_22h30.26.638,expectation_shapes_perceived_time,2022.2.4,60.7682935348308,
1,233,0.85,met,186,green,red,high_Expectation,,,,,0,151,151,185,0.0011597999837249517,,,,,,,,,,,,,,None,0.19722222222222222,-0.005555555555555556,465665,001,2023-02-23_22h30.26.638,expectation_shapes_perceived_time,2022.2.4,60.7682935348308,
1,100,0.85,met,235,green,red,high_Expectation,,,,,0,152,152,234,0.0012021000147797167,,,,,,,,,,,,,,None,0.19722222222222222,-0.005555555555555556,465665,001,2023-02-23_22h30.26.638,expectation_shapes_perceived_time,2022.2.4,60.7682935348308,
1,-300,0.85,met,20,green,red,high_Expectation,,,,,0,153,153,19,0.0012476000119931996,,,,,,,,,,,,,,None,0.19722222222222222,-0.005555555555555556,465665,001,2023-02-23_22h30.26.638,expectation_shapes_perceived_time,2022.2.4,60.7682935348308,
1,-33,0.85,met,9,green,red,high_Expectation,,,,,0,154,154,8,0.0011295000440441072,,,,,,,,,,,,,,None,0.19722222222222222,-0.005555555555555556,465665,001,2023-02-23_22h30.26.638,expectation_shapes_perceived_time,2022.2.4,60.7682935348308,
1,100,0.85,met,132,green,red,high_Expectation,,,,,0,155,155,131,0.0011928000021725893,,,,,,,,,,,,,,None,0.19722222222222222,-0.005555555555555556,465665,001,2023-02-23_22h30.26.638,expectation_shapes_perceived_time,2022.2.4,60.7682935348308,
1,-300,0.85,met,96,green,red,high_Expectation,,,,,0,156,156,95,0.0011351000284776092,,,,,,,,,,,,,,None,0.19722222222222222,-0.005555555555555556,465665,001,2023-02-23_22h30.26.638,expectation_shapes_perceived_time,2022.2.4,60.7682935348308,
1,300,0.15,unmet,255,red,green,high_Expectation,,,,,0,157,157,254,0.001153399993199855,,,,,,,,,,,,,,None,0.19722222222222222,-0.005555555555555556,465665,001,2023-02-23_22h30.26.638,expectation_shapes_perceived_time,2022.2.4,60.7682935348308,
1,-100,0.85,met,249,green,red,high_Expectation,,,,,0,158,158,248,0.0011508999741636217,,,,,,,,,,,,,,None,0.19722222222222222,-0.005555555555555556,465665,001,2023-02-23_22h30.26.638,expectation_shapes_perceived_time,2022.2.4,60.7682935348308,
1,300,0.15,unmet,129,red,green,high_Expectation,,,,,0,159,159,128,0.0011954999645240605,,,,,,,,,,,,,,None,0.19722222222222222,-0.005555555555555556,465665,001,2023-02-23_22h30.26.638,expectation_shapes_perceived_time,2022.2.4,60.7682935348308,
1,-300,0.85,met,120,green,red,high_Expectation,,,,,0,160,160,119,0.001125300012063235,,,,,,,,,,,,,,None,0.19722222222222222,-0.005555555555555556,465665,001,2023-02-23_22h30.26.638,expectation_shapes_perceived_time,2022.2.4,60.7682935348308,
1,100,0.85,met,147,green,red,high_Expectation,,,,,0,161,161,146,0.0011212999816052616,,,,,,,,,,,,,,None,0.19722222222222222,-0.005555555555555556,465665,001,2023-02-23_22h30.26.638,expectation_shapes_perceived_time,2022.2.4,60.7682935348308,
1,233,0.85,met,104,green,red,high_Expectation,,,,,0,162,162,103,0.001297099981456995,,,,,,,,,,,,,,None,0.19722222222222222,-0.005555555555555556,465665,001,2023-02-23_22h30.26.638,expectation_shapes_perceived_time,2022.2.4,60.7682935348308,
1,-300,0.85,met,111,green,red,high_Expectation,,,,,0,163,163,110,0.0012678999919444323,,,,,,,,,,,,,,None,0.19722222222222222,-0.005555555555555556,465665,001,2023-02-23_22h30.26.638,expectation_shapes_perceived_time,2022.2.4,60.7682935348308,
1,-233,0.85,met,195,green,red,high_Expectation,,,,,0,164,164,194,0.001151000033132732,,,,,,,,,,,,,,None,0.19722222222222222,-0.005555555555555556,465665,001,2023-02-23_22h30.26.638,expectation_shapes_perceived_time,2022.2.4,60.7682935348308,
1,300,0.15,unmet,16,red,green,high_Expectation,,,,,0,165,165,15,0.001188600028399378,,,,,,,,,,,,,,None,0.19722222222222222,-0.005555555555555556,465665,001,2023-02-23_22h30.26.638,expectation_shapes_perceived_time,2022.2.4,60.7682935348308,
1,-33,0.85,met,208,green,red,high_Expectation,,,,,0,166,166,207,0.001299199997447431,,,,,,,,,,,,,,None,0.19722222222222222,-0.005555555555555556,465665,001,2023-02-23_22h30.26.638,expectation_shapes_perceived_time,2022.2.4,60.7682935348308,
1,100,0.85,met,7,green,red,high_Expectation,,,,,0,167,167,6,0.001089200028218329,,,,,,,,,,,,,,None,0.19722222222222222,-0.005555555555555556,465665,001,2023-02-23_22h30.26.638,expectation_shapes_perceived_time,2022.2.4,60.7682935348308,
1,100,0.85,met,83,green,red,high_Expectation,,,,,0,168,168,82,0.0011255000135861337,,,,,,,,,,,,,,None,0.19722222222222222,-0.005555555555555556,465665,001,2023-02-23_22h30.26.638,expectation_shapes_perceived_time,2022.2.4,60.7682935348308,
1,-167,0.85,met,35,green,red,high_Expectation,,,,,0,169,169,34,0.0011184000177308917,,,,,,,,,,,,,,None,0.19722222222222222,-0.005555555555555556,465665,001,2023-02-23_22h30.26.638,expectation_shapes_perceived_time,2022.2.4,60.7682935348308,
1,-300,0.85,met,124,green,red,high_Expectation,,,,,0,170,170,123,0.0011091000051237643,,,,,,,,,,,,,,None,0.19722222222222222,-0.005555555555555556,465665,001,2023-02-23_22h30.26.638,expectation_shapes_perceived_time,2022.2.4,60.7682935348308,
1,-167,0.85,met,3,green,red,high_Expectation,,,,,0,171,171,2,0.0011826000409200788,,,,,,,,,,,,,,None,0.19722222222222222,-0.005555555555555556,465665,001,2023-02-23_22h30.26.638,expectation_shapes_perceived_time,2022.2.4,60.7682935348308,
1,-100,0.85,met,109,green,red,high_Expectation,,,,,0,172,172,108,0.001104600029066205,,,,,,,,,,,,,,None,0.19722222222222222,-0.005555555555555556,465665,001,2023-02-23_22h30.26.638,expectation_shapes_perceived_time,2022.2.4,60.7682935348308,
1,-167,0.85,met,87,green,red,high_Expectation,,,,,0,173,173,86,0.0011017000069841743,,,,,,,,,,,,,,None,0.19722222222222222,-0.005555555555555556,465665,001,2023-02-23_22h30.26.638,expectation_shapes_perceived_time,2022.2.4,60.7682935348308,
1,100,0.85,met,228,green,red,high_Expectation,,,,,0,174,174,227,0.0010866000084206462,,,,,,,,,,,,,,None,0.19722222222222222,-0.005555555555555556,465665,001,2023-02-23_22h30.26.638,expectation_shapes_perceived_time,2022.2.4,60.7682935348308,
1,-167,0.85,met,280,green,red,high_Expectation,,,,,0,175,175,279,0.0011893000337295234,,,,,,,,,,,,,,None,0.19722222222222222,-0.005555555555555556,465665,001,2023-02-23_22h30.26.638,expectation_shapes_perceived_time,2022.2.4,60.7682935348308,
1,167,0.15,unmet,166,red,green,high_Expectation,,,,,0,176,176,165,0.001177600002847612,,,,,,,,,,,,,,None,0.19722222222222222,-0.005555555555555556,465665,001,2023-02-23_22h30.26.638,expectation_shapes_perceived_time,2022.2.4,60.7682935348308,
1,-33,0.85,met,121,green,red,high_Expectation,,,,,0,177,177,120,0.0010865999502129853,,,,,,,,,,,,,,None,0.19722222222222222,-0.005555555555555556,465665,001,2023-02-23_22h30.26.638,expectation_shapes_perceived_time,2022.2.4,60.7682935348308,
1,-167,0.85,met,296,green,red,high_Expectation,,,,,0,178,178,295,0.00118240003939718,,,,,,,,,,,,,,None,0.19722222222222222,-0.005555555555555556,465665,001,2023-02-23_22h30.26.638,expectation_shapes_perceived_time,2022.2.4,60.7682935348308,
1,167,0.85,met,259,green,red,high_Expectation,,,,,0,179,179,258,0.001256599964108318,,,,,,,,,,,,,,None,0.19722222222222222,-0.005555555555555556,465665,001,2023-02-23_22h30.26.638,expectation_shapes_perceived_time,2022.2.4,60.7682935348308,
1,-300,0.85,met,222,green,red,high_Expectation,,,,,0,180,180,221,0.0012224999954923987,,,,,,,,,,,,,,None,0.19722222222222222,-0.005555555555555556,465665,001,2023-02-23_22h30.26.638,expectation_shapes_perceived_time,2022.2.4,60.7682935348308,
1,233,0.85,met,191,green,red,high_Expectation,,,,,0,181,181,190,0.0012283999822102487,,,,,,,,,,,,,,None,0.1986111111111111,-0.005555555555555556,465665,001,2023-02-23_22h30.26.638,expectation_shapes_perceived_time,2022.2.4,60.7682935348308,
1,167,0.85,met,288,green,red,high_Expectation,,,,,0,182,182,287,0.0010585000272840261,,,,,,,,,,,,,,None,0.1986111111111111,-0.005555555555555556,465665,001,2023-02-23_22h30.26.638,expectation_shapes_perceived_time,2022.2.4,60.7682935348308,
1,-167,0.85,met,182,green,red,high_Expectation,,,,,0,183,183,181,0.00105489999987185,,,,,,,,,,,,,,None,0.1986111111111111,-0.005555555555555556,465665,001,2023-02-23_22h30.26.638,expectation_shapes_perceived_time,2022.2.4,60.7682935348308,
1,33,0.85,met,141,green,red,high_Expectation,,,,,0,184,184,140,0.0011832999880425632,,,,,,,,,,,,,,None,0.1986111111111111,-0.005555555555555556,465665,001,2023-02-23_22h30.26.638,expectation_shapes_perceived_time,2022.2.4,60.7682935348308,
1,-100,0.85,met,275,green,red,high_Expectation,,,,,0,185,185,274,0.0010745999752543867,,,,,,,,,,,,,,None,0.1986111111111111,-0.005555555555555556,465665,001,2023-02-23_22h30.26.638,expectation_shapes_perceived_time,2022.2.4,60.7682935348308,
1,167,0.85,met,127,green,red,high_Expectation,,,,,0,186,186,126,0.0010914999875240028,,,,,,,,,,,,,,None,0.1986111111111111,-0.005555555555555556,465665,001,2023-02-23_22h30.26.638,expectation_shapes_perceived_time,2022.2.4,60.7682935348308,
1,-33,0.85,met,229,green,red,high_Expectation,,,,,0,187,187,228,0.0010088999988511205,,,,,,,,,,,,,,None,0.1986111111111111,-0.005555555555555556,465665,001,2023-02-23_22h30.26.638,expectation_shapes_perceived_time,2022.2.4,60.7682935348308,
1,-233,0.85,met,15,green,red,high_Expectation,,,,,0,188,188,14,0.0010843000491149724,,,,,,,,,,,,,,None,0.1986111111111111,-0.005555555555555556,465665,001,2023-02-23_22h30.26.638,expectation_shapes_perceived_time,2022.2.4,60.7682935348308,
1,-300,0.85,met,130,green,red,high_Expectation,,,,,0,189,189,129,0.0011568000190891325,,,,,,,,,,,,,,None,0.1986111111111111,-0.005555555555555556,465665,001,2023-02-23_22h30.26.638,expectation_shapes_perceived_time,2022.2.4,60.7682935348308,
1,300,0.15,unmet,42,red,green,high_Expectation,,,,,0,190,190,41,0.00108149996958673,,,,,,,,,,,,,,None,0.1986111111111111,-0.005555555555555556,465665,001,2023-02-23_22h30.26.638,expectation_shapes_perceived_time,2022.2.4,60.7682935348308,
1,-233,0.85,met,13,green,red,high_Expectation,,,,,0,191,191,12,0.0010654000216163695,,,,,,,,,,,,,,None,0.1986111111111111,-0.005555555555555556,465665,001,2023-02-23_22h30.26.638,expectation_shapes_perceived_time,2022.2.4,60.7682935348308,
1,-300,0.85,met,100,green,red,high_Expectation,,,,,0,192,192,99,0.001056700013577938,,,,,,,,,,,,,,None,0.1986111111111111,-0.005555555555555556,465665,001,2023-02-23_22h30.26.638,expectation_shapes_perceived_time,2022.2.4,60.7682935348308,
1,-100,0.15,unmet,86,red,green,high_Expectation,,,,,0,193,193,85,0.0011162000009790063,,,,,,,,,,,,,,None,0.1986111111111111,-0.005555555555555556,465665,001,2023-02-23_22h30.26.638,expectation_shapes_perceived_time,2022.2.4,60.7682935348308,
1,100,0.85,met,159,green,red,high_Expectation,,,,,0,194,194,158,0.0010204000282101333,,,,,,,,,,,,,,None,0.1986111111111111,-0.005555555555555556,465665,001,2023-02-23_22h30.26.638,expectation_shapes_perceived_time,2022.2.4,60.7682935348308,
1,-100,0.85,met,242,green,red,high_Expectation,,,,,0,195,195,241,0.001110800018068403,,,,,,,,,,,,,,None,0.1986111111111111,-0.005555555555555556,465665,001,2023-02-23_22h30.26.638,expectation_shapes_perceived_time,2022.2.4,60.7682935348308,
1,167,0.85,met,63,green,red,high_Expectation,,,,,0,196,196,62,0.001088600023649633,,,,,,,,,,,,,,None,0.1986111111111111,-0.005555555555555556,465665,001,2023-02-23_22h30.26.638,expectation_shapes_perceived_time,2022.2.4,60.7682935348308,
1,167,0.85,met,158,green,red,high_Expectation,,,,,0,197,197,157,0.001104000024497509,,,,,,,,,,,,,,None,0.1986111111111111,-0.005555555555555556,465665,001,2023-02-23_22h30.26.638,expectation_shapes_perceived_time,2022.2.4,60.7682935348308,
1,100,0.85,met,52,green,red,high_Expectation,,,,,0,198,198,51,0.0011631000088527799,,,,,,,,,,,,,,None,0.1986111111111111,-0.005555555555555556,465665,001,2023-02-23_22h30.26.638,expectation_shapes_perceived_time,2022.2.4,60.7682935348308,
1,167,0.85,met,17,green,red,high_Expectation,,,,,0,199,199,16,0.001186200010124594,,,,,,,,,,,,,,None,0.1986111111111111,-0.005555555555555556,465665,001,2023-02-23_22h30.26.638,expectation_shapes_perceived_time,2022.2.4,60.7682935348308,
1,300,0.15,unmet,153,red,green,high_Expectation,,,,,0,200,200,152,0.0011446999851614237,,,,,,,,,,,,,,None,0.1986111111111111,-0.005555555555555556,465665,001,2023-02-23_22h30.26.638,expectation_shapes_perceived_time,2022.2.4,60.7682935348308,
1,-233,0.15,unmet,176,red,green,high_Expectation,,,,,0,201,201,175,0.0011146999895572662,,,,,,,,,,,,,,None,0.1986111111111111,-0.005555555555555556,465665,001,2023-02-23_22h30.26.638,expectation_shapes_perceived_time,2022.2.4,60.7682935348308,
1,233,0.85,met,217,green,red,high_Expectation,,,,,0,202,202,216,0.0011615999974310398,,,,,,,,,,,,,,None,0.1986111111111111,-0.005555555555555556,465665,001,2023-02-23_22h30.26.638,expectation_shapes_perceived_time,2022.2.4,60.7682935348308,
1,100,0.85,met,62,green,red,high_Expectation,,,,,0,203,203,61,0.0011267000227235258,,,,,,,,,,,,,,None,0.1986111111111111,-0.005555555555555556,465665,001,2023-02-23_22h30.26.638,expectation_shapes_perceived_time,2022.2.4,60.7682935348308,
1,-100,0.85,met,300,green,red,high_Expectation,,,,,0,204,204,299,0.0011585999745875597,,,,,,,,,,,,,,None,0.1986111111111111,-0.005555555555555556,465665,001,2023-02-23_22h30.26.638,expectation_shapes_perceived_time,2022.2.4,60.7682935348308,
1,100,0.85,met,43,green,red,high_Expectation,,,,,0,205,205,42,0.0010775999980978668,,,,,,,,,,,,,,None,0.1986111111111111,-0.005555555555555556,465665,001,2023-02-23_22h30.26.638,expectation_shapes_perceived_time,2022.2.4,60.7682935348308,
1,300,0.85,met,269,green,red,high_Expectation,,,,,0,206,206,268,0.001076200045645237,,,,,,,,,,,,,,None,0.1986111111111111,-0.005555555555555556,465665,001,2023-02-23_22h30.26.638,expectation_shapes_perceived_time,2022.2.4,60.7682935348308,
1,33,0.85,met,58,green,red,high_Expectation,,,,,0,207,207,57,0.0011698000016622245,,,,,,,,,,,,,,None,0.1986111111111111,-0.005555555555555556,465665,001,2023-02-23_22h30.26.638,expectation_shapes_perceived_time,2022.2.4,60.7682935348308,
1,100,0.85,met,278,green,red,high_Expectation,,,,,0,208,208,277,0.0012310000020079315,,,,,,,,,,,,,,None,0.1986111111111111,-0.005555555555555556,465665,001,2023-02-23_22h30.26.638,expectation_shapes_perceived_time,2022.2.4,60.7682935348308,
1,-233,0.85,met,27,green,red,high_Expectation,,,,,0,209,209,26,0.0011408000136725605,,,,,,,,,,,,,,None,0.1986111111111111,-0.005555555555555556,465665,001,2023-02-23_22h30.26.638,expectation_shapes_perceived_time,2022.2.4,60.7682935348308,
1,33,0.85,met,131,green,red,high_Expectation,,,,,0,210,210,130,0.0012083000037819147,,,,,,,,,,,,,,None,0.1986111111111111,-0.005555555555555556,465665,001,2023-02-23_22h30.26.638,expectation_shapes_perceived_time,2022.2.4,60.7682935348308,
1,300,0.85,met,289,green,red,high_Expectation,,,,,0,211,211,288,0.0011043999693356454,,,,,,,,,,,,,,None,0.1986111111111111,-0.005555555555555556,465665,001,2023-02-23_22h30.26.638,expectation_shapes_perceived_time,2022.2.4,60.7682935348308,
1,33,0.15,unmet,81,red,green,high_Expectation,,,,,0,212,212,80,0.0012470000074245036,,,,,,,,,,,,,,None,0.1986111111111111,-0.005555555555555556,465665,001,2023-02-23_22h30.26.638,expectation_shapes_perceived_time,2022.2.4,60.7682935348308,
1,-100,0.85,met,41,green,red,high_Expectation,,,,,0,213,213,40,0.0011555999517440796,,,,,,,,,,,,,,None,0.1986111111111111,-0.005555555555555556,465665,001,2023-02-23_22h30.26.638,expectation_shapes_perceived_time,2022.2.4,60.7682935348308,
1,-300,0.85,met,209,green,red,high_Expectation,,,,,0,214,214,208,0.0011900999816134572,,,,,,,,,,,,,,None,0.1986111111111111,-0.005555555555555556,465665,001,2023-02-23_22h30.26.638,expectation_shapes_perceived_time,2022.2.4,60.7682935348308,
1,-167,0.85,met,122,green,red,high_Expectation,,,,,0,215,215,121,0.001221399987116456,,,,,,,,,,,,,,None,0.1986111111111111,-0.005555555555555556,465665,001,2023-02-23_22h30.26.638,expectation_shapes_perceived_time,2022.2.4,60.7682935348308,
1,100,0.85,met,5,green,red,high_Expectation,,,,,0,216,216,4,0.0011062000412493944,,,,,,,,,,,,,,None,0.1986111111111111,-0.005555555555555556,465665,001,2023-02-23_22h30.26.638,expectation_shapes_perceived_time,2022.2.4,60.7682935348308,
1,33,0.85,met,226,green,red,high_Expectation,,,,,0,217,217,225,0.0012048999778926373,,,,,,,,,,,,,,None,0.1986111111111111,-0.005555555555555556,465665,001,2023-02-23_22h30.26.638,expectation_shapes_perceived_time,2022.2.4,60.7682935348308,
1,-233,0.15,unmet,257,red,green,high_Expectation,,,,,0,218,218,256,0.0011282999766990542,,,,,,,,,,,,,,None,0.1986111111111111,-0.005555555555555556,465665,001,2023-02-23_22h30.26.638,expectation_shapes_perceived_time,2022.2.4,60.7682935348308,
1,33,0.85,met,194,green,red,high_Expectation,,,,,0,219,219,193,0.0011899999808520079,,,,,,,,,,,,,,None,0.1986111111111111,-0.005555555555555556,465665,001,2023-02-23_22h30.26.638,expectation_shapes_perceived_time,2022.2.4,60.7682935348308,
1,-167,0.85,met,279,green,red,high_Expectation,,,,,0,220,220,278,0.0011556000099517405,,,,,,,,,,,,,,None,0.1986111111111111,-0.005555555555555556,465665,001,2023-02-23_22h30.26.638,expectation_shapes_perceived_time,2022.2.4,60.7682935348308,
1,-33,0.85,met,128,green,red,high_Expectation,,,,,0,221,221,127,0.001139500003773719,,,,,,,,,,,,,,None,0.1986111111111111,-0.005555555555555556,465665,001,2023-02-23_22h30.26.638,expectation_shapes_perceived_time,2022.2.4,60.7682935348308,
1,233,0.85,met,262,green,red,high_Expectation,,,,,0,222,222,261,0.0011169000063091516,,,,,,,,,,,,,,None,0.1986111111111111,-0.005555555555555556,465665,001,2023-02-23_22h30.26.638,expectation_shapes_perceived_time,2022.2.4,60.7682935348308,
1,100,0.85,met,169,green,red,high_Expectation,,,,,0,223,223,168,0.0011419999646022916,,,,,,,,,,,,,,None,0.1986111111111111,-0.005555555555555556,465665,001,2023-02-23_22h30.26.638,expectation_shapes_perceived_time,2022.2.4,60.7682935348308,
1,-100,0.85,met,220,green,red,high_Expectation,,,,,0,224,224,219,0.00109779997728765,,,,,,,,,,,,,,None,0.1986111111111111,-0.005555555555555556,465665,001,2023-02-23_22h30.26.638,expectation_shapes_perceived_time,2022.2.4,60.7682935348308,
1,-300,0.85,met,188,green,red,high_Expectation,,,,,0,225,225,187,0.0010919999913312495,,,,,,,,,,,,,,None,0.1986111111111111,-0.005555555555555556,465665,001,2023-02-23_22h30.26.638,expectation_shapes_perceived_time,2022.2.4,60.7682935348308,
1,300,0.85,met,161,green,red,high_Expectation,,,,,0,226,226,160,0.001138900057412684,,,,,,,,,,,,,,None,0.1986111111111111,-0.005555555555555556,465665,001,2023-02-23_22h30.26.638,expectation_shapes_perceived_time,2022.2.4,60.7682935348308,
1,-167,0.85,met,143,green,red,high_Expectation,,,,,0,227,227,142,0.0011245000059716403,,,,,,,,,,,,,,None,0.1986111111111111,-0.005555555555555556,465665,001,2023-02-23_22h30.26.638,expectation_shapes_perceived_time,2022.2.4,60.7682935348308,
1,300,0.85,met,245,green,red,high_Expectation,,,,,0,228,228,244,0.0011135999811813235,,,,,,,,,,,,,,None,0.1986111111111111,-0.005555555555555556,465665,001,2023-02-23_22h30.26.638,expectation_shapes_perceived_time,2022.2.4,60.7682935348308,
1,233,0.85,met,297,green,red,high_Expectation,,,,,0,229,229,296,0.0013155000051483512,,,,,,,,,,,,,,None,0.1986111111111111,-0.005555555555555556,465665,001,2023-02-23_22h30.26.638,expectation_shapes_perceived_time,2022.2.4,60.7682935348308,
1,-33,0.85,met,19,green,red,high_Expectation,,,,,0,230,230,18,0.0011403000098653138,,,,,,,,,,,,,,None,0.1986111111111111,-0.005555555555555556,465665,001,2023-02-23_22h30.26.638,expectation_shapes_perceived_time,2022.2.4,60.7682935348308,
1,100,0.85,met,171,green,red,high_Expectation,,,,,0,231,231,170,0.0010933000012300909,,,,,,,,,,,,,,None,0.1986111111111111,-0.005555555555555556,465665,001,2023-02-23_22h30.26.638,expectation_shapes_perceived_time,2022.2.4,60.7682935348308,
1,-167,0.15,unmet,206,red,green,high_Expectation,,,,,0,232,232,205,0.00113800005055964,,,,,,,,,,,,,,None,0.1986111111111111,-0.005555555555555556,465665,001,2023-02-23_22h30.26.638,expectation_shapes_perceived_time,2022.2.4,60.7682935348308,
1,-33,0.85,met,270,green,red,high_Expectation,,,,,0,233,233,269,0.0011970999767072499,,,,,,,,,,,,,,None,0.1986111111111111,-0.005555555555555556,465665,001,2023-02-23_22h30.26.638,expectation_shapes_perceived_time,2022.2.4,60.7682935348308,
1,300,0.85,met,151,green,red,high_Expectation,,,,,0,234,234,150,0.001102200010791421,,,,,,,,,,,,,,None,0.1986111111111111,-0.005555555555555556,465665,001,2023-02-23_22h30.26.638,expectation_shapes_perceived_time,2022.2.4,60.7682935348308,
1,233,0.85,met,25,green,red,high_Expectation,,,,,0,235,235,24,0.0011647000210359693,,,,,,,,,,,,,,None,0.1986111111111111,-0.005555555555555556,465665,001,2023-02-23_22h30.26.638,expectation_shapes_perceived_time,2022.2.4,60.7682935348308,
1,233,0.85,met,108,green,red,high_Expectation,,,,,0,236,236,107,0.0010863000061362982,,,,,,,,,,,,,,None,0.1986111111111111,-0.005555555555555556,465665,001,2023-02-23_22h30.26.638,expectation_shapes_perceived_time,2022.2.4,60.7682935348308,
1,33,0.15,unmet,238,red,green,high_Expectation,,,,,0,237,237,237,0.0011137999827042222,,,,,,,,,,,,,,None,0.1986111111111111,-0.005555555555555556,465665,001,2023-02-23_22h30.26.638,expectation_shapes_perceived_time,2022.2.4,60.7682935348308,
1,-300,0.85,met,40,green,red,high_Expectation,,,,,0,238,238,39,0.0013356999843381345,,,,,,,,,,,,,,None,0.1986111111111111,-0.005555555555555556,465665,001,2023-02-23_22h30.26.638,expectation_shapes_perceived_time,2022.2.4,60.7682935348308,
1,300,0.15,unmet,101,red,green,high_Expectation,,,,,0,239,239,100,0.0011415999615564942,,,,,,,,,,,,,,None,0.1986111111111111,-0.005555555555555556,465665,001,2023-02-23_22h30.26.638,expectation_shapes_perceived_time,2022.2.4,60.7682935348308,
1,-233,0.85,met,88,green,red,high_Expectation,,,,,0,240,240,87,0.0010862000053748488,,,,,,,,,,,,,,None,0.1986111111111111,-0.005555555555555556,465665,001,2023-02-23_22h30.26.638,expectation_shapes_perceived_time,2022.2.4,60.7682935348308,
1,300,0.85,met,199,green,red,high_Expectation,,,,,0,241,241,198,0.0010942000080831349,,,,,,,,,,,,,,None,0.1986111111111111,-0.005555555555555556,465665,001,2023-02-23_22h30.26.638,expectation_shapes_perceived_time,2022.2.4,60.7682935348308,
1,167,0.85,met,102,green,red,high_Expectation,,,,,0,242,242,101,0.0011261000181548297,,,,,,,,,,,,,,None,0.1986111111111111,-0.005555555555555556,465665,001,2023-02-23_22h30.26.638,expectation_shapes_perceived_time,2022.2.4,60.7682935348308,
1,-100,0.85,met,192,green,red,high_Expectation,,,,,0,243,243,191,0.0011500000255182385,,,,,,,,,,,,,,None,0.1986111111111111,-0.005555555555555556,465665,001,2023-02-23_22h30.26.638,expectation_shapes_perceived_time,2022.2.4,60.7682935348308,
1,-33,0.85,met,190,green,red,high_Expectation,,,,,0,244,244,189,0.0011517999810166657,,,,,,,,,,,,,,None,0.1986111111111111,-0.005555555555555556,465665,001,2023-02-23_22h30.26.638,expectation_shapes_perceived_time,2022.2.4,60.7682935348308,
1,167,0.85,met,59,green,red,high_Expectation,,,,,0,245,245,58,0.0011066999868489802,,,,,,,,,,,,,,None,0.1986111111111111,-0.005555555555555556,465665,001,2023-02-23_22h30.26.638,expectation_shapes_perceived_time,2022.2.4,60.7682935348308,
1,-100,0.85,met,145,green,red,high_Expectation,,,,,0,246,246,144,0.0011493000201880932,,,,,,,,,,,,,,None,0.1986111111111111,-0.005555555555555556,465665,001,2023-02-23_22h30.26.638,expectation_shapes_perceived_time,2022.2.4,60.7682935348308,
1,300,0.85,met,154,green,red,high_Expectation,,,,,0,247,247,153,0.001133300014771521,,,,,,,,,,,,,,None,0.1986111111111111,-0.005555555555555556,465665,001,2023-02-23_22h30.26.638,expectation_shapes_perceived_time,2022.2.4,60.7682935348308,
1,167,0.15,unmet,11,red,green,high_Expectation,,,,,0,248,248,10,0.0011187000200152397,,,,,,,,,,,,,,None,0.1986111111111111,-0.005555555555555556,465665,001,2023-02-23_22h30.26.638,expectation_shapes_perceived_time,2022.2.4,60.7682935348308,
1,-300,0.85,met,219,green,red,high_Expectation,,,,,0,249,249,218,0.0011814000317826867,,,,,,,,,,,,,,None,0.1986111111111111,-0.005555555555555556,465665,001,2023-02-23_22h30.26.638,expectation_shapes_perceived_time,2022.2.4,60.7682935348308,
1,-100,0.85,met,225,green,red,high_Expectation,,,,,0,250,250,224,0.0011001999955624342,,,,,,,,,,,,,,None,0.1986111111111111,-0.005555555555555556,465665,001,2023-02-23_22h30.26.638,expectation_shapes_perceived_time,2022.2.4,60.7682935348308,
1,-233,0.85,met,149,green,red,high_Expectation,,,,,0,251,251,148,0.001113200036343187,,,,,,,,,,,,,,None,0.1986111111111111,-0.005555555555555556,465665,001,2023-02-23_22h30.26.638,expectation_shapes_perceived_time,2022.2.4,60.7682935348308,
1,-100,0.85,met,179,green,red,high_Expectation,,,,,0,252,252,178,0.0010716000106185675,,,,,,,,,,,,,,None,0.1986111111111111,-0.005555555555555556,465665,001,2023-02-23_22h30.26.638,expectation_shapes_perceived_time,2022.2.4,60.7682935348308,
1,33,0.85,met,66,green,red,high_Expectation,,,,,0,253,253,65,0.001128199975937605,,,,,,,,,,,,,,None,0.1986111111111111,-0.005555555555555556,465665,001,2023-02-23_22h30.26.638,expectation_shapes_perceived_time,2022.2.4,60.7682935348308,
1,167,0.85,met,295,green,red,high_Expectation,,,,,0,254,254,294,0.0011801000218838453,,,,,,,,,,,,,,None,0.1986111111111111,-0.005555555555555556,465665,001,2023-02-23_22h30.26.638,expectation_shapes_perceived_time,2022.2.4,60.7682935348308,
1,-100,0.85,met,36,green,red,high_Expectation,,,,,0,255,255,35,0.0011227999930270016,,,,,,,,,,,,,,None,0.1986111111111111,-0.005555555555555556,465665,001,2023-02-23_22h30.26.638,expectation_shapes_perceived_time,2022.2.4,60.7682935348308,
1,-167,0.85,met,142,green,red,high_Expectation,,,,,0,256,256,141,0.0010050000273622572,,,,,,,,,,,,,,None,0.1986111111111111,-0.005555555555555556,465665,001,2023-02-23_22h30.26.638,expectation_shapes_perceived_time,2022.2.4,60.7682935348308,
1,100,0.85,met,187,green,red,high_Expectation,,,,,0,257,257,186,0.001162799948360771,,,,,,,,,,,,,,None,0.1986111111111111,-0.005555555555555556,465665,001,2023-02-23_22h30.26.638,expectation_shapes_perceived_time,2022.2.4,60.7682935348308,
1,-100,0.85,met,197,green,red,high_Expectation,,,,,0,258,258,196,0.0010738999699242413,,,,,,,,,,,,,,None,0.1986111111111111,-0.005555555555555556,465665,001,2023-02-23_22h30.26.638,expectation_shapes_perceived_time,2022.2.4,60.7682935348308,
1,33,0.85,met,91,green,red,high_Expectation,,,,,0,259,259,90,0.0011857999488711357,,,,,,,,,,,,,,None,0.1986111111111111,-0.005555555555555556,465665,001,2023-02-23_22h30.26.638,expectation_shapes_perceived_time,2022.2.4,60.7682935348308,
1,100,0.85,met,110,green,red,high_Expectation,,,,,0,260,260,109,0.0010918999905698001,,,,,,,,,,,,,,None,0.1986111111111111,-0.005555555555555556,465665,001,2023-02-23_22h30.26.638,expectation_shapes_perceived_time,2022.2.4,60.7682935348308,
1,-100,0.85,met,265,green,red,high_Expectation,,,,,0,261,261,264,0.001045099983457476,,,,,,,,,,,,,,None,0.1986111111111111,-0.005555555555555556,465665,001,2023-02-23_22h30.26.638,expectation_shapes_perceived_time,2022.2.4,60.7682935348308,
1,33,0.15,unmet,215,red,green,high_Expectation,,,,,0,262,262,214,0.0011766999959945679,,,,,,,,,,,,,,None,0.1986111111111111,-0.005555555555555556,465665,001,2023-02-23_22h30.26.638,expectation_shapes_perceived_time,2022.2.4,60.7682935348308,
1,167,0.85,met,230,green,red,high_Expectation,,,,,0,263,263,229,0.0010985999833792448,,,,,,,,,,,,,,None,0.1986111111111111,-0.005555555555555556,465665,001,2023-02-23_22h30.26.638,expectation_shapes_perceived_time,2022.2.4,60.7682935348308,
1,100,0.85,met,155,green,red,high_Expectation,,,,,0,264,264,154,0.0011746999807655811,,,,,,,,,,,,,,None,0.1986111111111111,-0.005555555555555556,465665,001,2023-02-23_22h30.26.638,expectation_shapes_perceived_time,2022.2.4,60.7682935348308,
1,233,0.85,met,160,green,red,high_Expectation,,,,,0,265,265,159,0.0010446999804116786,,,,,,,,,,,,,,None,0.1986111111111111,-0.005555555555555556,465665,001,2023-02-23_22h30.26.638,expectation_shapes_perceived_time,2022.2.4,60.7682935348308,
1,-33,0.85,met,67,green,red,high_Expectation,,,,,0,266,266,66,0.0011753999860957265,,,,,,,,,,,,,,None,0.1986111111111111,-0.005555555555555556,465665,001,2023-02-23_22h30.26.638,expectation_shapes_perceived_time,2022.2.4,60.7682935348308,
1,167,0.85,met,276,green,red,high_Expectation,,,,,0,267,267,275,0.0012220999924466014,,,,,,,,,,,,,,None,0.1986111111111111,-0.005555555555555556,465665,001,2023-02-23_22h30.26.638,expectation_shapes_perceived_time,2022.2.4,60.7682935348308,
1,-33,0.85,met,193,green,red,high_Expectation,,,,,0,268,268,192,0.001229999994393438,,,,,,,,,,,,,,None,0.1986111111111111,-0.005555555555555556,465665,001,2023-02-23_22h30.26.638,expectation_shapes_perceived_time,2022.2.4,60.7682935348308,
1,-300,0.85,met,214,green,red,high_Expectation,,,,,0,269,269,213,0.001137999992351979,,,,,,,,,,,,,,None,0.1986111111111111,-0.005555555555555556,465665,001,2023-02-23_22h30.26.638,expectation_shapes_perceived_time,2022.2.4,60.7682935348308,
1,-300,0.85,met,135,green,red,high_Expectation,,,,,0,270,270,134,0.0011404999531805515,,,,,,,,,,,,,,None,0.1986111111111111,-0.005555555555555556,465665,001,2023-02-23_22h30.26.638,expectation_shapes_perceived_time,2022.2.4,60.7682935348308,
1,33,0.15,unmet,177,red,green,high_Expectation,,,,,0,271,271,176,0.0010893999715335667,,,,,,,,,,,,,,None,0.1986111111111111,-0.005555555555555556,465665,001,2023-02-23_22h30.26.638,expectation_shapes_perceived_time,2022.2.4,60.7682935348308,
1,233,0.85,met,113,green,red,high_Expectation,,,,,0,272,272,112,0.0011625000042840838,,,,,,,,,,,,,,None,0.1986111111111111,-0.005555555555555556,465665,001,2023-02-23_22h30.26.638,expectation_shapes_perceived_time,2022.2.4,60.7682935348308,
1,33,0.85,met,241,green,red,high_Expectation,,,,,0,273,273,240,0.0011036000214517117,,,,,,,,,,,,,,None,0.1986111111111111,-0.005555555555555556,465665,001,2023-02-23_22h30.26.638,expectation_shapes_perceived_time,2022.2.4,60.7682935348308,
1,-233,0.85,met,264,green,red,high_Expectation,,,,,0,274,274,263,0.0011956000234931707,,,,,,,,,,,,,,None,0.1986111111111111,-0.005555555555555556,465665,001,2023-02-23_22h30.26.638,expectation_shapes_perceived_time,2022.2.4,60.7682935348308,
1,300,0.85,met,12,green,red,high_Expectation,,,,,0,275,275,11,0.0012701000086963177,,,,,,,,,,,,,,None,0.1986111111111111,-0.005555555555555556,465665,001,2023-02-23_22h30.26.638,expectation_shapes_perceived_time,2022.2.4,60.7682935348308,
1,167,0.15,unmet,76,red,green,high_Expectation,,,,,0,276,276,75,0.0011193000245839357,,,,,,,,,,,,,,None,0.1986111111111111,-0.005555555555555556,465665,001,2023-02-23_22h30.26.638,expectation_shapes_perceived_time,2022.2.4,60.7682935348308,
1,-233,0.15,unmet,57,red,green,high_Expectation,,,,,0,277,277,56,0.001178800011985004,,,,,,,,,,,,,,None,0.1986111111111111,-0.005555555555555556,465665,001,2023-02-23_22h30.26.638,expectation_shapes_perceived_time,2022.2.4,60.7682935348308,
1,-233,0.85,met,210,green,red,high_Expectation,,,,,0,278,278,209,0.0012366999872028828,,,,,,,,,,,,,,None,0.1986111111111111,-0.005555555555555556,465665,001,2023-02-23_22h30.26.638,expectation_shapes_perceived_time,2022.2.4,60.7682935348308,
1,-233,0.85,met,284,green,red,high_Expectation,,,,,0,279,279,283,0.0011314000003039837,,,,,,,,,,,,,,None,0.1986111111111111,-0.005555555555555556,465665,001,2023-02-23_22h30.26.638,expectation_shapes_perceived_time,2022.2.4,60.7682935348308,
1,-167,0.85,met,95,green,red,high_Expectation,,,,,0,280,280,94,0.0011854000040329993,,,,,,,,,,,,,,None,0.1986111111111111,-0.005555555555555556,465665,001,2023-02-23_22h30.26.638,expectation_shapes_perceived_time,2022.2.4,60.7682935348308,
1,-233,0.15,unmet,291,red,green,high_Expectation,,,,,0,281,281,290,0.001096600026357919,,,,,,,,,,,,,,None,0.1986111111111111,-0.005555555555555556,465665,001,2023-02-23_22h30.26.638,expectation_shapes_perceived_time,2022.2.4,60.7682935348308,
1,233,0.85,met,157,green,red,high_Expectation,,,,,0,282,282,156,0.001137699990067631,,,,,,,,,,,,,,None,0.1986111111111111,-0.005555555555555556,465665,001,2023-02-23_22h30.26.638,expectation_shapes_perceived_time,2022.2.4,60.7682935348308,
1,-33,0.85,met,134,green,red,high_Expectation,,,,,0,283,283,133,0.001142699969932437,,,,,,,,,,,,,,None,0.1986111111111111,-0.005555555555555556,465665,001,2023-02-23_22h30.26.638,expectation_shapes_perceived_time,2022.2.4,60.7682935348308,
1,167,0.15,unmet,266,red,green,high_Expectation,,,,,0,284,284,265,0.0010787000064738095,,,,,,,,,,,,,,None,0.1986111111111111,-0.005555555555555556,465665,001,2023-02-23_22h30.26.638,expectation_shapes_perceived_time,2022.2.4,60.7682935348308,
1,233,0.85,met,283,green,red,high_Expectation,,,,,0,285,285,282,0.0010825000354088843,,,,,,,,,,,,,,None,0.1986111111111111,-0.005555555555555556,465665,001,2023-02-23_22h30.26.638,expectation_shapes_perceived_time,2022.2.4,60.7682935348308,
1,233,0.85,met,146,green,red,high_Expectation,,,,,0,286,286,145,0.0011264999629929662,,,,,,,,,,,,,,None,0.1986111111111111,-0.005555555555555556,465665,001,2023-02-23_22h30.26.638,expectation_shapes_perceived_time,2022.2.4,60.7682935348308,
1,-233,0.85,met,253,green,red,high_Expectation,,,,,0,287,287,252,0.0011974999797530472,,,,,,,,,,,,,,None,0.1986111111111111,-0.005555555555555556,465665,001,2023-02-23_22h30.26.638,expectation_shapes_perceived_time,2022.2.4,60.7682935348308,
1,-300,0.85,met,189,green,red,high_Expectation,,,,,0,288,288,188,0.0011854000040329993,,,,,,,,,,,,,,None,0.1986111111111111,-0.005555555555555556,465665,001,2023-02-23_22h30.26.638,expectation_shapes_perceived_time,2022.2.4,60.7682935348308,
1,-233,0.15,unmet,256,red,green,high_Expectation,,,,,0,289,289,255,0.001127899973653257,,,,,,,,,,,,,,None,0.1986111111111111,-0.005555555555555556,465665,001,2023-02-23_22h30.26.638,expectation_shapes_perceived_time,2022.2.4,60.7682935348308,
1,100,0.85,met,10,green,red,high_Expectation,,,,,0,290,290,9,0.0011685999925248325,,,,,,,,,,,,,,None,0.1986111111111111,-0.005555555555555556,465665,001,2023-02-23_22h30.26.638,expectation_shapes_perceived_time,2022.2.4,60.7682935348308,
1,233,0.85,met,274,green,red,high_Expectation,,,,,0,291,291,273,0.0012257000198587775,,,,,,,,,,,,,,None,0.1986111111111111,-0.005555555555555556,465665,001,2023-02-23_22h30.26.638,expectation_shapes_perceived_time,2022.2.4,60.7682935348308,
1,233,0.85,met,99,green,red,high_Expectation,,,,,0,292,292,98,0.0012750999885611236,,,,,,,,,,,,,,None,0.1986111111111111,-0.005555555555555556,465665,001,2023-02-23_22h30.26.638,expectation_shapes_perceived_time,2022.2.4,60.7682935348308,
1,-167,0.85,met,203,green,red,high_Expectation,,,,,0,293,293,202,0.0011786000104621053,,,,,,,,,,,,,,None,0.1986111111111111,-0.005555555555555556,465665,001,2023-02-23_22h30.26.638,expectation_shapes_perceived_time,2022.2.4,60.7682935348308,
1,-300,0.85,met,14,green,red,high_Expectation,,,,,0,294,294,13,0.0011427000281400979,,,,,,,,,,,,,,None,0.1986111111111111,-0.005555555555555556,465665,001,2023-02-23_22h30.26.638,expectation_shapes_perceived_time,2022.2.4,60.7682935348308,
1,-100,0.85,met,173,green,red,high_Expectation,,,,,0,295,295,172,0.0011698000016622245,,,,,,,,,,,,,,None,0.1986111111111111,-0.005555555555555556,465665,001,2023-02-23_22h30.26.638,expectation_shapes_perceived_time,2022.2.4,60.7682935348308,
1,-167,0.85,met,282,green,red,high_Expectation,,,,,0,296,296,281,0.001241500023752451,,,,,,,,,,,,,,None,0.1986111111111111,-0.005555555555555556,465665,001,2023-02-23_22h30.26.638,expectation_shapes_perceived_time,2022.2.4,60.7682935348308,
1,-33,0.85,met,53,green,red,high_Expectation,,,,,0,297,297,52,0.0010833999840542674,,,,,,,,,,,,,,None,0.1986111111111111,-0.005555555555555556,465665,001,2023-02-23_22h30.26.638,expectation_shapes_perceived_time,2022.2.4,60.7682935348308,
1,33,0.85,met,47,green,red,high_Expectation,,,,,0,298,298,46,0.001193300005979836,,,,,,,,,,,,,,None,0.1986111111111111,-0.005555555555555556,465665,001,2023-02-23_22h30.26.638,expectation_shapes_perceived_time,2022.2.4,60.7682935348308,
1,233,0.85,met,138,green,red,high_Expectation,,,,,0,299,299,137,0.0011128999758511782,,,,,,,,,,,,,,None,0.1986111111111111,-0.005555555555555556,465665,001,2023-02-23_22h30.26.638,expectation_shapes_perceived_time,2022.2.4,60.7682935348308,
,,,,,,,,,,,,,,,,,,,,,,,,,,,,,,,0.1986111111111111,-0.005555555555555556,,,,,,,
