id,delay,expectation,congruency,trial_num,stim_color,distractor_color,block,famLoop.thisRepN,famLoop.thisTrialN,famLoop.thisN,famLoop.thisIndex,trialss.thisRepN,trialss.thisTrialN,trialss.thisN,trialss.thisIndex,fixationPoint.started,fixationPoint.stopped,audCueStart.started,distractor.started,distractor.stopped,target.started,target.stopped,sapce2pass_2.started,audCueEnd.started,audCueEnd.stopped,responsePointer.started,responsePointer.stopped,perceivedTime,pTemporalError,sapce2pass_2.keys,x_coord,y_coord,participant,session,date,expName,psychopyVersion,frameRate,
1,-33,0.85,met,53,green,red,high_Expectation,,,,,0,0,0,52,0.020423099980689585,0.5156312999897636,0.5156312999897636,1.5827748999581672,1.6166185999754816,1.6166185999754816,1.6501082999748178,2.500826799951028,2.5671235999907367,2.6010076999664307,3.1010713999858126,3.9503253999864683,486.2685291020366,-571.3313582809069,None,,,865254,001,2023-02-23_22h29.57.389,expectation_shapes_perceived_time,2022.2.4,60.23435985073935,
1,-233,0.85,met,55,green,red,high_Expectation,,,,,0,1,1,54,0.0013466999516822398,,,,,,,,,,,,,,None,0.19305555555555556,0.008333333333333333,865254,001,2023-02-23_22h29.57.389,expectation_shapes_perceived_time,2022.2.4,60.23435985073935,
1,233,0.85,met,157,green,red,high_Expectation,,,,,0,2,2,156,0.0013552000164054334,,,,,,,,,,,,,,None,0.19305555555555556,0.008333333333333333,865254,001,2023-02-23_22h29.57.389,expectation_shapes_perceived_time,2022.2.4,60.23435985073935,
1,233,0.85,met,274,green,red,high_Expectation,,,,,0,3,3,273,0.0013054999872110784,,,,,,,,,,,,,,None,0.19305555555555556,0.008333333333333333,865254,001,2023-02-23_22h29.57.389,expectation_shapes_perceived_time,2022.2.4,60.23435985073935,
1,-300,0.85,met,114,green,red,high_Expectation,,,,,0,4,4,113,0.001317800022661686,,,,,,,,,,,,,,None,0.19305555555555556,0.008333333333333333,865254,001,2023-02-23_22h29.57.389,expectation_shapes_perceived_time,2022.2.4,60.23435985073935,
1,233,0.85,met,283,green,red,high_Expectation,,,,,0,5,5,282,0.0014190999791026115,,,,,,,,,,,,,,None,0.19305555555555556,0.008333333333333333,865254,001,2023-02-23_22h29.57.389,expectation_shapes_perceived_time,2022.2.4,60.23435985073935,
1,167,0.15,unmet,11,red,green,high_Expectation,,,,,0,6,6,10,0.001393499958794564,,,,,,,,,,,,,,None,0.19305555555555556,0.008333333333333333,865254,001,2023-02-23_22h29.57.389,expectation_shapes_perceived_time,2022.2.4,60.23435985073935,
1,-300,0.85,met,172,green,red,high_Expectation,,,,,0,7,7,171,0.0014340999769046903,,,,,,,,,,,,,,None,0.19305555555555556,0.008333333333333333,865254,001,2023-02-23_22h29.57.389,expectation_shapes_perceived_time,2022.2.4,60.23435985073935,
1,33,0.15,unmet,238,red,green,high_Expectation,,,,,0,8,8,237,0.0013457000022754073,,,,,,,,,,,,,,None,0.19305555555555556,0.008333333333333333,865254,001,2023-02-23_22h29.57.389,expectation_shapes_perceived_time,2022.2.4,60.23435985073935,
1,33,0.15,unmet,185,red,green,high_Expectation,,,,,0,9,9,184,0.0013495000312104821,,,,,,,,,,,,,,None,0.19305555555555556,0.008333333333333333,865254,001,2023-02-23_22h29.57.389,expectation_shapes_perceived_time,2022.2.4,60.23435985073935,
1,33,0.85,met,31,green,red,high_Expectation,,,,,0,10,10,30,0.0013599999947473407,,,,,,,,,,,,,,None,0.19305555555555556,0.008333333333333333,865254,001,2023-02-23_22h29.57.389,expectation_shapes_perceived_time,2022.2.4,60.23435985073935,
1,-100,0.85,met,218,green,red,high_Expectation,,,,,0,11,11,217,0.0013527999981306493,,,,,,,,,,,,,,None,0.19305555555555556,0.008333333333333333,865254,001,2023-02-23_22h29.57.389,expectation_shapes_perceived_time,2022.2.4,60.23435985073935,
1,-300,0.85,met,120,green,red,high_Expectation,,,,,0,12,12,119,0.00137339998036623,,,,,,,,,,,,,,None,0.19305555555555556,0.008333333333333333,865254,001,2023-02-23_22h29.57.389,expectation_shapes_perceived_time,2022.2.4,60.23435985073935,
1,-233,0.15,unmet,1,red,green,high_Expectation,,,,,0,13,13,0,0.001334700034931302,,,,,,,,,,,,,,None,0.19305555555555556,0.008333333333333333,865254,001,2023-02-23_22h29.57.389,expectation_shapes_perceived_time,2022.2.4,60.23435985073935,
1,-300,0.85,met,188,green,red,high_Expectation,,,,,0,14,14,187,0.0013347999774850905,,,,,,,,,,,,,,None,0.19305555555555556,0.008333333333333333,865254,001,2023-02-23_22h29.57.389,expectation_shapes_perceived_time,2022.2.4,60.23435985073935,
1,300,0.85,met,245,green,red,high_Expectation,,,,,0,15,15,244,0.0012970000389032066,,,,,,,,,,,,,,None,0.19305555555555556,0.008333333333333333,865254,001,2023-02-23_22h29.57.389,expectation_shapes_perceived_time,2022.2.4,60.23435985073935,
1,-167,0.85,met,182,green,red,high_Expectation,,,,,0,16,16,181,0.0011270000250078738,,,,,,,,,,,,,,None,0.19305555555555556,0.008333333333333333,865254,001,2023-02-23_22h29.57.389,expectation_shapes_perceived_time,2022.2.4,60.23435985073935,
1,233,0.85,met,234,green,red,high_Expectation,,,,,0,17,17,233,0.0011708999518305063,,,,,,,,,,,,,,None,0.19305555555555556,0.008333333333333333,865254,001,2023-02-23_22h29.57.389,expectation_shapes_perceived_time,2022.2.4,60.23435985073935,
1,-300,0.85,met,20,green,red,high_Expectation,,,,,0,18,18,19,0.0011484000133350492,,,,,,,,,,,,,,None,0.19305555555555556,0.008333333333333333,865254,001,2023-02-23_22h29.57.389,expectation_shapes_perceived_time,2022.2.4,60.23435985073935,
1,-233,0.85,met,107,green,red,high_Expectation,,,,,0,19,19,106,0.0011085000005550683,,,,,,,,,,,,,,None,0.19305555555555556,0.008333333333333333,865254,001,2023-02-23_22h29.57.389,expectation_shapes_perceived_time,2022.2.4,60.23435985073935,
1,100,0.85,met,278,green,red,high_Expectation,,,,,0,20,20,277,0.001184699998702854,,,,,,,,,,,,,,None,0.19305555555555556,0.008333333333333333,865254,001,2023-02-23_22h29.57.389,expectation_shapes_perceived_time,2022.2.4,60.23435985073935,
1,167,0.15,unmet,76,red,green,high_Expectation,,,,,0,21,21,75,0.001171400013845414,,,,,,,,,,,,,,None,0.19305555555555556,0.008333333333333333,865254,001,2023-02-23_22h29.57.389,expectation_shapes_perceived_time,2022.2.4,60.23435985073935,
1,-233,0.85,met,13,green,red,high_Expectation,,,,,0,22,22,12,0.0011295999865978956,,,,,,,,,,,,,,None,0.19305555555555556,0.008333333333333333,865254,001,2023-02-23_22h29.57.389,expectation_shapes_perceived_time,2022.2.4,60.23435985073935,
1,33,0.85,met,69,green,red,high_Expectation,,,,,0,23,23,68,0.0011081999982707202,,,,,,,,,,,,,,None,0.19305555555555556,0.008333333333333333,865254,001,2023-02-23_22h29.57.389,expectation_shapes_perceived_time,2022.2.4,60.23435985073935,
1,-167,0.85,met,142,green,red,high_Expectation,,,,,0,24,24,141,0.0015219000051729381,,,,,,,,,,,,,,None,0.19305555555555556,0.008333333333333333,865254,001,2023-02-23_22h29.57.389,expectation_shapes_perceived_time,2022.2.4,60.23435985073935,
1,100,0.85,met,240,green,red,high_Expectation,,,,,0,25,25,239,0.0011329000117257237,,,,,,,,,,,,,,None,0.19305555555555556,0.008333333333333333,865254,001,2023-02-23_22h29.57.389,expectation_shapes_perceived_time,2022.2.4,60.23435985073935,
1,167,0.85,met,102,green,red,high_Expectation,,,,,0,26,26,101,0.001101000001654029,,,,,,,,,,,,,,None,0.19305555555555556,0.008333333333333333,865254,001,2023-02-23_22h29.57.389,expectation_shapes_perceived_time,2022.2.4,60.23435985073935,
1,-167,0.85,met,87,green,red,high_Expectation,,,,,0,27,27,86,0.0010878999601118267,,,,,,,,,,,,,,None,0.19305555555555556,0.008333333333333333,865254,001,2023-02-23_22h29.57.389,expectation_shapes_perceived_time,2022.2.4,60.23435985073935,
1,100,0.85,met,68,green,red,high_Expectation,,,,,0,28,28,67,0.0012899000430479646,,,,,,,,,,,,,,None,0.19305555555555556,0.008333333333333333,865254,001,2023-02-23_22h29.57.389,expectation_shapes_perceived_time,2022.2.4,60.23435985073935,
1,300,0.85,met,51,green,red,high_Expectation,,,,,0,29,29,50,0.0010893000289797783,,,,,,,,,,,,,,None,0.19305555555555556,0.008333333333333333,865254,001,2023-02-23_22h29.57.389,expectation_shapes_perceived_time,2022.2.4,60.23435985073935,
1,-233,0.15,unmet,256,red,green,high_Expectation,,,,,0,30,30,255,0.0011208999785594642,,,,,,,,,,,,,,None,0.19305555555555556,0.008333333333333333,865254,001,2023-02-23_22h29.57.389,expectation_shapes_perceived_time,2022.2.4,60.23435985073935,
1,167,0.85,met,127,green,red,high_Expectation,,,,,0,31,31,126,0.0012623000075109303,,,,,,,,,,,,,,None,0.19305555555555556,0.008333333333333333,865254,001,2023-02-23_22h29.57.389,expectation_shapes_perceived_time,2022.2.4,60.23435985073935,
1,300,0.85,met,180,green,red,high_Expectation,,,,,0,32,32,179,0.001128199975937605,,,,,,,,,,,,,,None,0.19305555555555556,0.008333333333333333,865254,001,2023-02-23_22h29.57.389,expectation_shapes_perceived_time,2022.2.4,60.23435985073935,
1,-100,0.85,met,271,green,red,high_Expectation,,,,,0,33,33,270,0.0010822000331245363,,,,,,,,,,,,,,None,0.19305555555555556,0.008333333333333333,865254,001,2023-02-23_22h29.57.389,expectation_shapes_perceived_time,2022.2.4,60.23435985073935,
1,-233,0.15,unmet,57,red,green,high_Expectation,,,,,0,34,34,56,0.0010843999916687608,,,,,,,,,,,,,,None,0.19305555555555556,0.008333333333333333,865254,001,2023-02-23_22h29.57.389,expectation_shapes_perceived_time,2022.2.4,60.23435985073935,
1,-167,0.85,met,279,green,red,high_Expectation,,,,,0,35,35,278,0.0010792999528348446,,,,,,,,,,,,,,None,0.19305555555555556,0.008333333333333333,865254,001,2023-02-23_22h29.57.389,expectation_shapes_perceived_time,2022.2.4,60.23435985073935,
1,167,0.85,met,59,green,red,high_Expectation,,,,,0,36,36,58,0.0011174999526701868,,,,,,,,,,,,,,None,0.19305555555555556,0.008333333333333333,865254,001,2023-02-23_22h29.57.389,expectation_shapes_perceived_time,2022.2.4,60.23435985073935,
1,167,0.85,met,288,green,red,high_Expectation,,,,,0,37,37,287,0.0010870000114664435,,,,,,,,,,,,,,None,0.19305555555555556,0.008333333333333333,865254,001,2023-02-23_22h29.57.389,expectation_shapes_perceived_time,2022.2.4,60.23435985073935,
1,100,0.85,met,22,green,red,high_Expectation,,,,,0,38,38,21,0.0010843999916687608,,,,,,,,,,,,,,None,0.19305555555555556,0.008333333333333333,865254,001,2023-02-23_22h29.57.389,expectation_shapes_perceived_time,2022.2.4,60.23435985073935,
1,-233,0.85,met,260,green,red,high_Expectation,,,,,0,39,39,259,0.0011280000326223671,,,,,,,,,,,,,,None,0.19305555555555556,0.006944444444444444,865254,001,2023-02-23_22h29.57.389,expectation_shapes_perceived_time,2022.2.4,60.23435985073935,
1,33,0.85,met,131,green,red,high_Expectation,,,,,0,40,40,130,0.0011166000040248036,,,,,,,,,,,,,,None,0.19305555555555556,0.006944444444444444,865254,001,2023-02-23_22h29.57.389,expectation_shapes_perceived_time,2022.2.4,60.23435985073935,
1,-233,0.85,met,119,green,red,high_Expectation,,,,,0,41,41,118,0.0012153999996371567,,,,,,,,,,,,,,None,0.19305555555555556,0.006944444444444444,865254,001,2023-02-23_22h29.57.389,expectation_shapes_perceived_time,2022.2.4,60.23435985073935,
1,-233,0.15,unmet,257,red,green,high_Expectation,,,,,0,42,42,256,0.0010733000235632062,,,,,,,,,,,,,,None,0.19305555555555556,0.006944444444444444,865254,001,2023-02-23_22h29.57.389,expectation_shapes_perceived_time,2022.2.4,60.23435985073935,
1,167,0.85,met,163,green,red,high_Expectation,,,,,0,43,43,162,0.0011119999689981341,,,,,,,,,,,,,,None,0.19305555555555556,0.006944444444444444,865254,001,2023-02-23_22h29.57.389,expectation_shapes_perceived_time,2022.2.4,60.23435985073935,
1,100,0.85,met,110,green,red,high_Expectation,,,,,0,44,44,109,0.0011389999999664724,,,,,,,,,,,,,,None,0.19305555555555556,0.006944444444444444,865254,001,2023-02-23_22h29.57.389,expectation_shapes_perceived_time,2022.2.4,60.23435985073935,
1,167,0.85,met,276,green,red,high_Expectation,,,,,0,45,45,275,0.001140100008342415,,,,,,,,,,,,,,None,0.19305555555555556,0.006944444444444444,865254,001,2023-02-23_22h29.57.389,expectation_shapes_perceived_time,2022.2.4,60.23435985073935,
1,-233,0.85,met,15,green,red,high_Expectation,,,,,0,46,46,14,0.001353600004222244,,,,,,,,,,,,,,None,0.19305555555555556,0.006944444444444444,865254,001,2023-02-23_22h29.57.389,expectation_shapes_perceived_time,2022.2.4,60.23435985073935,
1,33,0.15,unmet,248,red,green,high_Expectation,,,,,0,47,47,247,0.0010917000472545624,,,,,,,,,,,,,,None,0.19305555555555556,0.006944444444444444,865254,001,2023-02-23_22h29.57.389,expectation_shapes_perceived_time,2022.2.4,60.23435985073935,
1,233,0.85,met,99,green,red,high_Expectation,,,,,0,48,48,98,0.0010864000068977475,,,,,,,,,,,,,,None,0.19305555555555556,0.005555555555555556,865254,001,2023-02-23_22h29.57.389,expectation_shapes_perceived_time,2022.2.4,60.23435985073935,
1,-33,0.85,met,247,green,red,high_Expectation,,,,,0,49,49,246,0.0011269999668002129,,,,,,,,,,,,,,None,0.19305555555555556,0.005555555555555556,865254,001,2023-02-23_22h29.57.389,expectation_shapes_perceived_time,2022.2.4,60.23435985073935,
1,-167,0.85,met,290,green,red,high_Expectation,,,,,0,50,50,289,0.001185000000987202,,,,,,,,,,,,,,None,0.19305555555555556,0.005555555555555556,865254,001,2023-02-23_22h29.57.389,expectation_shapes_perceived_time,2022.2.4,60.23435985073935,
1,-100,0.85,met,173,green,red,high_Expectation,,,,,0,51,51,172,0.0012478999560698867,,,,,,,,,,,,,,None,0.19305555555555556,0.005555555555555556,865254,001,2023-02-23_22h29.57.389,expectation_shapes_perceived_time,2022.2.4,60.23435985073935,
1,167,0.85,met,50,green,red,high_Expectation,,,,,0,52,52,49,0.0011938000097870827,,,,,,,,,,,,,,None,0.19305555555555556,0.004166666666666667,865254,001,2023-02-23_22h29.57.389,expectation_shapes_perceived_time,2022.2.4,60.23435985073935,
1,-167,0.85,met,183,green,red,high_Expectation,,,,,0,53,53,182,0.00106519996188581,,,,,,,,,,,,,,None,0.19305555555555556,0.004166666666666667,865254,001,2023-02-23_22h29.57.389,expectation_shapes_perceived_time,2022.2.4,60.23435985073935,
1,233,0.85,met,162,green,red,high_Expectation,,,,,0,54,54,161,0.0011012000031769276,,,,,,,,,,,,,,None,0.19305555555555556,0.004166666666666667,865254,001,2023-02-23_22h29.57.389,expectation_shapes_perceived_time,2022.2.4,60.23435985073935,
1,167,0.85,met,158,green,red,high_Expectation,,,,,0,55,55,157,0.0012568000238388777,,,,,,,,,,,,,,None,0.19305555555555556,0.004166666666666667,865254,001,2023-02-23_22h29.57.389,expectation_shapes_perceived_time,2022.2.4,60.23435985073935,
1,-100,0.85,met,249,green,red,high_Expectation,,,,,0,56,56,248,0.001087699958588928,,,,,,,,,,,,,,None,0.19305555555555556,0.004166666666666667,865254,001,2023-02-23_22h29.57.389,expectation_shapes_perceived_time,2022.2.4,60.23435985073935,
1,-33,0.85,met,229,green,red,high_Expectation,,,,,0,57,57,228,0.0011085000005550683,,,,,,,,,,,,,,None,0.19305555555555556,0.002777777777777778,865254,001,2023-02-23_22h29.57.389,expectation_shapes_perceived_time,2022.2.4,60.23435985073935,
1,233,0.85,met,281,green,red,high_Expectation,,,,,0,58,58,280,0.001126500021200627,,,,,,,,,,,,,,None,0.19305555555555556,0.002777777777777778,865254,001,2023-02-23_22h29.57.389,expectation_shapes_perceived_time,2022.2.4,60.23435985073935,
1,167,0.15,unmet,198,red,green,high_Expectation,,,,,0,59,59,197,0.0011911999899894,,,,,,,,,,,,,,None,0.19305555555555556,0.002777777777777778,865254,001,2023-02-23_22h29.57.389,expectation_shapes_perceived_time,2022.2.4,60.23435985073935,
1,-167,0.15,unmet,223,red,green,high_Expectation,,,,,0,60,60,222,0.0012092000106349587,,,,,,,,,,,,,,None,0.19305555555555556,0.002777777777777778,865254,001,2023-02-23_22h29.57.389,expectation_shapes_perceived_time,2022.2.4,60.23435985073935,
1,-300,0.85,met,164,green,red,high_Expectation,,,,,0,61,61,163,0.001218399964272976,,,,,,,,,,,,,,None,0.19305555555555556,0.001388888888888889,865254,001,2023-02-23_22h29.57.389,expectation_shapes_perceived_time,2022.2.4,60.23435985073935,
1,-33,0.85,met,85,green,red,high_Expectation,,,,,0,62,62,84,0.0012264000251889229,,,,,,,,,,,,,,None,0.19305555555555556,0.001388888888888889,865254,001,2023-02-23_22h29.57.389,expectation_shapes_perceived_time,2022.2.4,60.23435985073935,
1,-100,0.85,met,109,green,red,high_Expectation,,,,,0,63,63,108,0.001137400045990944,,,,,,,,,,,,,,None,0.19305555555555556,0.001388888888888889,865254,001,2023-02-23_22h29.57.389,expectation_shapes_perceived_time,2022.2.4,60.23435985073935,
1,-100,0.15,unmet,86,red,green,high_Expectation,,,,,0,64,64,85,0.0011511999764479697,,,,,,,,,,,,,,None,0.19305555555555556,0.001388888888888889,865254,001,2023-02-23_22h29.57.389,expectation_shapes_perceived_time,2022.2.4,60.23435985073935,
1,-233,0.85,met,178,green,red,high_Expectation,,,,,0,65,65,177,0.0011202000314369798,,,,,,,,,,,,,,None,0.19305555555555556,0.001388888888888889,865254,001,2023-02-23_22h29.57.389,expectation_shapes_perceived_time,2022.2.4,60.23435985073935,
1,100,0.85,met,187,green,red,high_Expectation,,,,,0,66,66,186,0.0011051999754272401,,,,,,,,,,,,,,None,0.19305555555555556,0.001388888888888889,865254,001,2023-02-23_22h29.57.389,expectation_shapes_perceived_time,2022.2.4,60.23435985073935,
1,-233,0.85,met,170,green,red,high_Expectation,,,,,0,67,67,169,0.0011477000080049038,,,,,,,,,,,,,,None,0.19305555555555556,0.001388888888888889,865254,001,2023-02-23_22h29.57.389,expectation_shapes_perceived_time,2022.2.4,60.23435985073935,
1,300,0.85,met,161,green,red,high_Expectation,,,,,0,68,68,160,0.0011437999783083797,,,,,,,,,,,,,,None,0.19305555555555556,0.001388888888888889,865254,001,2023-02-23_22h29.57.389,expectation_shapes_perceived_time,2022.2.4,60.23435985073935,
1,-233,0.85,met,97,green,red,high_Expectation,,,,,0,69,69,96,0.0011556000099517405,,,,,,,,,,,,,,None,0.19305555555555556,0.001388888888888889,865254,001,2023-02-23_22h29.57.389,expectation_shapes_perceived_time,2022.2.4,60.23435985073935,
1,300,0.85,met,239,green,red,high_Expectation,,,,,0,70,70,238,0.0011847999994643033,,,,,,,,,,,,,,None,0.19305555555555556,0.001388888888888889,865254,001,2023-02-23_22h29.57.389,expectation_shapes_perceived_time,2022.2.4,60.23435985073935,
1,33,0.85,met,201,green,red,high_Expectation,,,,,0,71,71,200,0.001220199977979064,,,,,,,,,,,,,,None,0.19305555555555556,0.001388888888888889,865254,001,2023-02-23_22h29.57.389,expectation_shapes_perceived_time,2022.2.4,60.23435985073935,
1,300,0.85,met,56,green,red,high_Expectation,,,,,0,72,72,55,0.0012369999894872308,,,,,,,,,,,,,,None,0.19305555555555556,0.0,865254,001,2023-02-23_22h29.57.389,expectation_shapes_perceived_time,2022.2.4,60.23435985073935,
1,-100,0.85,met,265,green,red,high_Expectation,,,,,0,73,73,264,0.0011438000365160406,,,,,,,,,,,,,,None,0.19305555555555556,0.0,865254,001,2023-02-23_22h29.57.389,expectation_shapes_perceived_time,2022.2.4,60.23435985073935,
1,233,0.85,met,116,green,red,high_Expectation,,,,,0,74,74,115,0.0011497000232338905,,,,,,,,,,,,,,None,0.19305555555555556,0.0,865254,001,2023-02-23_22h29.57.389,expectation_shapes_perceived_time,2022.2.4,60.23435985073935,
1,100,0.85,met,292,green,red,high_Expectation,,,,,0,75,75,291,0.00107709999429062,,,,,,,,,,,,,,None,0.19305555555555556,0.0,865254,001,2023-02-23_22h29.57.389,expectation_shapes_perceived_time,2022.2.4,60.23435985073935,
1,100,0.85,met,159,green,red,high_Expectation,,,,,0,76,76,158,0.0012322000111453235,,,,,,,,,,,,,,None,0.19305555555555556,0.0,865254,001,2023-02-23_22h29.57.389,expectation_shapes_perceived_time,2022.2.4,60.23435985073935,
1,33,0.85,met,194,green,red,high_Expectation,,,,,0,77,77,193,0.0011378999915905297,,,,,,,,,,,,,,None,0.19305555555555556,0.0,865254,001,2023-02-23_22h29.57.389,expectation_shapes_perceived_time,2022.2.4,60.23435985073935,
1,167,0.15,unmet,293,red,green,high_Expectation,,,,,0,78,78,292,0.0018486000481061637,,,,,,,,,,,,,,None,0.19305555555555556,-0.001388888888888889,865254,001,2023-02-23_22h29.57.389,expectation_shapes_perceived_time,2022.2.4,60.23435985073935,
1,-33,0.85,met,19,green,red,high_Expectation,,,,,0,79,79,18,0.0011995000531896949,,,,,,,,,,,,,,None,0.19305555555555556,-0.001388888888888889,865254,001,2023-02-23_22h29.57.389,expectation_shapes_perceived_time,2022.2.4,60.23435985073935,
1,-33,0.85,met,112,green,red,high_Expectation,,,,,0,80,80,111,0.0012567999656312168,,,,,,,,,,,,,,None,0.19305555555555556,-0.001388888888888889,865254,001,2023-02-23_22h29.57.389,expectation_shapes_perceived_time,2022.2.4,60.23435985073935,
1,-167,0.85,met,37,green,red,high_Expectation,,,,,0,81,81,36,0.001130899996496737,,,,,,,,,,,,,,None,0.19305555555555556,-0.002777777777777778,865254,001,2023-02-23_22h29.57.389,expectation_shapes_perceived_time,2022.2.4,60.23435985073935,
1,-233,0.85,met,253,green,red,high_Expectation,,,,,0,82,82,252,0.0012239000061526895,,,,,,,,,,,,,,None,0.19305555555555556,-0.002777777777777778,865254,001,2023-02-23_22h29.57.389,expectation_shapes_perceived_time,2022.2.4,60.23435985073935,
1,100,0.85,met,235,green,red,high_Expectation,,,,,0,83,83,234,0.0011789999553002417,,,,,,,,,,,,,,None,0.19305555555555556,-0.002777777777777778,865254,001,2023-02-23_22h29.57.389,expectation_shapes_perceived_time,2022.2.4,60.23435985073935,
1,-233,0.85,met,264,green,red,high_Expectation,,,,,0,84,84,263,0.0012045999756082892,,,,,,,,,,,,,,None,0.19305555555555556,-0.004166666666666667,865254,001,2023-02-23_22h29.57.389,expectation_shapes_perceived_time,2022.2.4,60.23435985073935,
1,-300,0.85,met,135,green,red,high_Expectation,,,,,0,85,85,134,0.001130299991928041,,,,,,,,,,,,,,None,0.19305555555555556,-0.004166666666666667,865254,001,2023-02-23_22h29.57.389,expectation_shapes_perceived_time,2022.2.4,60.23435985073935,
1,300,0.85,met,151,green,red,high_Expectation,,,,,0,86,86,150,0.001256300020031631,,,,,,,,,,,,,,None,0.19305555555555556,-0.004166666666666667,865254,001,2023-02-23_22h29.57.389,expectation_shapes_perceived_time,2022.2.4,60.23435985073935,
1,300,0.85,met,167,green,red,high_Expectation,,,,,0,87,87,166,0.0011590999783948064,,,,,,,,,,,,,,None,0.19305555555555556,-0.004166666666666667,865254,001,2023-02-23_22h29.57.389,expectation_shapes_perceived_time,2022.2.4,60.23435985073935,
1,100,0.85,met,5,green,red,high_Expectation,,,,,0,88,88,4,0.0012397000100463629,,,,,,,,,,,,,,None,0.19305555555555556,-0.004166666666666667,865254,001,2023-02-23_22h29.57.389,expectation_shapes_perceived_time,2022.2.4,60.23435985073935,
1,233,0.85,met,21,green,red,high_Expectation,,,,,0,89,89,20,0.001221099984832108,,,,,,,,,,,,,,None,0.19305555555555556,-0.005555555555555556,865254,001,2023-02-23_22h29.57.389,expectation_shapes_perceived_time,2022.2.4,60.23435985073935,
1,-100,0.85,met,242,green,red,high_Expectation,,,,,0,90,90,241,0.0011841999948956072,,,,,,,,,,,,,,None,0.19305555555555556,-0.005555555555555556,865254,001,2023-02-23_22h29.57.389,expectation_shapes_perceived_time,2022.2.4,60.23435985073935,
1,-300,0.85,met,48,green,red,high_Expectation,,,,,0,91,91,47,0.001218999968841672,,,,,,,,,,,,,,None,0.19305555555555556,-0.005555555555555556,865254,001,2023-02-23_22h29.57.389,expectation_shapes_perceived_time,2022.2.4,60.23435985073935,
1,300,0.15,unmet,101,red,green,high_Expectation,,,,,0,92,92,100,0.0011818999773822725,,,,,,,,,,,,,,None,0.19305555555555556,-0.005555555555555556,865254,001,2023-02-23_22h29.57.389,expectation_shapes_perceived_time,2022.2.4,60.23435985073935,
1,167,0.85,met,246,green,red,high_Expectation,,,,,0,93,93,245,0.001127899973653257,,,,,,,,,,,,,,None,0.19305555555555556,-0.005555555555555556,865254,001,2023-02-23_22h29.57.389,expectation_shapes_perceived_time,2022.2.4,60.23435985073935,
1,167,0.15,unmet,237,red,green,high_Expectation,,,,,0,94,94,236,0.0010967999696731567,,,,,,,,,,,,,,None,0.19305555555555556,-0.008333333333333333,865254,001,2023-02-23_22h29.57.389,expectation_shapes_perceived_time,2022.2.4,60.23435985073935,
1,33,0.85,met,205,green,red,high_Expectation,,,,,0,95,95,204,0.0011245000059716403,,,,,,,,,,,,,,None,0.19305555555555556,-0.008333333333333333,865254,001,2023-02-23_22h29.57.389,expectation_shapes_perceived_time,2022.2.4,60.23435985073935,
1,-100,0.85,met,275,green,red,high_Expectation,,,,,0,96,96,274,0.001131500001065433,,,,,,,,,,,,,,None,0.19305555555555556,-0.008333333333333333,865254,001,2023-02-23_22h29.57.389,expectation_shapes_perceived_time,2022.2.4,60.23435985073935,
1,-33,0.85,met,168,green,red,high_Expectation,,,,,0,97,97,167,0.0012191000278107822,,,,,,,,,,,,,,None,0.19305555555555556,-0.008333333333333333,865254,001,2023-02-23_22h29.57.389,expectation_shapes_perceived_time,2022.2.4,60.23435985073935,
1,100,0.85,met,139,green,red,high_Expectation,,,,,0,98,98,138,0.0011476000072434545,,,,,,,,,,,,,,None,0.19305555555555556,-0.008333333333333333,865254,001,2023-02-23_22h29.57.389,expectation_shapes_perceived_time,2022.2.4,60.23435985073935,
1,100,0.85,met,74,green,red,high_Expectation,,,,,0,99,99,73,0.0010932000004686415,,,,,,,,,,,,,,None,0.19305555555555556,-0.009722222222222222,865254,001,2023-02-23_22h29.57.389,expectation_shapes_perceived_time,2022.2.4,60.23435985073935,
1,33,0.85,met,241,green,red,high_Expectation,,,,,0,100,100,240,0.0011187000200152397,,,,,,,,,,,,,,None,0.19305555555555556,-0.009722222222222222,865254,001,2023-02-23_22h29.57.389,expectation_shapes_perceived_time,2022.2.4,60.23435985073935,
1,167,0.85,met,261,green,red,high_Expectation,,,,,0,101,101,260,0.0011163000017404556,,,,,,,,,,,,,,None,0.19305555555555556,-0.009722222222222222,865254,001,2023-02-23_22h29.57.389,expectation_shapes_perceived_time,2022.2.4,60.23435985073935,
1,-33,0.85,met,117,green,red,high_Expectation,,,,,0,102,102,116,0.0012330999597907066,,,,,,,,,,,,,,None,0.19305555555555556,-0.009722222222222222,865254,001,2023-02-23_22h29.57.389,expectation_shapes_perceived_time,2022.2.4,60.23435985073935,
1,-167,0.85,met,299,green,red,high_Expectation,,,,,0,103,103,298,0.0011971999774686992,,,,,,,,,,,,,,None,0.19305555555555556,-0.009722222222222222,865254,001,2023-02-23_22h29.57.389,expectation_shapes_perceived_time,2022.2.4,60.23435985073935,
1,300,0.85,met,154,green,red,high_Expectation,,,,,0,104,104,153,0.0012404000153765082,,,,,,,,,,,,,,None,0.19305555555555556,-0.011111111111111112,865254,001,2023-02-23_22h29.57.389,expectation_shapes_perceived_time,2022.2.4,60.23435985073935,
1,-167,0.85,met,203,green,red,high_Expectation,,,,,0,105,105,202,0.0011996999965049326,,,,,,,,,,,,,,None,0.19305555555555556,-0.011111111111111112,865254,001,2023-02-23_22h29.57.389,expectation_shapes_perceived_time,2022.2.4,60.23435985073935,
1,-33,0.85,met,190,green,red,high_Expectation,,,,,0,106,106,189,0.001136199978645891,,,,,,,,,,,,,,None,0.19305555555555556,-0.011111111111111112,865254,001,2023-02-23_22h29.57.389,expectation_shapes_perceived_time,2022.2.4,60.23435985073935,
1,100,0.85,met,62,green,red,high_Expectation,,,,,0,107,107,61,0.0012178000179119408,,,,,,,,,,,,,,None,0.19305555555555556,-0.0125,865254,001,2023-02-23_22h29.57.389,expectation_shapes_perceived_time,2022.2.4,60.23435985073935,
1,-300,0.85,met,96,green,red,high_Expectation,,,,,0,108,108,95,0.0012212999863550067,,,,,,,,,,,,,,None,0.19305555555555556,-0.0125,865254,001,2023-02-23_22h29.57.389,expectation_shapes_perceived_time,2022.2.4,60.23435985073935,
1,233,0.85,met,146,green,red,high_Expectation,,,,,0,109,109,145,0.0011150999926030636,,,,,,,,,,,,,,None,0.19305555555555556,-0.0125,865254,001,2023-02-23_22h29.57.389,expectation_shapes_perceived_time,2022.2.4,60.23435985073935,
1,-300,0.85,met,219,green,red,high_Expectation,,,,,0,110,110,218,0.0012027999619022012,,,,,,,,,,,,,,None,0.19305555555555556,-0.0125,865254,001,2023-02-23_22h29.57.389,expectation_shapes_perceived_time,2022.2.4,60.23435985073935,
1,-300,0.85,met,118,green,red,high_Expectation,,,,,0,111,111,117,0.0011796000180765986,,,,,,,,,,,,,,None,0.19305555555555556,-0.0125,865254,001,2023-02-23_22h29.57.389,expectation_shapes_perceived_time,2022.2.4,60.23435985073935,
1,300,0.85,met,12,green,red,high_Expectation,,,,,0,112,112,11,0.0011950000189244747,,,,,,,,,,,,,,None,0.19305555555555556,-0.0125,865254,001,2023-02-23_22h29.57.389,expectation_shapes_perceived_time,2022.2.4,60.23435985073935,
1,167,0.15,unmet,174,red,green,high_Expectation,,,,,0,113,113,173,0.001167000038549304,,,,,,,,,,,,,,None,0.19305555555555556,-0.015277777777777777,865254,001,2023-02-23_22h29.57.389,expectation_shapes_perceived_time,2022.2.4,60.23435985073935,
1,-33,0.85,met,193,green,red,high_Expectation,,,,,0,114,114,192,0.0011980000417679548,,,,,,,,,,,,,,None,0.19305555555555556,-0.015277777777777777,865254,001,2023-02-23_22h29.57.389,expectation_shapes_perceived_time,2022.2.4,60.23435985073935,
1,-100,0.85,met,175,green,red,high_Expectation,,,,,0,115,115,174,0.0012169000110588968,,,,,,,,,,,,,,None,0.19305555555555556,-0.015277777777777777,865254,001,2023-02-23_22h29.57.389,expectation_shapes_perceived_time,2022.2.4,60.23435985073935,
1,-33,0.85,met,34,green,red,high_Expectation,,,,,0,116,116,33,0.0011484999558888376,,,,,,,,,,,,,,None,0.19305555555555556,-0.016666666666666666,865254,001,2023-02-23_22h29.57.389,expectation_shapes_perceived_time,2022.2.4,60.23435985073935,
1,-300,0.85,met,130,green,red,high_Expectation,,,,,0,117,117,129,0.0012530999956652522,,,,,,,,,,,,,,None,0.19305555555555556,-0.016666666666666666,865254,001,2023-02-23_22h29.57.389,expectation_shapes_perceived_time,2022.2.4,60.23435985073935,
1,-167,0.85,met,268,green,red,high_Expectation,,,,,0,118,118,267,0.001159599982202053,,,,,,,,,,,,,,None,0.19305555555555556,-0.016666666666666666,865254,001,2023-02-23_22h29.57.389,expectation_shapes_perceived_time,2022.2.4,60.23435985073935,
1,-100,0.85,met,80,green,red,high_Expectation,,,,,0,119,119,79,0.0011702000047080219,,,,,,,,,,,,,,None,0.19305555555555556,-0.016666666666666666,865254,001,2023-02-23_22h29.57.389,expectation_shapes_perceived_time,2022.2.4,60.23435985073935,
1,-233,0.85,met,210,green,red,high_Expectation,,,,,0,120,120,209,0.001133600017055869,,,,,,,,,,,,,,None,0.19305555555555556,-0.016666666666666666,865254,001,2023-02-23_22h29.57.389,expectation_shapes_perceived_time,2022.2.4,60.23435985073935,
1,-233,0.85,met,38,green,red,high_Expectation,,,,,0,121,121,37,0.0012336000218056142,,,,,,,,,,,,,,None,0.19305555555555556,-0.018055555555555554,865254,001,2023-02-23_22h29.57.389,expectation_shapes_perceived_time,2022.2.4,60.23435985073935,
1,33,0.85,met,66,green,red,high_Expectation,,,,,0,122,122,65,0.0012141999904997647,,,,,,,,,,,,,,None,0.19305555555555556,-0.018055555555555554,865254,001,2023-02-23_22h29.57.389,expectation_shapes_perceived_time,2022.2.4,60.23435985073935,
1,-167,0.85,met,280,green,red,high_Expectation,,,,,0,123,123,279,0.001221699989400804,,,,,,,,,,,,,,None,0.19305555555555556,-0.018055555555555554,865254,001,2023-02-23_22h29.57.389,expectation_shapes_perceived_time,2022.2.4,60.23435985073935,
1,-233,0.85,met,88,green,red,high_Expectation,,,,,0,124,124,87,0.0012127000372856855,,,,,,,,,,,,,,None,0.19166666666666668,-0.020833333333333332,865254,001,2023-02-23_22h29.57.389,expectation_shapes_perceived_time,2022.2.4,60.23435985073935,
1,300,0.15,unmet,153,red,green,high_Expectation,,,,,0,125,125,152,0.001110200013499707,,,,,,,,,,,,,,None,0.19166666666666668,-0.020833333333333332,865254,001,2023-02-23_22h29.57.389,expectation_shapes_perceived_time,2022.2.4,60.23435985073935,
1,167,0.85,met,79,green,red,high_Expectation,,,,,0,126,126,78,0.0011506000300869346,,,,,,,,,,,,,,None,0.19166666666666668,-0.020833333333333332,865254,001,2023-02-23_22h29.57.389,expectation_shapes_perceived_time,2022.2.4,60.23435985073935,
1,-100,0.15,unmet,93,red,green,high_Expectation,,,,,0,127,127,92,0.0011286999797448516,,,,,,,,,,,,,,None,0.19166666666666668,-0.020833333333333332,865254,001,2023-02-23_22h29.57.389,expectation_shapes_perceived_time,2022.2.4,60.23435985073935,
1,300,0.85,met,28,green,red,high_Expectation,,,,,0,128,128,27,0.0011677999864332378,,,,,,,,,,,,,,None,0.19166666666666668,-0.020833333333333332,865254,001,2023-02-23_22h29.57.389,expectation_shapes_perceived_time,2022.2.4,60.23435985073935,
1,33,0.85,met,141,green,red,high_Expectation,,,,,0,129,129,140,0.0011332000140100718,,,,,,,,,,,,,,None,0.19166666666666668,-0.022222222222222223,865254,001,2023-02-23_22h29.57.389,expectation_shapes_perceived_time,2022.2.4,60.23435985073935,
1,-167,0.85,met,211,green,red,high_Expectation,,,,,0,130,130,210,0.0012442999868653715,,,,,,,,,,,,,,None,0.19166666666666668,-0.022222222222222223,865254,001,2023-02-23_22h29.57.389,expectation_shapes_perceived_time,2022.2.4,60.23435985073935,
1,-33,0.85,met,128,green,red,high_Expectation,,,,,0,131,131,127,0.0011875000200234354,,,,,,,,,,,,,,None,0.19166666666666668,-0.022222222222222223,865254,001,2023-02-23_22h29.57.389,expectation_shapes_perceived_time,2022.2.4,60.23435985073935,
1,33,0.15,unmet,215,red,green,high_Expectation,,,,,0,132,132,214,0.0011897000367753208,,,,,,,,,,,,,,None,0.19166666666666668,-0.022222222222222223,865254,001,2023-02-23_22h29.57.389,expectation_shapes_perceived_time,2022.2.4,60.23435985073935,
1,167,0.85,met,89,green,red,high_Expectation,,,,,0,133,133,88,0.0012220999924466014,,,,,,,,,,,,,,None,0.19166666666666668,-0.022222222222222223,865254,001,2023-02-23_22h29.57.389,expectation_shapes_perceived_time,2022.2.4,60.23435985073935,
1,300,0.15,unmet,298,red,green,high_Expectation,,,,,0,134,134,297,0.001199199992697686,,,,,,,,,,,,,,None,0.19166666666666668,-0.02361111111111111,865254,001,2023-02-23_22h29.57.389,expectation_shapes_perceived_time,2022.2.4,60.23435985073935,
1,-167,0.85,met,282,green,red,high_Expectation,,,,,0,135,135,281,0.0011820999789051712,,,,,,,,,,,,,,None,0.19166666666666668,-0.02361111111111111,865254,001,2023-02-23_22h29.57.389,expectation_shapes_perceived_time,2022.2.4,60.23435985073935,
1,-33,0.85,met,125,green,red,high_Expectation,,,,,0,136,136,124,0.0012239999487064779,,,,,,,,,,,,,,None,0.19166666666666668,-0.02361111111111111,865254,001,2023-02-23_22h29.57.389,expectation_shapes_perceived_time,2022.2.4,60.23435985073935,
1,300,0.15,unmet,98,red,green,high_Expectation,,,,,0,137,137,97,0.0012128000380471349,,,,,,,,,,,,,,None,0.19166666666666668,-0.02361111111111111,865254,001,2023-02-23_22h29.57.389,expectation_shapes_perceived_time,2022.2.4,60.23435985073935,
1,100,0.85,met,7,green,red,high_Expectation,,,,,0,138,138,6,0.0012109000235795975,,,,,,,,,,,,,,None,0.19166666666666668,-0.02361111111111111,865254,001,2023-02-23_22h29.57.389,expectation_shapes_perceived_time,2022.2.4,60.23435985073935,
1,33,0.85,met,226,green,red,high_Expectation,,,,,0,139,139,225,0.00118240003939718,,,,,,,,,,,,,,None,0.19166666666666668,-0.02361111111111111,865254,001,2023-02-23_22h29.57.389,expectation_shapes_perceived_time,2022.2.4,60.23435985073935,
1,-100,0.15,unmet,30,red,green,high_Expectation,,,,,0,140,140,29,0.0012827000464312732,,,,,,,,,,,,,,None,0.19166666666666668,-0.02361111111111111,865254,001,2023-02-23_22h29.57.389,expectation_shapes_perceived_time,2022.2.4,60.23435985073935,
1,-300,0.85,met,214,green,red,high_Expectation,,,,,0,141,141,213,0.001131199998781085,,,,,,,,,,,,,,None,0.19166666666666668,-0.02361111111111111,865254,001,2023-02-23_22h29.57.389,expectation_shapes_perceived_time,2022.2.4,60.23435985073935,
1,233,0.85,met,103,green,red,high_Expectation,,,,,0,142,142,102,0.0012425000313669443,,,,,,,,,,,,,,None,0.19166666666666668,-0.025,865254,001,2023-02-23_22h29.57.389,expectation_shapes_perceived_time,2022.2.4,60.23435985073935,
1,233,0.85,met,33,green,red,high_Expectation,,,,,0,143,143,32,0.0012333999620750546,,,,,,,,,,,,,,None,0.19166666666666668,-0.025,865254,001,2023-02-23_22h29.57.389,expectation_shapes_perceived_time,2022.2.4,60.23435985073935,
1,-100,0.85,met,82,green,red,high_Expectation,,,,,0,144,144,81,0.0012349000317044556,,,,,,,,,,,,,,None,0.19166666666666668,-0.025,865254,001,2023-02-23_22h29.57.389,expectation_shapes_perceived_time,2022.2.4,60.23435985073935,
1,-167,0.15,unmet,206,red,green,high_Expectation,,,,,0,145,145,205,0.0012103999615646899,,,,,,,,,,,,,,None,0.19166666666666668,-0.025,865254,001,2023-02-23_22h29.57.389,expectation_shapes_perceived_time,2022.2.4,60.23435985073935,
1,-100,0.85,met,197,green,red,high_Expectation,,,,,0,146,146,196,0.001143899979069829,,,,,,,,,,,,,,None,0.19166666666666668,-0.025,865254,001,2023-02-23_22h29.57.389,expectation_shapes_perceived_time,2022.2.4,60.23435985073935,
1,-33,0.85,met,67,green,red,high_Expectation,,,,,0,147,147,66,0.0011918999953195453,,,,,,,,,,,,,,None,0.19166666666666668,-0.02638888888888889,865254,001,2023-02-23_22h29.57.389,expectation_shapes_perceived_time,2022.2.4,60.23435985073935,
1,100,0.85,met,83,green,red,high_Expectation,,,,,0,148,148,82,0.0011297999881207943,,,,,,,,,,,,,,None,0.19166666666666668,-0.02638888888888889,865254,001,2023-02-23_22h29.57.389,expectation_shapes_perceived_time,2022.2.4,60.23435985073935,
1,233,0.85,met,104,green,red,high_Expectation,,,,,0,149,149,103,0.0012316000065766275,,,,,,,,,,,,,,None,0.19166666666666668,-0.02638888888888889,865254,001,2023-02-23_22h29.57.389,expectation_shapes_perceived_time,2022.2.4,60.23435985073935,
1,-33,0.85,met,92,green,red,high_Expectation,,,,,0,150,150,91,0.001235300034750253,,,,,,,,,,,,,,None,0.19166666666666668,-0.02638888888888889,865254,001,2023-02-23_22h29.57.389,expectation_shapes_perceived_time,2022.2.4,60.23435985073935,
1,-100,0.85,met,300,green,red,high_Expectation,,,,,0,151,151,299,0.0012270999723114073,,,,,,,,,,,,,,None,0.19166666666666668,-0.02638888888888889,865254,001,2023-02-23_22h29.57.389,expectation_shapes_perceived_time,2022.2.4,60.23435985073935,
1,167,0.85,met,230,green,red,high_Expectation,,,,,0,152,152,229,0.0011724999640136957,,,,,,,,,,,,,,None,0.19166666666666668,-0.02638888888888889,865254,001,2023-02-23_22h29.57.389,expectation_shapes_perceived_time,2022.2.4,60.23435985073935,
1,33,0.15,unmet,4,red,green,high_Expectation,,,,,0,153,153,3,0.0012390000047162175,,,,,,,,,,,,,,None,0.19166666666666668,-0.02638888888888889,865254,001,2023-02-23_22h29.57.389,expectation_shapes_perceived_time,2022.2.4,60.23435985073935,
1,-100,0.85,met,250,green,red,high_Expectation,,,,,0,154,154,249,0.0012273999745957553,,,,,,,,,,,,,,None,0.19166666666666668,-0.02638888888888889,865254,001,2023-02-23_22h29.57.389,expectation_shapes_perceived_time,2022.2.4,60.23435985073935,
1,-233,0.85,met,286,green,red,high_Expectation,,,,,0,155,155,285,0.0011855000047944486,,,,,,,,,,,,,,None,0.19166666666666668,-0.02638888888888889,865254,001,2023-02-23_22h29.57.389,expectation_shapes_perceived_time,2022.2.4,60.23435985073935,
1,-300,0.85,met,252,green,red,high_Expectation,,,,,0,156,156,251,0.0011876999633386731,,,,,,,,,,,,,,None,0.19166666666666668,-0.029166666666666667,865254,001,2023-02-23_22h29.57.389,expectation_shapes_perceived_time,2022.2.4,60.23435985073935,
1,-167,0.85,met,126,green,red,high_Expectation,,,,,0,157,157,125,0.0011481999536044896,,,,,,,,,,,,,,None,0.19166666666666668,-0.029166666666666667,865254,001,2023-02-23_22h29.57.389,expectation_shapes_perceived_time,2022.2.4,60.23435985073935,
1,-100,0.85,met,220,green,red,high_Expectation,,,,,0,158,158,219,0.0017336999881081283,,,,,,,,,,,,,,None,0.19166666666666668,-0.029166666666666667,865254,001,2023-02-23_22h29.57.389,expectation_shapes_perceived_time,2022.2.4,60.23435985073935,
1,233,0.85,met,217,green,red,high_Expectation,,,,,0,159,159,216,0.0011685999925248325,,,,,,,,,,,,,,None,0.19166666666666668,-0.029166666666666667,865254,001,2023-02-23_22h29.57.389,expectation_shapes_perceived_time,2022.2.4,60.23435985073935,
1,-300,0.85,met,111,green,red,high_Expectation,,,,,0,160,160,110,0.0012439999845810235,,,,,,,,,,,,,,None,0.19166666666666668,-0.030555555555555555,865254,001,2023-02-23_22h29.57.389,expectation_shapes_perceived_time,2022.2.4,60.23435985073935,
1,-300,0.85,met,39,green,red,high_Expectation,,,,,0,161,161,38,0.0011288999812677503,,,,,,,,,,,,,,None,0.19166666666666668,-0.030555555555555555,865254,001,2023-02-23_22h29.57.389,expectation_shapes_perceived_time,2022.2.4,60.23435985073935,
1,33,0.85,met,91,green,red,high_Expectation,,,,,0,162,162,90,0.001316600013524294,,,,,,,,,,,,,,None,0.19166666666666668,-0.030555555555555555,865254,001,2023-02-23_22h29.57.389,expectation_shapes_perceived_time,2022.2.4,60.23435985073935,
1,-233,0.15,unmet,176,red,green,high_Expectation,,,,,0,163,163,175,0.0011876999633386731,,,,,,,,,,,,,,None,0.19166666666666668,-0.030555555555555555,865254,001,2023-02-23_22h29.57.389,expectation_shapes_perceived_time,2022.2.4,60.23435985073935,
1,233,0.85,met,90,green,red,high_Expectation,,,,,0,164,164,89,0.0011943000135943294,,,,,,,,,,,,,,None,0.19166666666666668,-0.030555555555555555,865254,001,2023-02-23_22h29.57.389,expectation_shapes_perceived_time,2022.2.4,60.23435985073935,
1,233,0.85,met,160,green,red,high_Expectation,,,,,0,165,165,159,0.0012024000170640647,,,,,,,,,,,,,,None,0.19166666666666668,-0.030555555555555555,865254,001,2023-02-23_22h29.57.389,expectation_shapes_perceived_time,2022.2.4,60.23435985073935,
1,300,0.85,met,23,green,red,high_Expectation,,,,,0,166,166,22,0.0011334000155329704,,,,,,,,,,,,,,None,0.19166666666666668,-0.030555555555555555,865254,001,2023-02-23_22h29.57.389,expectation_shapes_perceived_time,2022.2.4,60.23435985073935,
1,-233,0.85,met,195,green,red,high_Expectation,,,,,0,167,167,194,0.0012165000080130994,,,,,,,,,,,,,,None,0.19166666666666668,-0.030555555555555555,865254,001,2023-02-23_22h29.57.389,expectation_shapes_perceived_time,2022.2.4,60.23435985073935,
1,-167,0.85,met,227,green,red,high_Expectation,,,,,0,168,168,226,0.0011975000379607081,,,,,,,,,,,,,,None,0.19027777777777777,-0.03194444444444444,865254,001,2023-02-23_22h29.57.389,expectation_shapes_perceived_time,2022.2.4,60.23435985073935,
1,300,0.15,unmet,148,red,green,high_Expectation,,,,,0,169,169,147,0.0012410000199452043,,,,,,,,,,,,,,None,0.19027777777777777,-0.03194444444444444,865254,001,2023-02-23_22h29.57.389,expectation_shapes_perceived_time,2022.2.4,60.23435985073935,
1,-233,0.85,met,133,green,red,high_Expectation,,,,,0,170,170,132,0.00119270000141114,,,,,,,,,,,,,,None,0.19027777777777777,-0.03194444444444444,865254,001,2023-02-23_22h29.57.389,expectation_shapes_perceived_time,2022.2.4,60.23435985073935,
1,100,0.85,met,155,green,red,high_Expectation,,,,,0,171,171,154,0.0012490000226534903,,,,,,,,,,,,,,None,0.19027777777777777,-0.03194444444444444,865254,001,2023-02-23_22h29.57.389,expectation_shapes_perceived_time,2022.2.4,60.23435985073935,
1,233,0.85,met,108,green,red,high_Expectation,,,,,0,172,172,107,0.0011901999823749065,,,,,,,,,,,,,,None,0.19027777777777777,-0.03333333333333333,865254,001,2023-02-23_22h29.57.389,expectation_shapes_perceived_time,2022.2.4,60.23435985073935,
1,-300,0.85,met,189,green,red,high_Expectation,,,,,0,173,173,188,0.0012173000141046941,,,,,,,,,,,,,,None,0.19027777777777777,-0.03333333333333333,865254,001,2023-02-23_22h29.57.389,expectation_shapes_perceived_time,2022.2.4,60.23435985073935,
1,-100,0.85,met,26,green,red,high_Expectation,,,,,0,174,174,25,0.00123559997882694,,,,,,,,,,,,,,None,0.19027777777777777,-0.03333333333333333,865254,001,2023-02-23_22h29.57.389,expectation_shapes_perceived_time,2022.2.4,60.23435985073935,
1,-100,0.85,met,273,green,red,high_Expectation,,,,,0,175,175,272,0.0012205999810248613,,,,,,,,,,,,,,None,0.19027777777777777,-0.03333333333333333,865254,001,2023-02-23_22h29.57.389,expectation_shapes_perceived_time,2022.2.4,60.23435985073935,
1,33,0.85,met,46,green,red,high_Expectation,,,,,0,176,176,45,0.0012932000099681318,,,,,,,,,,,,,,None,0.19027777777777777,-0.03333333333333333,865254,001,2023-02-23_22h29.57.389,expectation_shapes_perceived_time,2022.2.4,60.23435985073935,
1,33,0.15,unmet,233,red,green,high_Expectation,,,,,0,177,177,232,0.0012320999521762133,,,,,,,,,,,,,,None,0.19027777777777777,-0.03333333333333333,865254,001,2023-02-23_22h29.57.389,expectation_shapes_perceived_time,2022.2.4,60.23435985073935,
1,233,0.85,met,262,green,red,high_Expectation,,,,,0,178,178,261,0.0012270999723114073,,,,,,,,,,,,,,None,0.19027777777777777,-0.03333333333333333,865254,001,2023-02-23_22h29.57.389,expectation_shapes_perceived_time,2022.2.4,60.23435985073935,
1,100,0.85,met,43,green,red,high_Expectation,,,,,0,179,179,42,0.0012137999874539673,,,,,,,,,,,,,,None,0.19027777777777777,-0.03333333333333333,865254,001,2023-02-23_22h29.57.389,expectation_shapes_perceived_time,2022.2.4,60.23435985073935,
1,100,0.85,met,10,green,red,high_Expectation,,,,,0,180,180,9,0.0012319000088609755,,,,,,,,,,,,,,None,0.19027777777777777,-0.03333333333333333,865254,001,2023-02-23_22h29.57.389,expectation_shapes_perceived_time,2022.2.4,60.23435985073935,
1,300,0.85,met,106,green,red,high_Expectation,,,,,0,181,181,105,0.0011177000124007463,,,,,,,,,,,,,,None,0.19027777777777777,-0.034722222222222224,865254,001,2023-02-23_22h29.57.389,expectation_shapes_perceived_time,2022.2.4,60.23435985073935,
1,233,0.85,met,113,green,red,high_Expectation,,,,,0,182,182,112,0.00122819998068735,,,,,,,,,,,,,,None,0.19027777777777777,-0.034722222222222224,865254,001,2023-02-23_22h29.57.389,expectation_shapes_perceived_time,2022.2.4,60.23435985073935,
1,300,0.15,unmet,42,red,green,high_Expectation,,,,,0,183,183,41,0.001173200027551502,,,,,,,,,,,,,,None,0.19027777777777777,-0.034722222222222224,865254,001,2023-02-23_22h29.57.389,expectation_shapes_perceived_time,2022.2.4,60.23435985073935,
1,-33,0.85,met,270,green,red,high_Expectation,,,,,0,184,184,269,0.0012400000123307109,,,,,,,,,,,,,,None,0.19027777777777777,-0.034722222222222224,865254,001,2023-02-23_22h29.57.389,expectation_shapes_perceived_time,2022.2.4,60.23435985073935,
1,33,0.85,met,47,green,red,high_Expectation,,,,,0,185,185,46,0.0012181999627500772,,,,,,,,,,,,,,None,0.19027777777777777,-0.034722222222222224,865254,001,2023-02-23_22h29.57.389,expectation_shapes_perceived_time,2022.2.4,60.23435985073935,
1,-100,0.85,met,2,green,red,high_Expectation,,,,,0,186,186,1,0.0011832000454887748,,,,,,,,,,,,,,None,0.19027777777777777,-0.0375,865254,001,2023-02-23_22h29.57.389,expectation_shapes_perceived_time,2022.2.4,60.23435985073935,
1,100,0.85,met,140,green,red,high_Expectation,,,,,0,187,187,139,0.0011195000261068344,,,,,,,,,,,,,,None,0.19027777777777777,-0.0375,865254,001,2023-02-23_22h29.57.389,expectation_shapes_perceived_time,2022.2.4,60.23435985073935,
1,167,0.85,met,17,green,red,high_Expectation,,,,,0,188,188,16,0.0011527000460773706,,,,,,,,,,,,,,None,0.19027777777777777,-0.0375,865254,001,2023-02-23_22h29.57.389,expectation_shapes_perceived_time,2022.2.4,60.23435985073935,
1,-300,0.85,met,200,green,red,high_Expectation,,,,,0,189,189,199,0.0011924999998882413,,,,,,,,,,,,,,None,0.19027777777777777,-0.0375,865254,001,2023-02-23_22h29.57.389,expectation_shapes_perceived_time,2022.2.4,60.23435985073935,
1,300,0.85,met,199,green,red,high_Expectation,,,,,0,190,190,198,0.001166399975772947,,,,,,,,,,,,,,None,0.19027777777777777,-0.03888888888888889,865254,001,2023-02-23_22h29.57.389,expectation_shapes_perceived_time,2022.2.4,60.23435985073935,
1,300,0.85,met,24,green,red,high_Expectation,,,,,0,191,191,23,0.0011516999802552164,,,,,,,,,,,,,,None,0.19027777777777777,-0.03888888888888889,865254,001,2023-02-23_22h29.57.389,expectation_shapes_perceived_time,2022.2.4,60.23435985073935,
1,-33,0.85,met,212,green,red,high_Expectation,,,,,0,192,192,211,0.0011678000446408987,,,,,,,,,,,,,,None,0.19027777777777777,-0.03888888888888889,865254,001,2023-02-23_22h29.57.389,expectation_shapes_perceived_time,2022.2.4,60.23435985073935,
1,-300,0.85,met,72,green,red,high_Expectation,,,,,0,193,193,71,0.0012175999581813812,,,,,,,,,,,,,,None,0.19027777777777777,-0.03888888888888889,865254,001,2023-02-23_22h29.57.389,expectation_shapes_perceived_time,2022.2.4,60.23435985073935,
1,-33,0.85,met,294,green,red,high_Expectation,,,,,0,194,194,293,0.0012319000088609755,,,,,,,,,,,,,,None,0.19027777777777777,-0.03888888888888889,865254,001,2023-02-23_22h29.57.389,expectation_shapes_perceived_time,2022.2.4,60.23435985073935,
1,-167,0.85,met,95,green,red,high_Expectation,,,,,0,195,195,94,0.0012389999465085566,,,,,,,,,,,,,,None,0.19027777777777777,-0.04027777777777778,865254,001,2023-02-23_22h29.57.389,expectation_shapes_perceived_time,2022.2.4,60.23435985073935,
1,167,0.15,unmet,70,red,green,high_Expectation,,,,,0,196,196,69,0.0012698000064119697,,,,,,,,,,,,,,None,0.19027777777777777,-0.04027777777777778,865254,001,2023-02-23_22h29.57.389,expectation_shapes_perceived_time,2022.2.4,60.23435985073935,
1,-33,0.85,met,236,green,red,high_Expectation,,,,,0,197,197,235,0.0012529000523500144,,,,,,,,,,,,,,None,0.19027777777777777,-0.04027777777777778,865254,001,2023-02-23_22h29.57.389,expectation_shapes_perceived_time,2022.2.4,60.23435985073935,
1,-33,0.85,met,208,green,red,high_Expectation,,,,,0,198,198,207,0.0011963999713771045,,,,,,,,,,,,,,None,0.19027777777777777,-0.043055555555555555,865254,001,2023-02-23_22h29.57.389,expectation_shapes_perceived_time,2022.2.4,60.23435985073935,
1,33,0.85,met,254,green,red,high_Expectation,,,,,0,199,199,253,0.0012441000435501337,,,,,,,,,,,,,,None,0.19027777777777777,-0.043055555555555555,865254,001,2023-02-23_22h29.57.389,expectation_shapes_perceived_time,2022.2.4,60.23435985073935,
1,233,0.85,met,285,green,red,high_Expectation,,,,,0,200,200,284,0.0011833999888040125,,,,,,,,,,,,,,None,0.19027777777777777,-0.043055555555555555,865254,001,2023-02-23_22h29.57.389,expectation_shapes_perceived_time,2022.2.4,60.23435985073935,
1,-300,0.85,met,222,green,red,high_Expectation,,,,,0,201,201,221,0.0011831999872811139,,,,,,,,,,,,,,None,0.19027777777777777,-0.043055555555555555,865254,001,2023-02-23_22h29.57.389,expectation_shapes_perceived_time,2022.2.4,60.23435985073935,
1,100,0.85,met,228,green,red,high_Expectation,,,,,0,202,202,227,0.0012475000112317502,,,,,,,,,,,,,,None,0.19027777777777777,-0.043055555555555555,865254,001,2023-02-23_22h29.57.389,expectation_shapes_perceived_time,2022.2.4,60.23435985073935,
1,100,0.85,met,171,green,red,high_Expectation,,,,,0,203,203,170,0.0011694999993778765,,,,,,,,,,,,,,None,0.18888888888888888,-0.044444444444444446,865254,001,2023-02-23_22h29.57.389,expectation_shapes_perceived_time,2022.2.4,60.23435985073935,
1,-300,0.85,met,78,green,red,high_Expectation,,,,,0,204,204,77,0.001228800043463707,,,,,,,,,,,,,,None,0.18888888888888888,-0.044444444444444446,865254,001,2023-02-23_22h29.57.389,expectation_shapes_perceived_time,2022.2.4,60.23435985073935,
1,33,0.15,unmet,81,red,green,high_Expectation,,,,,0,205,205,80,0.0012218999909237027,,,,,,,,,,,,,,None,0.18888888888888888,-0.044444444444444446,865254,001,2023-02-23_22h29.57.389,expectation_shapes_perceived_time,2022.2.4,60.23435985073935,
1,100,0.85,met,52,green,red,high_Expectation,,,,,0,206,206,51,0.00121779995970428,,,,,,,,,,,,,,None,0.18888888888888888,-0.044444444444444446,865254,001,2023-02-23_22h29.57.389,expectation_shapes_perceived_time,2022.2.4,60.23435985073935,
1,-33,0.85,met,202,green,red,high_Expectation,,,,,0,207,207,201,0.0012241000076755881,,,,,,,,,,,,,,None,0.18888888888888888,-0.04583333333333333,865254,001,2023-02-23_22h29.57.389,expectation_shapes_perceived_time,2022.2.4,60.23435985073935,
1,33,0.15,unmet,267,red,green,high_Expectation,,,,,0,208,208,266,0.0012246000114828348,,,,,,,,,,,,,,None,0.18888888888888888,-0.04583333333333333,865254,001,2023-02-23_22h29.57.389,expectation_shapes_perceived_time,2022.2.4,60.23435985073935,
1,33,0.85,met,58,green,red,high_Expectation,,,,,0,209,209,57,0.0011950000189244747,,,,,,,,,,,,,,None,0.18888888888888888,-0.04583333333333333,865254,001,2023-02-23_22h29.57.389,expectation_shapes_perceived_time,2022.2.4,60.23435985073935,
1,33,0.85,met,272,green,red,high_Expectation,,,,,0,210,210,271,0.0012029000208713114,,,,,,,,,,,,,,None,0.18888888888888888,-0.04583333333333333,865254,001,2023-02-23_22h29.57.389,expectation_shapes_perceived_time,2022.2.4,60.23435985073935,
1,-100,0.85,met,192,green,red,high_Expectation,,,,,0,211,211,191,0.0012258999631740153,,,,,,,,,,,,,,None,0.18888888888888888,-0.04861111111111111,865254,001,2023-02-23_22h29.57.389,expectation_shapes_perceived_time,2022.2.4,60.23435985073935,
1,167,0.85,met,259,green,red,high_Expectation,,,,,0,212,212,258,0.0012441999861039221,,,,,,,,,,,,,,None,0.18888888888888888,-0.04861111111111111,865254,001,2023-02-23_22h29.57.389,expectation_shapes_perceived_time,2022.2.4,60.23435985073935,
1,-167,0.85,met,143,green,red,high_Expectation,,,,,0,213,213,142,0.0012292000465095043,,,,,,,,,,,,,,None,0.18888888888888888,-0.04861111111111111,865254,001,2023-02-23_22h29.57.389,expectation_shapes_perceived_time,2022.2.4,60.23435985073935,
1,33,0.15,unmet,177,red,green,high_Expectation,,,,,0,214,214,176,0.0011835000477731228,,,,,,,,,,,,,,None,0.18888888888888888,-0.04861111111111111,865254,001,2023-02-23_22h29.57.389,expectation_shapes_perceived_time,2022.2.4,60.23435985073935,
1,-300,0.85,met,14,green,red,high_Expectation,,,,,0,215,215,13,0.0012128000380471349,,,,,,,,,,,,,,None,0.1875,-0.05,865254,001,2023-02-23_22h29.57.389,expectation_shapes_perceived_time,2022.2.4,60.23435985073935,
1,167,0.15,unmet,224,red,green,high_Expectation,,,,,0,216,216,223,0.0012992999982088804,,,,,,,,,,,,,,None,0.1875,-0.05,865254,001,2023-02-23_22h29.57.389,expectation_shapes_perceived_time,2022.2.4,60.23435985073935,
1,-167,0.85,met,165,green,red,high_Expectation,,,,,0,217,217,164,0.001250100031029433,,,,,,,,,,,,,,None,0.1875,-0.05,865254,001,2023-02-23_22h29.57.389,expectation_shapes_perceived_time,2022.2.4,60.23435985073935,
1,-100,0.85,met,41,green,red,high_Expectation,,,,,0,218,218,40,0.0011940000113099813,,,,,,,,,,,,,,None,0.1875,-0.05,865254,001,2023-02-23_22h29.57.389,expectation_shapes_perceived_time,2022.2.4,60.23435985073935,
1,233,0.85,met,138,green,red,high_Expectation,,,,,0,219,219,137,0.001209300011396408,,,,,,,,,,,,,,None,0.1875,-0.05138888888888889,865254,001,2023-02-23_22h29.57.389,expectation_shapes_perceived_time,2022.2.4,60.23435985073935,
1,-233,0.85,met,8,green,red,high_Expectation,,,,,0,220,220,7,0.0011477000080049038,,,,,,,,,,,,,,None,0.1875,-0.05138888888888889,865254,001,2023-02-23_22h29.57.389,expectation_shapes_perceived_time,2022.2.4,60.23435985073935,
1,167,0.15,unmet,266,red,green,high_Expectation,,,,,0,221,221,265,0.00120160001097247,,,,,,,,,,,,,,None,0.1875,-0.05138888888888889,865254,001,2023-02-23_22h29.57.389,expectation_shapes_perceived_time,2022.2.4,60.23435985073935,
1,-33,0.85,met,60,green,red,high_Expectation,,,,,0,222,222,59,0.0012196999741718173,,,,,,,,,,,,,,None,0.1875,-0.05138888888888889,865254,001,2023-02-23_22h29.57.389,expectation_shapes_perceived_time,2022.2.4,60.23435985073935,
1,33,0.15,unmet,84,red,green,high_Expectation,,,,,0,223,223,83,0.001117300009354949,,,,,,,,,,,,,,None,0.1875,-0.05138888888888889,865254,001,2023-02-23_22h29.57.389,expectation_shapes_perceived_time,2022.2.4,60.23435985073935,
1,-233,0.15,unmet,291,red,green,high_Expectation,,,,,0,224,224,290,0.0010994999902322888,,,,,,,,,,,,,,None,0.1875,-0.05277777777777778,865254,001,2023-02-23_22h29.57.389,expectation_shapes_perceived_time,2022.2.4,60.23435985073935,
1,233,0.85,met,77,green,red,high_Expectation,,,,,0,225,225,76,0.0012639999622479081,,,,,,,,,,,,,,None,0.1875,-0.05277777777777778,865254,001,2023-02-23_22h29.57.389,expectation_shapes_perceived_time,2022.2.4,60.23435985073935,
1,-233,0.85,met,216,green,red,high_Expectation,,,,,0,226,226,215,0.001147200004197657,,,,,,,,,,,,,,None,0.1875,-0.05277777777777778,865254,001,2023-02-23_22h29.57.389,expectation_shapes_perceived_time,2022.2.4,60.23435985073935,
1,233,0.85,met,297,green,red,high_Expectation,,,,,0,227,227,296,0.0012482000165618956,,,,,,,,,,,,,,None,0.1875,-0.05277777777777778,865254,001,2023-02-23_22h29.57.389,expectation_shapes_perceived_time,2022.2.4,60.23435985073935,
1,-33,0.85,met,144,green,red,high_Expectation,,,,,0,228,228,143,0.0012009000056423247,,,,,,,,,,,,,,None,0.1875,-0.05277777777777778,865254,001,2023-02-23_22h29.57.389,expectation_shapes_perceived_time,2022.2.4,60.23435985073935,
1,33,0.15,unmet,277,red,green,high_Expectation,,,,,0,229,229,276,0.0012152999988757074,,,,,,,,,,,,,,None,0.1875,-0.05277777777777778,865254,001,2023-02-23_22h29.57.389,expectation_shapes_perceived_time,2022.2.4,60.23435985073935,
1,100,0.85,met,132,green,red,high_Expectation,,,,,0,230,230,131,0.001261900004465133,,,,,,,,,,,,,,None,0.1875,-0.05277777777777778,865254,001,2023-02-23_22h29.57.389,expectation_shapes_perceived_time,2022.2.4,60.23435985073935,
1,233,0.85,met,186,green,red,high_Expectation,,,,,0,231,231,185,0.0011545000015757978,,,,,,,,,,,,,,None,0.1875,-0.05277777777777778,865254,001,2023-02-23_22h29.57.389,expectation_shapes_perceived_time,2022.2.4,60.23435985073935,
1,-300,0.85,met,243,green,red,high_Expectation,,,,,0,232,232,242,0.0011812999728135765,,,,,,,,,,,,,,None,0.1875,-0.05277777777777778,865254,001,2023-02-23_22h29.57.389,expectation_shapes_perceived_time,2022.2.4,60.23435985073935,
1,100,0.85,met,94,green,red,high_Expectation,,,,,0,233,233,93,0.0011634000111371279,,,,,,,,,,,,,,None,0.1875,-0.05416666666666667,865254,001,2023-02-23_22h29.57.389,expectation_shapes_perceived_time,2022.2.4,60.23435985073935,
1,-33,0.85,met,9,green,red,high_Expectation,,,,,0,234,234,8,0.0011413000174798071,,,,,,,,,,,,,,None,0.1875,-0.05416666666666667,865254,001,2023-02-23_22h29.57.389,expectation_shapes_perceived_time,2022.2.4,60.23435985073935,
1,233,0.85,met,45,green,red,high_Expectation,,,,,0,235,235,44,0.001204199972562492,,,,,,,,,,,,,,None,0.1875,-0.05416666666666667,865254,001,2023-02-23_22h29.57.389,expectation_shapes_perceived_time,2022.2.4,60.23435985073935,
1,-167,0.85,met,71,green,red,high_Expectation,,,,,0,236,236,70,0.0012297999928705394,,,,,,,,,,,,,,None,0.1875,-0.05416666666666667,865254,001,2023-02-23_22h29.57.389,expectation_shapes_perceived_time,2022.2.4,60.23435985073935,
1,-300,0.85,met,244,green,red,high_Expectation,,,,,0,237,237,243,0.001082700036931783,,,,,,,,,,,,,,None,0.1875,-0.05416666666666667,865254,001,2023-02-23_22h29.57.389,expectation_shapes_perceived_time,2022.2.4,60.23435985073935,
1,-100,0.85,met,145,green,red,high_Expectation,,,,,0,238,238,144,0.0010677000391297042,,,,,,,,,,,,,,None,0.1875,-0.05555555555555555,865254,001,2023-02-23_22h29.57.389,expectation_shapes_perceived_time,2022.2.4,60.23435985073935,
1,-100,0.85,met,287,green,red,high_Expectation,,,,,0,239,239,286,0.0011212999816052616,,,,,,,,,,,,,,None,0.1875,-0.05555555555555555,865254,001,2023-02-23_22h29.57.389,expectation_shapes_perceived_time,2022.2.4,60.23435985073935,
1,-300,0.85,met,209,green,red,high_Expectation,,,,,0,240,240,208,0.0011097000096924603,,,,,,,,,,,,,,None,0.1875,-0.05555555555555555,865254,001,2023-02-23_22h29.57.389,expectation_shapes_perceived_time,2022.2.4,60.23435985073935,
1,-233,0.85,met,27,green,red,high_Expectation,,,,,0,241,241,26,0.0010572000173851848,,,,,,,,,,,,,,None,0.1875,-0.05555555555555555,865254,001,2023-02-23_22h29.57.389,expectation_shapes_perceived_time,2022.2.4,60.23435985073935,
1,100,0.85,met,54,green,red,high_Expectation,,,,,0,242,242,53,0.001123800000641495,,,,,,,,,,,,,,None,0.1875,-0.05555555555555555,865254,001,2023-02-23_22h29.57.389,expectation_shapes_perceived_time,2022.2.4,60.23435985073935,
1,300,0.85,met,75,green,red,high_Expectation,,,,,0,243,243,74,0.0011155999964103103,,,,,,,,,,,,,,None,0.1875,-0.05555555555555555,865254,001,2023-02-23_22h29.57.389,expectation_shapes_perceived_time,2022.2.4,60.23435985073935,
1,233,0.85,met,73,green,red,high_Expectation,,,,,0,244,244,72,0.0011036000214517117,,,,,,,,,,,,,,None,0.1875,-0.05555555555555555,865254,001,2023-02-23_22h29.57.389,expectation_shapes_perceived_time,2022.2.4,60.23435985073935,
1,-167,0.85,met,150,green,red,high_Expectation,,,,,0,245,245,149,0.001035400026012212,,,,,,,,,,,,,,None,0.1875,-0.05555555555555555,865254,001,2023-02-23_22h29.57.389,expectation_shapes_perceived_time,2022.2.4,60.23435985073935,
1,-167,0.85,met,122,green,red,high_Expectation,,,,,0,246,246,121,0.0012916999985463917,,,,,,,,,,,,,,None,0.1875,-0.05555555555555555,865254,001,2023-02-23_22h29.57.389,expectation_shapes_perceived_time,2022.2.4,60.23435985073935,
1,-100,0.85,met,196,green,red,high_Expectation,,,,,0,247,247,195,0.0011900000390596688,,,,,,,,,,,,,,None,0.1875,-0.05555555555555555,865254,001,2023-02-23_22h29.57.389,expectation_shapes_perceived_time,2022.2.4,60.23435985073935,
1,33,0.85,met,29,green,red,high_Expectation,,,,,0,248,248,28,0.0010850999969989061,,,,,,,,,,,,,,None,0.18611111111111112,-0.05694444444444444,865254,001,2023-02-23_22h29.57.389,expectation_shapes_perceived_time,2022.2.4,60.23435985073935,
1,-233,0.85,met,149,green,red,high_Expectation,,,,,0,249,249,148,0.0010467999964021146,,,,,,,,,,,,,,None,0.18611111111111112,-0.05694444444444444,865254,001,2023-02-23_22h29.57.389,expectation_shapes_perceived_time,2022.2.4,60.23435985073935,
1,100,0.85,met,147,green,red,high_Expectation,,,,,0,250,250,146,0.0010772999958135188,,,,,,,,,,,,,,None,0.18611111111111112,-0.05694444444444444,865254,001,2023-02-23_22h29.57.389,expectation_shapes_perceived_time,2022.2.4,60.23435985073935,
1,33,0.85,met,136,green,red,high_Expectation,,,,,0,251,251,135,0.0011895999778062105,,,,,,,,,,,,,,None,0.18611111111111112,-0.058333333333333334,865254,001,2023-02-23_22h29.57.389,expectation_shapes_perceived_time,2022.2.4,60.23435985073935,
1,233,0.85,met,191,green,red,high_Expectation,,,,,0,252,252,190,0.0011028999579139054,,,,,,,,,,,,,,None,0.18611111111111112,-0.058333333333333334,865254,001,2023-02-23_22h29.57.389,expectation_shapes_perceived_time,2022.2.4,60.23435985073935,
1,-167,0.85,met,296,green,red,high_Expectation,,,,,0,253,253,295,0.001208100002259016,,,,,,,,,,,,,,None,0.18611111111111112,-0.058333333333333334,865254,001,2023-02-23_22h29.57.389,expectation_shapes_perceived_time,2022.2.4,60.23435985073935,
1,-300,0.85,met,40,green,red,high_Expectation,,,,,0,254,254,39,0.0011339000193402171,,,,,,,,,,,,,,None,0.18611111111111112,-0.058333333333333334,865254,001,2023-02-23_22h29.57.389,expectation_shapes_perceived_time,2022.2.4,60.23435985073935,
1,-33,0.85,met,115,green,red,high_Expectation,,,,,0,255,255,114,0.0011544000008143485,,,,,,,,,,,,,,None,0.18611111111111112,-0.058333333333333334,865254,001,2023-02-23_22h29.57.389,expectation_shapes_perceived_time,2022.2.4,60.23435985073935,
1,300,0.15,unmet,129,red,green,high_Expectation,,,,,0,256,256,128,0.0011758999899029732,,,,,,,,,,,,,,None,0.18611111111111112,-0.058333333333333334,865254,001,2023-02-23_22h29.57.389,expectation_shapes_perceived_time,2022.2.4,60.23435985073935,
1,-33,0.85,met,134,green,red,high_Expectation,,,,,0,257,257,133,0.0012181000201962888,,,,,,,,,,,,,,None,0.18611111111111112,-0.058333333333333334,865254,001,2023-02-23_22h29.57.389,expectation_shapes_perceived_time,2022.2.4,60.23435985073935,
1,-167,0.85,met,3,green,red,high_Expectation,,,,,0,258,258,2,0.0011438000365160406,,,,,,,,,,,,,,None,0.18611111111111112,-0.058333333333333334,865254,001,2023-02-23_22h29.57.389,expectation_shapes_perceived_time,2022.2.4,60.23435985073935,
1,-233,0.85,met,65,green,red,high_Expectation,,,,,0,259,259,64,0.0011552000069059432,,,,,,,,,,,,,,None,0.18611111111111112,-0.058333333333333334,865254,001,2023-02-23_22h29.57.389,expectation_shapes_perceived_time,2022.2.4,60.23435985073935,
1,-167,0.85,met,137,green,red,high_Expectation,,,,,0,260,260,136,0.0011756999883800745,,,,,,,,,,,,,,None,0.18611111111111112,-0.059722222222222225,865254,001,2023-02-23_22h29.57.389,expectation_shapes_perceived_time,2022.2.4,60.23435985073935,
1,-100,0.85,met,179,green,red,high_Expectation,,,,,0,261,261,178,0.0012030999641865492,,,,,,,,,,,,,,None,0.18611111111111112,-0.059722222222222225,865254,001,2023-02-23_22h29.57.389,expectation_shapes_perceived_time,2022.2.4,60.23435985073935,
1,167,0.85,met,295,green,red,high_Expectation,,,,,0,262,262,294,0.0011360999778844416,,,,,,,,,,,,,,None,0.18611111111111112,-0.059722222222222225,865254,001,2023-02-23_22h29.57.389,expectation_shapes_perceived_time,2022.2.4,60.23435985073935,
1,-33,0.85,met,184,green,red,high_Expectation,,,,,0,263,263,183,0.0011064999853260815,,,,,,,,,,,,,,None,0.18611111111111112,-0.059722222222222225,865254,001,2023-02-23_22h29.57.389,expectation_shapes_perceived_time,2022.2.4,60.23435985073935,
1,100,0.85,met,18,green,red,high_Expectation,,,,,0,264,264,17,0.0011446999851614237,,,,,,,,,,,,,,None,0.18611111111111112,-0.06111111111111111,865254,001,2023-02-23_22h29.57.389,expectation_shapes_perceived_time,2022.2.4,60.23435985073935,
1,167,0.15,unmet,123,red,green,high_Expectation,,,,,0,265,265,122,0.0011287000379525125,,,,,,,,,,,,,,None,0.18611111111111112,-0.06111111111111111,865254,001,2023-02-23_22h29.57.389,expectation_shapes_perceived_time,2022.2.4,60.23435985073935,
1,300,0.15,unmet,255,red,green,high_Expectation,,,,,0,266,266,254,0.0011437000357545912,,,,,,,,,,,,,,None,0.18611111111111112,-0.06111111111111111,865254,001,2023-02-23_22h29.57.389,expectation_shapes_perceived_time,2022.2.4,60.23435985073935,
1,-167,0.85,met,6,green,red,high_Expectation,,,,,0,267,267,5,0.0011605999898165464,,,,,,,,,,,,,,None,0.18611111111111112,-0.06111111111111111,865254,001,2023-02-23_22h29.57.389,expectation_shapes_perceived_time,2022.2.4,60.23435985073935,
1,233,0.85,met,251,green,red,high_Expectation,,,,,0,268,268,250,0.001179700018838048,,,,,,,,,,,,,,None,0.18611111111111112,-0.06111111111111111,865254,001,2023-02-23_22h29.57.389,expectation_shapes_perceived_time,2022.2.4,60.23435985073935,
1,-167,0.85,met,35,green,red,high_Expectation,,,,,0,269,269,34,0.0011702000047080219,,,,,,,,,,,,,,None,0.18611111111111112,-0.06111111111111111,865254,001,2023-02-23_22h29.57.389,expectation_shapes_perceived_time,2022.2.4,60.23435985073935,
1,167,0.15,unmet,166,red,green,high_Expectation,,,,,0,270,270,165,0.0011546000023372471,,,,,,,,,,,,,,None,0.18611111111111112,-0.06111111111111111,865254,001,2023-02-23_22h29.57.389,expectation_shapes_perceived_time,2022.2.4,60.23435985073935,
1,167,0.85,met,63,green,red,high_Expectation,,,,,0,271,271,62,0.0012107000220566988,,,,,,,,,,,,,,None,0.18611111111111112,-0.06111111111111111,865254,001,2023-02-23_22h29.57.389,expectation_shapes_perceived_time,2022.2.4,60.23435985073935,
1,-100,0.85,met,64,green,red,high_Expectation,,,,,0,272,272,63,0.0012700000079348683,,,,,,,,,,,,,,None,0.18611111111111112,-0.06111111111111111,865254,001,2023-02-23_22h29.57.389,expectation_shapes_perceived_time,2022.2.4,60.23435985073935,
1,100,0.85,met,169,green,red,high_Expectation,,,,,0,273,273,168,0.0013426000368781388,,,,,,,,,,,,,,None,0.18611111111111112,-0.06111111111111111,865254,001,2023-02-23_22h29.57.389,expectation_shapes_perceived_time,2022.2.4,60.23435985073935,
1,-167,0.15,unmet,105,red,green,high_Expectation,,,,,0,274,274,104,0.0012580999755300581,,,,,,,,,,,,,,None,0.18472222222222223,-0.0625,865254,001,2023-02-23_22h29.57.389,expectation_shapes_perceived_time,2022.2.4,60.23435985073935,
1,100,0.85,met,207,green,red,high_Expectation,,,,,0,275,275,206,0.0010722000151872635,,,,,,,,,,,,,,None,0.18472222222222223,-0.0625,865254,001,2023-02-23_22h29.57.389,expectation_shapes_perceived_time,2022.2.4,60.23435985073935,
1,300,0.15,unmet,16,red,green,high_Expectation,,,,,0,276,276,15,0.001083599985577166,,,,,,,,,,,,,,None,0.18472222222222223,-0.0625,865254,001,2023-02-23_22h29.57.389,expectation_shapes_perceived_time,2022.2.4,60.23435985073935,
1,-100,0.85,met,36,green,red,high_Expectation,,,,,0,277,277,35,0.0010541999945417047,,,,,,,,,,,,,,None,0.18472222222222223,-0.0625,865254,001,2023-02-23_22h29.57.389,expectation_shapes_perceived_time,2022.2.4,60.23435985073935,
1,-233,0.85,met,181,green,red,high_Expectation,,,,,0,278,278,180,0.00106819998472929,,,,,,,,,,,,,,None,0.18472222222222223,-0.0625,865254,001,2023-02-23_22h29.57.389,expectation_shapes_perceived_time,2022.2.4,60.23435985073935,
1,-100,0.85,met,225,green,red,high_Expectation,,,,,0,279,279,224,0.0010840000468306243,,,,,,,,,,,,,,None,0.18472222222222223,-0.0625,865254,001,2023-02-23_22h29.57.389,expectation_shapes_perceived_time,2022.2.4,60.23435985073935,
1,233,0.85,met,152,green,red,high_Expectation,,,,,0,280,280,151,0.0011551999486982822,,,,,,,,,,,,,,None,0.18472222222222223,-0.0625,865254,001,2023-02-23_22h29.57.389,expectation_shapes_perceived_time,2022.2.4,60.23435985073935,
1,300,0.85,met,61,green,red,high_Expectation,,,,,0,281,281,60,0.0011061999830417335,,,,,,,,,,,,,,None,0.18472222222222223,-0.0625,865254,001,2023-02-23_22h29.57.389,expectation_shapes_perceived_time,2022.2.4,60.23435985073935,
1,300,0.85,met,32,green,red,high_Expectation,,,,,0,282,282,31,0.001058999972883612,,,,,,,,,,,,,,None,0.18472222222222223,-0.0625,865254,001,2023-02-23_22h29.57.389,expectation_shapes_perceived_time,2022.2.4,60.23435985073935,
1,-300,0.85,met,124,green,red,high_Expectation,,,,,0,283,283,123,0.0010658000246621668,,,,,,,,,,,,,,None,0.18472222222222223,-0.06527777777777778,865254,001,2023-02-23_22h29.57.389,expectation_shapes_perceived_time,2022.2.4,60.23435985073935,
1,-33,0.85,met,121,green,red,high_Expectation,,,,,0,284,284,120,0.0010890000266954303,,,,,,,,,,,,,,None,0.18472222222222223,-0.06527777777777778,865254,001,2023-02-23_22h29.57.389,expectation_shapes_perceived_time,2022.2.4,60.23435985073935,
1,-300,0.85,met,100,green,red,high_Expectation,,,,,0,285,285,99,0.0011519999825395644,,,,,,,,,,,,,,None,0.18472222222222223,-0.06527777777777778,865254,001,2023-02-23_22h29.57.389,expectation_shapes_perceived_time,2022.2.4,60.23435985073935,
1,167,0.15,unmet,263,red,green,high_Expectation,,,,,0,286,286,262,0.0010650000185705721,,,,,,,,,,,,,,None,0.18472222222222223,-0.06527777777777778,865254,001,2023-02-23_22h29.57.389,expectation_shapes_perceived_time,2022.2.4,60.23435985073935,
1,-33,0.85,met,258,green,red,high_Expectation,,,,,0,287,287,257,0.0010868000099435449,,,,,,,,,,,,,,None,0.18472222222222223,-0.06527777777777778,865254,001,2023-02-23_22h29.57.389,expectation_shapes_perceived_time,2022.2.4,60.23435985073935,
1,-167,0.85,met,156,green,red,high_Expectation,,,,,0,288,288,155,0.001033300010021776,,,,,,,,,,,,,,None,0.18472222222222223,-0.06527777777777778,865254,001,2023-02-23_22h29.57.389,expectation_shapes_perceived_time,2022.2.4,60.23435985073935,
1,33,0.15,unmet,213,red,green,high_Expectation,,,,,0,289,289,212,0.001082399976439774,,,,,,,,,,,,,,None,0.18472222222222223,-0.06527777777777778,865254,001,2023-02-23_22h29.57.389,expectation_shapes_perceived_time,2022.2.4,60.23435985073935,
1,-300,0.85,met,221,green,red,high_Expectation,,,,,0,290,290,220,0.0012180000194348395,,,,,,,,,,,,,,None,0.18472222222222223,-0.06527777777777778,865254,001,2023-02-23_22h29.57.389,expectation_shapes_perceived_time,2022.2.4,60.23435985073935,
1,100,0.85,met,232,green,red,high_Expectation,,,,,0,291,291,231,0.0010798000148497522,,,,,,,,,,,,,,None,0.18472222222222223,-0.06527777777777778,865254,001,2023-02-23_22h29.57.389,expectation_shapes_perceived_time,2022.2.4,60.23435985073935,
1,-33,0.85,met,44,green,red,high_Expectation,,,,,0,292,292,43,0.0012226999970152974,,,,,,,,,,,,,,None,0.18472222222222223,-0.06666666666666667,865254,001,2023-02-23_22h29.57.389,expectation_shapes_perceived_time,2022.2.4,60.23435985073935,
1,-233,0.85,met,284,green,red,high_Expectation,,,,,0,293,293,283,0.0011624000035226345,,,,,,,,,,,,,,None,0.18472222222222223,-0.06666666666666667,865254,001,2023-02-23_22h29.57.389,expectation_shapes_perceived_time,2022.2.4,60.23435985073935,
1,233,0.85,met,25,green,red,high_Expectation,,,,,0,294,294,24,0.0013942999648861587,,,,,,,,,,,,,,None,0.18472222222222223,-0.06666666666666667,865254,001,2023-02-23_22h29.57.389,expectation_shapes_perceived_time,2022.2.4,60.23435985073935,
1,300,0.85,met,269,green,red,high_Expectation,,,,,0,295,295,268,0.0010673999786376953,,,,,,,,,,,,,,None,0.18472222222222223,-0.06666666666666667,865254,001,2023-02-23_22h29.57.389,expectation_shapes_perceived_time,2022.2.4,60.23435985073935,
1,300,0.85,met,204,green,red,high_Expectation,,,,,0,296,296,203,0.0011210000375285745,,,,,,,,,,,,,,None,0.18333333333333332,-0.06666666666666667,865254,001,2023-02-23_22h29.57.389,expectation_shapes_perceived_time,2022.2.4,60.23435985073935,
1,300,0.85,met,289,green,red,high_Expectation,,,,,0,297,297,288,0.0011720999609678984,,,,,,,,,,,,,,None,0.18333333333333332,-0.06666666666666667,865254,001,2023-02-23_22h29.57.389,expectation_shapes_perceived_time,2022.2.4,60.23435985073935,
1,167,0.85,met,49,green,red,high_Expectation,,,,,0,298,298,48,0.001194800017401576,,,,,,,,,,,,,,None,0.18333333333333332,-0.06666666666666667,865254,001,2023-02-23_22h29.57.389,expectation_shapes_perceived_time,2022.2.4,60.23435985073935,
1,-300,0.85,met,231,green,red,high_Expectation,,,,,0,299,299,230,0.0010813000262714922,,,,,,,,,,,,,,None,0.18333333333333332,-0.06666666666666667,865254,001,2023-02-23_22h29.57.389,expectation_shapes_perceived_time,2022.2.4,60.23435985073935,
,,,,,,,,,,,,,,,,,,,,,,,,,,,,,,,0.18333333333333332,-0.06944444444444445,,,,,,,
